Trial,Condition,Location,Direction,Target,Response_Angle,Right_Angle,Error_Angle,Accuracy,Travel_Onset,Crosshair_Onset,Response_Time,RT,ITI_Onset,ITI_Duration
1,1,2,3,1,85.412,264.027,178.615,None,187.617073,192.974278,196.073685,3.099407,196.092792,2.355214
2,1,2,0,1,74.712,264.027,-170.685,None,199.692221,204.443497,204.792912,0.349415,204.813011,3.430253
3,1,0,1,0,70.456,42.779,-27.677,None,209.486118,214.406368,218.815314,4.408946,218.834667,4.526903
4,1,2,1,1,349.242,264.027,-85.215,None,224.585180,229.460736,237.244968,7.784232,237.261917,4.304650
5,1,0,3,0,341.687,42.779,61.092,None,242.790767,248.020228,248.440585,0.420357,248.457844,2.893835
6,1,3,1,0,177.932,23.97,-153.962,None,252.592211,257.978502,258.117170,0.138668,258.143561,4.806302
7,1,2,2,0,345.4,1.098,15.698,None,264.207341,269.326838,273.372485,4.045647,273.392047,4.497837
8,1,3,0,1,178.093,267.238,89.145,None,279.147976,284.094326,288.129969,4.035643,288.149567,4.084879
9,2,1,1,1,319.962,330.706,10.744,1,293.451414,298.829978,302.188786,3.358808,302.199149,3.845949
9,2,0,3,2,24.722,27.003,2.281,1,307.240411,312.233739,313.579391,1.345652,313.589354,4.617452
9,2,1,0,3,141.37,148.822,7.453,1,319.422409,324.118350,325.708971,1.590621,325.721967,2.460946
9,2,2,2,3,259.8,133.004,-126.796,0,329.423488,334.899893,334.991408,0.091515,335.002306,2.467373
9,1,1,2,0,273.702,5.673,91.97,None,753.307440,758.504220,759.803015,1.298795,759.823990,4.984425
10,1,0,1,0,224.394,42.779,178.385,None,765.971799,771.450934,773.895604,2.444670,773.913461,2.964090
11,1,1,1,0,185.802,5.673,179.871,None,778.106758,782.894345,782.975021,0.080676,782.990776,3.257970
12,1,2,3,0,53.302,1.098,-52.203,None,787.538035,792.375478,795.231917,2.856439,795.248311,1.157781
13,1,0,2,1,67.483,230.29,162.807,None,797.619410,802.254982,807.612526,5.357544,807.631457,3.494810
14,1,2,1,0,240.673,1.098,120.425,None,812.342931,817.988499,820.678198,2.689699,820.697558,2.718237
15,1,3,3,1,92.723,267.238,174.515,None,824.642402,829.739503,832.923482,3.183979,832.938224,1.565675
16,1,2,2,0,163.099,1.098,-162.0,None,835.720477,840.643089,847.423206,6.780117,847.440376,2.244746
17,2,3,1,2,37.659,41.458,3.798,1,850.927826,856.446352,865.024357,8.578005,865.032081,3.715506
17,2,0,2,0,216.697,213.264,-3.434,1,869.935665,874.861040,876.281152,1.420112,876.290461,1.660960
17,2,1,3,0,222.788,231.509,8.722,1,879.160052,883.940222,888.105103,4.164881,888.113413,1.366172
17,2,1,1,2,56.362,48.517,-7.845,1,890.686434,896.299591,900.900613,4.601022,900.911125,3.613728
17,1,1,0,0,5.963,5.673,-0.291,None,1315.813164,1321.252719,1323.569722,2.317003,1323.589551,3.774123
18,1,0,0,0,165.924,42.779,-123.145,None,1328.572714,1333.829473,1337.249454,3.419981,1337.266670,2.707742
19,1,3,3,0,269.757,23.97,114.213,None,1341.186491,1345.951969,1349.779259,3.827290,1349.797939,1.093312
20,1,0,3,1,142.327,230.29,87.963,None,1352.126445,1356.820255,1361.807179,4.986924,1361.823040,1.649319
21,1,1,2,1,273.702,242.143,-31.559,None,1364.742343,1369.723064,1369.882345,0.159281,1369.900301,2.870540
22,1,3,1,1,89.109,267.238,178.13,None,1373.993787,1378.729961,1382.524842,3.794881,1382.540576,1.408024
23,1,3,0,0,272.111,23.97,111.859,None,1385.167497,1390.785478,1396.017146,5.231668,1396.036910,2.304172
24,1,0,2,0,334.611,42.779,68.167,None,1399.544050,1404.774073,1407.781297,3.007224,1407.802432,4.675523
25,2,2,3,0,200.178,207.599,7.421,1,1413.683719,1419.175779,1424.698920,5.523141,1424.710973,4.594519
25,2,3,3,1,314.031,316.33,2.299,1,1430.533178,1435.209620,1436.644685,1.435065,1436.654600,2.899641
25,2,2,0,2,39.335,27.5,-11.835,1,1440.761862,1445.948910,1446.975519,1.026609,1446.983535,4.644693
25,2,3,1,1,308.144,316.33,8.186,1,1452.890201,1457.537610,1460.881684,3.344074,1460.893235,2.045990
25,1,3,1,0,88.212,23.97,-64.242,None,1869.844012,1874.923289,1877.649169,2.725880,1877.667327,1.821986
26,1,1,0,1,8.905,242.143,-126.762,None,1880.757826,1885.778792,1895.818194,10.039402,1895.834882,2.113345
27,1,1,2,1,4.442,242.143,-122.299,None,1899.145819,1904.349104,1907.254736,2.905632,1907.273360,4.065071
28,1,0,0,1,336.689,230.29,-106.4,None,1912.613001,1918.027553,1921.424437,3.396884,1921.447173,2.308400
29,1,3,2,1,266.607,267.238,0.631,None,1925.001510,1930.306640,1930.375691,0.069051,1930.393078,4.439523
30,1,3,0,0,178.011,23.97,-154.041,None,1936.021296,1941.301489,1943.833826,2.532337,1943.854352,2.310876
31,1,1,1,1,7.731,242.143,-125.588,None,1947.403466,1952.341146,1956.896410,4.555264,1956.914090,4.747353
32,1,2,3,1,260.939,264.027,3.088,None,1962.988563,1967.882550,1971.991451,4.108901,1972.008709,4.510079
33,2,2,1,2,41.201,27.5,-13.702,1,1977.764601,1982.506051,1986.059673,3.553622,1986.066579,1.847709
33,2,3,3,0,356.821,225.759,-131.062,0,1989.156626,1994.562203,1994.646829,0.0846260000001,1994.656587,2.239732
33,2,0,2,1,293.452,290.466,-2.986,1,1998.119192,2003.177137,2004.648913,1.471776,2004.660241,4.951725
33,2,1,3,3,145.337,148.822,3.485,1,2010.833711,2016.113913,2019.647353,3.53344,2019.657914,4.931069
33,1,1,3,0,8.01,5.673,-2.337,None,2421.899995,2427.519272,2429.000951,1.481679,2429.017227,1.307230
34,1,2,2,1,259.8,264.027,4.227,None,2431.491149,2436.523726,2436.777569,0.253843,2436.793894,3.339751
35,1,0,2,0,334.312,42.779,68.467,None,2441.354976,2446.719905,2449.101176,2.381271,2449.120642,1.078986
36,1,3,3,0,89.766,23.97,-65.796,None,2451.402442,2456.861563,2459.619931,2.758368,2459.636175,3.646475
37,1,1,3,1,272.222,242.143,-30.079,None,2464.428804,2470.024984,2473.122869,3.097885,2473.139713,3.492123
38,1,0,3,0,84.143,42.779,-41.365,None,2477.860168,2483.416002,2486.784947,3.368945,2486.804460,4.783369
39,1,3,0,1,265.426,267.238,1.812,None,2492.826967,2498.410101,2504.234028,5.823927,2504.251542,1.663605
40,1,2,0,0,74.712,1.098,-73.614,None,2507.175134,2512.366588,2512.856314,0.489726,2512.879150,1.643033
41,2,0,0,1,299.572,290.466,-9.106,1,2515.781713,2521.266562,2524.623790,3.357228,2524.636130,4.709546
41,2,2,1,1,294.485,287.922,-6.562,1,2530.543409,2536.082240,2539.671873,3.589633,2539.687184,2.642493
41,2,2,2,1,295.567,287.922,-7.645,1,2543.638081,2548.587627,2549.801465,1.213838,2549.811395,1.699062
41,2,0,3,3,110.241,128.161,17.92,1,2552.698765,2557.476566,2560.912522,3.435956,2560.920410,3.263780
41,1,3,3,1,356.821,267.238,-89.583,None,2969.228397,2974.607622,2974.946504,0.338882,2974.964944,3.750682
42,1,2,2,1,259.8,264.027,4.227,None,2980.046759,2984.937046,2985.983475,1.046429,2986.000656,2.293210
43,1,1,1,1,116.861,242.143,125.282,None,2989.504581,2994.932502,2996.747194,1.814692,2996.763502,3.908116
44,1,2,0,1,251.984,264.027,12.043,None,3001.919717,3006.866494,3011.875385,5.008891,3011.893265,4.371868
45,1,1,2,0,10.45,5.673,-4.778,None,3017.558621,3022.588127,3025.037468,2.449341,3025.055112,3.217422
46,1,0,0,0,161.676,42.779,-118.897,None,3029.566356,3035.154776,3037.835040,2.680264,3037.851410,1.774035
47,1,3,2,0,1.456,23.97,22.515,None,3040.835983,3046.312597,3048.982323,2.669726,3048.999931,4.283988
48,1,1,3,1,295.863,242.143,-53.72,None,3054.518269,3059.657357,3061.779395,2.122038,3061.796854,1.410200
49,2,2,0,0,209.924,207.599,-2.325,1,3064.425130,3069.567835,3072.979553,3.411718,3072.992327,1.495823
49,2,3,0,3,132.05,136.796,4.746,1,3075.718920,3080.642080,3081.998056,1.355976,3082.007380,4.364454
49,2,3,2,3,136.964,136.796,-0.168,1,3087.585317,3092.874539,3096.180897,3.306358,3096.189808,4.132093
49,2,1,2,0,231.082,231.509,0.427,1,3101.540197,3106.540684,3107.833644,1.29296,3107.842882,4.623053
49,1,0,2,1,251.599,230.29,-21.309,None,3519.092919,3524.029490,3524.618258,0.588768,3524.635670,3.902241
50,1,0,1,1,69.345,230.29,160.945,None,3529.736181,3534.688317,3537.602399,2.914082,3537.620723,3.313688
51,1,2,3,0,345.018,1.098,16.08,None,3542.186802,3547.338421,3548.088754,0.750333,3548.106949,3.955279
52,1,0,3,1,161.42,230.29,68.87,None,3553.248344,3558.469603,3563.525587,5.055984,3563.543488,2.086032
53,1,3,2,1,2.195,267.238,-94.956,None,3566.830307,3571.997832,3579.765120,7.767288,3579.781074,2.721984
54,1,2,1,1,338.066,264.027,-74.039,None,3583.707240,3588.525650,3594.159685,5.634035,3594.176391,3.161162
55,1,1,0,1,185.532,242.143,56.611,None,3598.523537,3603.483000,3607.182450,3.699450,3607.198951,3.030894
56,1,3,2,0,353.796,23.97,30.175,None,3611.435999,3616.493991,3622.090753,5.596762,3622.107675,3.828758
57,2,1,0,2,53.927,48.517,-5.41,1,3627.111986,3632.525702,3633.660847,1.135145,3633.667864,4.743394
57,2,0,1,2,26.195,27.003,0.808,1,3639.623552,3645.297075,3648.743200,3.446125,3648.752182,3.190113
57,2,0,0,3,121.283,128.161,6.878,1,3653.226793,3658.002374,3659.541475,1.539101,3659.552139,4.021634
57,2,3,2,2,43.5,41.458,-2.042,1,3664.827552,3670.269250,3673.807077,3.537827,3673.815643,2.554254
