Trial,Condition,Location,Direction,Target,Response_Angle,Right_Angle,Error_Angle,Accuracy,Travel_Onset,Crosshair_Onset,Response_Time,RT,ITI_Onset,ITI_Duration
1,1,3,3,0,356.821,23.97,27.149,None,187.527386,192.129316,None,None,207.195517,1.990378
2,1,2,3,0,345.018,1.098,16.08,None,210.404570,215.469504,None,None,230.568640,1.068102
3,1,1,0,0,86.89,5.673,-81.217,None,232.824552,237.634511,None,None,252.717734,2.261534
4,1,0,2,1,251.599,230.29,-21.309,None,256.182455,261.436676,None,None,276.449730,1.620260
5,1,1,2,0,273.702,5.673,91.97,None,279.253483,284.287063,None,None,299.433795,4.838545
6,1,2,2,0,259.8,1.098,101.298,None,305.567882,311.239165,None,None,326.400696,3.767924
7,1,2,3,1,345.018,264.027,-80.991,None,331.453776,336.588968,None,None,351.634516,4.617152
8,1,1,3,0,8.01,5.673,-2.337,None,357.491207,362.667793,None,None,377.736860,3.249536
10,2,2,2,1,259.8,287.922,28.122,0,382.232376,387.796205,None,None,402.919191,3.415263
11,2,2,0,2,74.712,27.5,-47.212,0,407.591327,412.668145,None,None,427.702954,3.729148
12,2,3,0,0,87.519,225.759,138.24,0,432.629601,437.782640,None,None,452.816789,2.789570
13,2,3,3,2,356.821,41.458,44.637,0,456.823358,462.317700,None,None,477.389661,2.033203
13,1,3,0,0,87.519,23.97,-63.549,None,760.524179,765.383113,None,None,780.514069,4.932439
14,1,1,0,1,86.89,242.143,155.253,None,786.648951,791.849016,None,None,806.891282,1.286856
15,1,3,3,1,356.821,267.238,-89.583,None,809.342359,814.211516,None,None,829.292659,2.178936
16,1,2,0,1,74.712,264.027,-170.685,None,832.721137,837.678106,None,None,852.726364,4.270656
17,1,1,0,0,86.89,5.673,-81.217,None,858.176034,863.197592,None,None,878.238051,1.297530
18,1,1,3,1,8.01,242.143,-125.866,None,880.784273,886.262805,None,None,901.285960,4.618820
19,1,1,1,0,185.802,5.673,179.871,None,907.105173,912.449644,None,None,927.510013,2.029439
20,1,2,0,0,74.712,1.098,-73.614,None,930.754439,936.209054,None,None,951.239307,2.712633
22,2,3,2,2,266.607,41.458,134.851,0,955.227397,959.881135,None,None,974.967767,3.882883
23,2,0,3,0,341.687,213.264,-128.423,0,980.072966,985.051079,None,None,1000.117476,1.143704
24,2,1,2,0,273.702,231.509,-42.193,0,1002.491473,1007.195980,None,None,1022.255292,3.428598
25,2,3,1,0,177.932,225.759,47.827,0,1026.909580,1032.444257,None,None,1047.557690,1.793110
25,1,3,2,0,266.607,23.97,117.363,None,1402.977581,1408.294260,None,None,1423.325501,1.507188
26,1,0,0,0,72.393,42.779,-29.614,None,1426.042089,1430.853181,None,None,1445.986946,4.671454
27,1,1,0,1,86.89,242.143,155.253,None,1451.833861,1456.801144,None,None,1471.885198,1.030387
28,1,1,1,1,185.802,242.143,56.341,None,1474.092759,1479.650475,None,None,1494.767619,1.941703
29,1,3,1,0,177.932,23.97,-153.962,None,1497.964342,1503.139446,None,None,1518.156426,3.238209
30,1,2,2,1,259.8,264.027,4.227,None,1522.604904,1527.347881,None,None,1542.418714,3.934625
31,1,3,2,1,266.607,267.238,0.631,None,1547.555565,1552.602294,None,None,1567.726935,2.634488
32,1,3,0,1,87.519,267.238,179.719,None,1571.585432,1576.277382,None,None,1591.356651,1.939007
34,2,1,0,0,86.89,231.509,144.619,0,1594.481727,1599.236039,None,None,1614.272356,1.446482
35,2,2,1,2,166.776,27.5,-139.276,0,1616.957343,1622.469022,None,None,1637.553736,2.797181
36,2,1,3,2,8.01,48.517,40.507,0,1641.617681,1646.951517,None,None,1661.989198,1.023925
37,2,0,0,1,72.393,290.466,-141.927,0,1664.247351,1669.308475,None,None,1684.359512,4.309172
37,1,1,3,0,8.01,5.673,-2.337,None,2432.650950,2437.835845,None,None,2452.853871,1.992448
38,1,0,0,0,72.393,42.779,-29.614,None,2456.020634,2461.558018,None,None,2476.634591,2.996521
39,1,2,0,0,74.712,1.098,-73.614,None,2480.799305,2486.054502,None,None,2501.144975,4.148384
40,1,1,2,1,273.702,242.143,-31.559,None,2506.474305,2511.575534,None,None,2526.685198,3.619115
41,1,3,2,1,266.607,267.238,0.631,None,2531.579233,2537.109153,None,None,2552.156888,4.040249
42,1,2,1,1,166.776,264.027,97.251,None,2557.485070,2562.781328,None,None,2577.895347,2.823569
43,1,0,3,0,341.687,42.779,61.092,None,2582.003573,2587.485031,None,None,2602.528381,3.831205
44,1,0,0,1,72.393,230.29,157.897,None,2607.579459,2612.781310,None,None,2627.816904,4.222208
46,2,2,2,3,259.8,133.004,-126.796,0,2633.274266,2638.134953,None,None,2653.189548,3.238177
47,2,0,2,1,251.599,290.466,38.867,0,2657.613837,2662.672278,None,None,2677.764997,2.296277
48,2,0,3,2,341.687,27.003,45.316,0,2681.296047,2686.541988,None,None,2701.618176,4.870012
49,2,2,0,0,74.712,207.599,132.887,0,2707.680708,2712.855139,None,None,2727.903061,2.059150
49,1,0,1,0,152.067,42.779,-109.289,None,3055.491013,3060.753108,None,None,3075.862696,3.488475
50,1,2,2,1,259.8,264.027,4.227,None,3080.570985,3086.257227,None,None,3101.348473,1.358390
51,1,1,1,0,185.802,5.673,179.871,None,3103.892068,3108.772751,None,None,3123.898551,3.004239
52,1,2,3,1,345.018,264.027,-80.991,None,3128.131114,3132.841275,None,None,3147.867715,4.144095
53,1,3,2,0,266.607,23.97,117.363,None,3153.288074,3158.774503,None,None,3173.829126,4.591328
54,1,3,3,1,356.821,267.238,-89.583,None,3179.655920,3184.434669,None,None,3199.509228,3.569839
55,1,2,3,0,345.018,1.098,16.08,None,3204.375277,3209.088870,None,None,3224.107260,1.918876
56,1,3,0,0,87.519,23.97,-63.549,None,3227.265985,3232.231794,None,None,3247.294179,2.971410
58,2,2,1,3,166.776,133.004,-33.772,0,3251.503483,3256.495256,None,None,3271.600759,4.827315
59,2,1,3,1,8.01,330.706,-37.304,0,3277.700527,3282.908167,None,None,3297.966443,3.511198
60,2,1,2,2,273.702,48.517,134.814,0,3302.677376,3308.012140,None,None,3323.115274,4.963528
61,2,3,0,3,87.519,136.796,49.277,0,3329.313805,3334.488026,None,None,3349.537315,1.893275
61,1,0,1,1,152.067,230.29,78.222,None,4093.668825,4099.189578,None,None,4114.266750,4.595469
62,1,1,2,0,273.702,5.673,91.97,None,4120.107646,4124.990519,None,None,4140.091136,2.765364
63,1,1,3,1,8.01,242.143,-125.866,None,4144.116426,4149.726988,None,None,4164.761521,1.896526
64,1,0,1,0,152.067,42.779,-109.289,None,4167.895097,4172.863103,None,None,4187.915501,4.509591
65,1,0,0,1,72.393,230.29,157.897,None,4193.742383,4198.651895,None,None,4213.692206,3.808156
66,1,0,2,0,251.599,42.779,151.18,None,4218.664686,4223.762517,None,None,4238.877363,2.012813
67,1,1,2,1,273.702,242.143,-31.559,None,4242.139957,4247.295057,None,None,4262.388485,1.365310
68,1,3,3,0,356.821,23.97,27.149,None,4264.941540,4269.814705,None,None,4284.903535,2.963939
70,2,0,1,2,152.067,27.003,-125.065,0,4289.100100,4294.482878,None,None,4309.570028,2.982789
71,2,1,1,1,185.802,330.706,144.904,0,4313.714229,4318.900986,None,None,4333.965300,3.984874
72,2,0,0,0,72.393,213.264,140.871,0,4339.211839,4344.198301,None,None,4359.313035,1.304925
73,2,0,1,3,152.067,128.161,-23.907,1,4361.920315,4366.799205,None,None,4381.865596,3.328549
73,1,0,1,1,152.067,230.29,78.222,None,4611.539820,4616.737384,None,None,4631.846679,3.548995
74,1,2,2,0,259.8,1.098,101.298,None,4636.557757,4641.532577,None,None,4656.660038,3.495348
75,1,0,3,1,341.687,230.29,-111.397,None,4661.362654,4666.548927,None,None,4681.621954,1.877909
76,1,2,1,0,166.776,1.098,-165.678,None,4684.741341,4689.648811,None,None,4704.776675,2.033763
77,1,3,1,0,177.932,23.97,-153.962,None,4707.979796,4712.825160,None,None,4727.916068,1.986757
78,1,0,2,1,251.599,230.29,-21.309,None,4731.107045,4736.668552,None,None,4751.752094,2.857229
79,1,0,3,0,341.687,42.779,61.092,None,4755.861551,4760.602223,None,None,4775.684548,4.294800
80,1,3,1,1,177.932,267.238,89.306,None,4781.145310,4785.927315,None,None,4801.025684,2.418100
82,2,3,1,1,177.932,316.33,138.398,0,4804.673280,4809.578526,None,None,4824.677008,1.098989
83,2,2,3,0,345.018,207.599,-137.419,0,4826.913426,4832.018470,None,None,4847.066026,3.742005
84,2,1,0,3,86.89,148.822,61.932,0,4852.075190,4857.538993,None,None,4872.554674,2.885653
85,2,3,2,3,266.607,136.796,-129.811,0,4876.716189,4882.073617,None,None,4897.149829,3.782703
85,1,3,0,1,87.519,267.238,179.719,None,5105.321727,5110.482163,None,None,5125.635004,1.434734
86,1,2,1,1,166.776,264.027,97.251,None,5128.365785,5133.423458,None,None,5148.526290,2.222861
87,1,0,2,0,251.599,42.779,151.18,None,5152.289209,5157.300698,None,None,5172.471171,4.795978
88,1,0,3,1,341.687,230.29,-111.397,None,5178.624115,5184.131788,None,None,5199.175641,1.356894
89,1,2,0,1,74.712,264.027,-170.685,None,5201.803856,5206.983839,None,None,5222.048556,4.007056
90,1,3,1,1,177.932,267.238,89.306,None,5227.277700,5232.859404,None,None,5247.899383,4.975072
91,1,1,1,1,185.802,242.143,56.341,None,5254.137545,5258.979200,None,None,5274.062621,1.509398
92,1,2,1,0,166.776,1.098,-165.678,None,5276.814530,5282.140939,None,None,5297.189780,4.536741
94,2,0,2,3,251.599,128.161,-123.438,0,5302.976665,5308.511828,None,None,5323.640026,1.865340
95,2,2,3,1,345.018,287.922,-57.096,0,5326.730445,5332.375581,None,None,5347.509737,3.164628
96,2,1,1,3,185.802,148.822,-36.98,0,5351.878941,5356.954111,None,None,5372.042949,4.208923
97,2,3,3,1,356.821,316.33,-40.491,0,5377.449336,5382.784127,None,None,5397.892791,2.604328
