"rt","key_press","trial_type","trial_index","time_elapsed","internal_node_id","subject","text","block_duration","timing_post_trial","trial_id","responses","stimulus","possible_responses","stim_duration","correct","correct_response","feedback_duration","exp_stage","trial_num","SS_stimulus","SS_delay","SS_trial_type","SS_duration","exp_id"
"1724","13","text","0","1725","0.0-0.0","pilot-38_ses-01_run2","","","","","","","","","","","","","","","","","",""
"1066","89","poldrack-text","1","3820","0.0-1.0","pilot-38_ses-01_run2","<div class = centerbox><div style = 'font-size: 50px' class = center-text>Veuillez appuyer avec votre index</p></div>","1066","500","fmri_response_test","","","","","","","","","","","","","",""
"471","71","poldrack-text","2","4804","0.0-2.0","pilot-38_ses-01_run2","<div class = centerbox><div style = 'font-size: 50px' class = center-text>Veuillez appuyer avec votre majeur</p></div>","471","500","fmri_response_test","","","","","","","","","","","","","",""
"5270","","survey-text","3","10610","0.0-3.0","pilot-38_ses-01_run2","","","","task_setup","{""Q0"":""250""}","","","","","","","","","","","","",""
"4383","32","poldrack-single-stim","4","16070","0.0-4.0","pilot-38_ses-01_run2","","4383","0","instructions","","<div class = instructbox><p class = instruct-text><font size=""+2"">Une seule cle est correcte pour chaque forme. Ne repondez pas si vous voyez l'etoile rouge! Les cles correctes son les suivantes:</font><ul list-text><li><div class = prompt_container><img class = prompt_stim src = /static/experiments/stop_signal/images/moon.png></img>index</div></li></li><li><div class = prompt_container><img class = prompt_stim src = /static/experiments/stop_signal/images/oval.png></img>index</div></li> </li><li><div class = prompt_container><img class = prompt_stim src = /static/experiments/stop_signal/images/rectangle.png></img>majeur</div></li> </li><li><div class = prompt_container><img class = prompt_stim src = /static/experiments/stop_signal/images/trapezoid.png></img>majeur</div></li></ul></div>","32","4383","","","","","","","","","",""
"1150","71","poldrack-categorize","5","18461","0.0-5.0-0.0-0.0","pilot-38_ses-01_run2","","1850","250","stim","","<div class = coverbox></div><div class = shapebox><img class = stim src = /static/experiments/stop_signal/images/rectangle.png></img></div>","89,71","850","true","71","500","practice","0","","","","",""
"727","71","poldrack-categorize","6","21117","0.0-5.0-0.0-1.0","pilot-38_ses-01_run2","","1850","250","stim","","<div class = coverbox></div><div class = shapebox><img class = stim src = /static/experiments/stop_signal/images/rectangle.png></img></div>","89,71","850","true","71","500","practice","1","","","","",""
"706","71","poldrack-categorize","7","23778","0.0-5.0-0.0-2.0","pilot-38_ses-01_run2","","1850","250","stim","","<div class = coverbox></div><div class = shapebox><img class = stim src = /static/experiments/stop_signal/images/trapezoid.png></img></div>","89,71","850","true","71","500","practice","2","","","","",""
"622","89","poldrack-categorize","8","26452","0.0-5.0-0.0-3.0","pilot-38_ses-01_run2","","1850","250","stim","","<div class = coverbox></div><div class = shapebox><img class = stim src = /static/experiments/stop_signal/images/moon.png></img></div>","89,71","850","true","89","500","practice","3","","","","",""
"579","71","poldrack-categorize","9","29101","0.0-5.0-0.0-4.0","pilot-38_ses-01_run2","","1850","250","stim","","<div class = coverbox></div><div class = shapebox><img class = stim src = /static/experiments/stop_signal/images/trapezoid.png></img></div>","89,71","850","true","71","500","practice","4","","","","",""
"530","89","poldrack-categorize","10","31761","0.0-5.0-0.0-5.0","pilot-38_ses-01_run2","","1850","250","stim","","<div class = coverbox></div><div class = shapebox><img class = stim src = /static/experiments/stop_signal/images/moon.png></img></div>","89,71","850","true","89","500","practice","5","","","","",""
"562","89","poldrack-categorize","11","34416","0.0-5.0-0.0-6.0","pilot-38_ses-01_run2","","1850","250","stim","","<div class = coverbox></div><div class = shapebox><img class = stim src = /static/experiments/stop_signal/images/oval.png></img></div>","89,71","850","true","89","500","practice","6","","","","",""
"677","89","poldrack-categorize","12","37081","0.0-5.0-0.0-7.0","pilot-38_ses-01_run2","","1850","250","stim","","<div class = coverbox></div><div class = shapebox><img class = stim src = /static/experiments/stop_signal/images/oval.png></img></div>","89,71","850","true","89","500","practice","7","","","","",""
"605","71","poldrack-categorize","13","39725","0.0-5.0-0.0-8.0","pilot-38_ses-01_run2","","1850","250","stim","","<div class = coverbox></div><div class = shapebox><img class = stim src = /static/experiments/stop_signal/images/trapezoid.png></img></div>","89,71","850","true","71","500","practice","8","","","","",""
"622","71","poldrack-categorize","14","42376","0.0-5.0-0.0-9.0","pilot-38_ses-01_run2","","1850","250","stim","","<div class = coverbox></div><div class = shapebox><img class = stim src = /static/experiments/stop_signal/images/rectangle.png></img></div>","89,71","850","true","71","500","practice","9","","","","",""
"592","89","poldrack-categorize","15","45030","0.0-5.0-0.0-10.0","pilot-38_ses-01_run2","","1850","250","stim","","<div class = coverbox></div><div class = shapebox><img class = stim src = /static/experiments/stop_signal/images/moon.png></img></div>","89,71","850","true","89","500","practice","10","","","","",""
"566","89","poldrack-categorize","16","47674","0.0-5.0-0.0-11.0","pilot-38_ses-01_run2","","1850","250","stim","","<div class = coverbox></div><div class = shapebox><img class = stim src = /static/experiments/stop_signal/images/oval.png></img></div>","89,71","850","true","89","500","practice","11","","","","",""
"10441","32","poldrack-text","17","58391","0.0-6.0","pilot-38_ses-01_run2","<div class = centerbox><div  class = center-text>Scanner Setup</div></div>","10441","0","fmri_scanner_wait","","","","","","","","","","","","","",""
"52241","84","poldrack-text","18","110634","0.0-7.0","pilot-38_ses-01_run2","<div class = centerbox><div style='color:red'; class = center-text>+</div></div>","52241","0","fmri_trigger_wait","","","","","","","","","","","","","",""
"-1","-1","poldrack-single-stim","19","111642","0.0-8.0","pilot-38_ses-01_run2","","1000","0","fmri_buffer","","","none","1000","","","","","","","","","",""
"-1","-1","poldrack-single-stim","20","113146","0.0-9.0","pilot-38_ses-01_run2","","1500","500","test_start_block","","<div class = centerbox><div class = center-text>Prerparez-vous!</p></div>","none","1500","","","","","","","","","",""
"594","89","stop-signal","21","115944","0.0-10.0-0.0","pilot-38_ses-01_run2","","2250","0","stim","","<div class = coverbox></div><div class = shapebox><img class = stim src = /static/experiments/stop_signal/images/oval.png></img></div>","89,71","850","true","89","","test","0","<div class = coverbox></div><div class = stopbox><div class = centered-shape id = stop-signal></div><div class = centered-shape id = stop-signal-inner></div></div>","250","stop","500",""
"766","89","stop-signal","22","118624","0.0-10.0-1.0","pilot-38_ses-01_run2","","2658","0","stim","","<div class = coverbox></div><div class = shapebox><img class = stim src = /static/experiments/stop_signal/images/moon.png></img></div>","89,71","850","true","89","","test","1","<div class = coverbox></div><div class = stopbox><div class = centered-shape id = stop-signal></div><div class = centered-shape id = stop-signal-inner></div></div>","200","go","500",""
"498","89","stop-signal","23","121285","0.0-10.0-2.0","pilot-38_ses-01_run2","","2658","0","stim","","<div class = coverbox></div><div class = shapebox><img class = stim src = /static/experiments/stop_signal/images/oval.png></img></div>","89,71","850","true","89","","test","2","<div class = coverbox></div><div class = stopbox><div class = centered-shape id = stop-signal></div><div class = centered-shape id = stop-signal-inner></div></div>","200","go","500",""
"1055","71","stop-signal","24","123546","0.0-10.0-3.0","pilot-38_ses-01_run2","","2250","0","stim","","<div class = coverbox></div><div class = shapebox><img class = stim src = /static/experiments/stop_signal/images/trapezoid.png></img></div>","89,71","850","true","71","","test","3","<div class = coverbox></div><div class = stopbox><div class = centered-shape id = stop-signal></div><div class = centered-shape id = stop-signal-inner></div></div>","200","go","500",""
"957","71","stop-signal","25","125816","0.0-10.0-4.0","pilot-38_ses-01_run2","","2250","0","stim","","<div class = coverbox></div><div class = shapebox><img class = stim src = /static/experiments/stop_signal/images/rectangle.png></img></div>","89,71","850","true","71","","test","4","<div class = coverbox></div><div class = stopbox><div class = centered-shape id = stop-signal></div><div class = centered-shape id = stop-signal-inner></div></div>","200","go","500",""
"1055","89","stop-signal","26","128221","0.0-10.0-5.0","pilot-38_ses-01_run2","","2386","0","stim","","<div class = coverbox></div><div class = shapebox><img class = stim src = /static/experiments/stop_signal/images/oval.png></img></div>","89,71","850","true","89","","test","5","<div class = coverbox></div><div class = stopbox><div class = centered-shape id = stop-signal></div><div class = centered-shape id = stop-signal-inner></div></div>","200","go","500",""
"-1","-1","stop-signal","27","131034","0.0-10.0-6.0","pilot-38_ses-01_run2","","2794","0","stim","","<div class = coverbox></div><div class = shapebox><img class = stim src = /static/experiments/stop_signal/images/moon.png></img></div>","89,71","850","false","89","","test","6","<div class = coverbox></div><div class = stopbox><div class = centered-shape id = stop-signal></div><div class = centered-shape id = stop-signal-inner></div></div>","200","stop","500",""
"-1","-1","stop-signal","28","133442","0.0-10.0-7.0","pilot-38_ses-01_run2","","2386","0","stim","","<div class = coverbox></div><div class = shapebox><img class = stim src = /static/experiments/stop_signal/images/oval.png></img></div>","89,71","850","false","89","","test","7","<div class = coverbox></div><div class = stopbox><div class = centered-shape id = stop-signal></div><div class = centered-shape id = stop-signal-inner></div></div>","250","stop","500",""
"-1","-1","stop-signal","29","135701","0.0-10.0-8.0","pilot-38_ses-01_run2","","2250","0","stim","","<div class = coverbox></div><div class = shapebox><img class = stim src = /static/experiments/stop_signal/images/oval.png></img></div>","89,71","850","false","89","","test","8","<div class = coverbox></div><div class = stopbox><div class = centered-shape id = stop-signal></div><div class = centered-shape id = stop-signal-inner></div></div>","300","stop","500",""
"-1","-1","stop-signal","30","137961","0.0-10.0-9.0","pilot-38_ses-01_run2","","2250","0","stim","","<div class = coverbox></div><div class = shapebox><img class = stim src = /static/experiments/stop_signal/images/trapezoid.png></img></div>","89,71","850","false","71","","test","9","<div class = coverbox></div><div class = stopbox><div class = centered-shape id = stop-signal></div><div class = centered-shape id = stop-signal-inner></div></div>","350","stop","500",""
"-1","-1","stop-signal","31","140204","0.0-10.0-10.0","pilot-38_ses-01_run2","","2250","0","stim","","<div class = coverbox></div><div class = shapebox><img class = stim src = /static/experiments/stop_signal/images/trapezoid.png></img></div>","89,71","850","false","71","","test","10","<div class = coverbox></div><div class = stopbox><div class = centered-shape id = stop-signal></div><div class = centered-shape id = stop-signal-inner></div></div>","400","stop","500",""
"939","71","stop-signal","32","142892","0.0-10.0-11.0","pilot-38_ses-01_run2","","2658","0","stim","","<div class = coverbox></div><div class = shapebox><img class = stim src = /static/experiments/stop_signal/images/trapezoid.png></img></div>","89,71","850","true","71","","test","11","<div class = coverbox></div><div class = stopbox><div class = centered-shape id = stop-signal></div><div class = centered-shape id = stop-signal-inner></div></div>","450","go","500",""
"1499","71","stop-signal","33","145553","0.0-10.0-12.0","pilot-38_ses-01_run2","","2658","0","stim","","<div class = coverbox></div><div class = shapebox><img class = stim src = /static/experiments/stop_signal/images/trapezoid.png></img></div>","89,71","850","true","71","","test","12","<div class = coverbox></div><div class = stopbox><div class = centered-shape id = stop-signal></div><div class = centered-shape id = stop-signal-inner></div></div>","450","go","500",""
"777","71","stop-signal","34","147829","0.0-10.0-13.0","pilot-38_ses-01_run2","","2250","0","stim","","<div class = coverbox></div><div class = shapebox><img class = stim src = /static/experiments/stop_signal/images/trapezoid.png></img></div>","89,71","850","true","71","","test","13","<div class = coverbox></div><div class = stopbox><div class = centered-shape id = stop-signal></div><div class = centered-shape id = stop-signal-inner></div></div>","450","go","500",""
"986","71","stop-signal","35","150368","0.0-10.0-14.0","pilot-38_ses-01_run2","","2522","0","stim","","<div class = coverbox></div><div class = shapebox><img class = stim src = /static/experiments/stop_signal/images/rectangle.png></img></div>","89,71","850","true","71","","test","14","<div class = coverbox></div><div class = stopbox><div class = centered-shape id = stop-signal></div><div class = centered-shape id = stop-signal-inner></div></div>","450","go","500",""
"926","71","stop-signal","36","152657","0.0-10.0-15.0","pilot-38_ses-01_run2","","2250","0","stim","","<div class = coverbox></div><div class = shapebox><img class = stim src = /static/experiments/stop_signal/images/rectangle.png></img></div>","89,71","850","true","71","","test","15","<div class = coverbox></div><div class = stopbox><div class = centered-shape id = stop-signal></div><div class = centered-shape id = stop-signal-inner></div></div>","450","go","500",""
"-1","-1","stop-signal","37","155204","0.0-10.0-16.0","pilot-38_ses-01_run2","","2522","0","stim","","<div class = coverbox></div><div class = shapebox><img class = stim src = /static/experiments/stop_signal/images/moon.png></img></div>","89,71","850","false","89","","test","16","<div class = coverbox></div><div class = stopbox><div class = centered-shape id = stop-signal></div><div class = centered-shape id = stop-signal-inner></div></div>","450","stop","500",""
"856","89","stop-signal","38","157710","0.0-10.0-17.0","pilot-38_ses-01_run2","","2522","0","stim","","<div class = coverbox></div><div class = shapebox><img class = stim src = /static/experiments/stop_signal/images/moon.png></img></div>","89,71","850","true","89","","test","17","<div class = coverbox></div><div class = stopbox><div class = centered-shape id = stop-signal></div><div class = centered-shape id = stop-signal-inner></div></div>","500","go","500",""
"-1","-1","stop-signal","39","160236","0.0-10.0-18.0","pilot-38_ses-01_run2","","2522","0","stim","","<div class = coverbox></div><div class = shapebox><img class = stim src = /static/experiments/stop_signal/images/moon.png></img></div>","89,71","850","false","89","","test","18","<div class = coverbox></div><div class = stopbox><div class = centered-shape id = stop-signal></div><div class = centered-shape id = stop-signal-inner></div></div>","500","stop","500",""
"-1","-1","stop-signal","40","162648","0.0-10.0-19.0","pilot-38_ses-01_run2","","2386","0","stim","","<div class = coverbox></div><div class = shapebox><img class = stim src = /static/experiments/stop_signal/images/rectangle.png></img></div>","89,71","850","false","71","","test","19","<div class = coverbox></div><div class = stopbox><div class = centered-shape id = stop-signal></div><div class = centered-shape id = stop-signal-inner></div></div>","550","stop","500",""
"859","71","stop-signal","41","165184","0.0-10.0-20.0","pilot-38_ses-01_run2","","2522","0","stim","","<div class = coverbox></div><div class = shapebox><img class = stim src = /static/experiments/stop_signal/images/trapezoid.png></img></div>","89,71","850","true","71","","test","20","<div class = coverbox></div><div class = stopbox><div class = centered-shape id = stop-signal></div><div class = centered-shape id = stop-signal-inner></div></div>","600","stop","500",""
"1345","71","stop-signal","42","167727","0.0-10.0-21.0","pilot-38_ses-01_run2","","2522","0","stim","","<div class = coverbox></div><div class = shapebox><img class = stim src = /static/experiments/stop_signal/images/rectangle.png></img></div>","89,71","850","true","71","","test","21","<div class = coverbox></div><div class = stopbox><div class = centered-shape id = stop-signal></div><div class = centered-shape id = stop-signal-inner></div></div>","550","go","500",""
"1048","89","stop-signal","43","170137","0.0-10.0-22.0","pilot-38_ses-01_run2","","2386","0","stim","","<div class = coverbox></div><div class = shapebox><img class = stim src = /static/experiments/stop_signal/images/oval.png></img></div>","89,71","850","true","89","","test","22","<div class = coverbox></div><div class = stopbox><div class = centered-shape id = stop-signal></div><div class = centered-shape id = stop-signal-inner></div></div>","550","go","500",""
"1092","89","stop-signal","44","172407","0.0-10.0-23.0","pilot-38_ses-01_run2","","2250","0","stim","","<div class = coverbox></div><div class = shapebox><img class = stim src = /static/experiments/stop_signal/images/moon.png></img></div>","89,71","850","true","89","","test","23","<div class = coverbox></div><div class = stopbox><div class = centered-shape id = stop-signal></div><div class = centered-shape id = stop-signal-inner></div></div>","550","go","500",""
"1038","89","stop-signal","45","174951","0.0-10.0-24.0","pilot-38_ses-01_run2","","2522","0","stim","","<div class = coverbox></div><div class = shapebox><img class = stim src = /static/experiments/stop_signal/images/oval.png></img></div>","89,71","850","true","89","","test","24","<div class = coverbox></div><div class = stopbox><div class = centered-shape id = stop-signal></div><div class = centered-shape id = stop-signal-inner></div></div>","550","go","500",""
"814","89","stop-signal","46","177778","0.0-10.0-25.0","pilot-38_ses-01_run2","","2794","0","stim","","<div class = coverbox></div><div class = shapebox><img class = stim src = /static/experiments/stop_signal/images/oval.png></img></div>","89,71","850","true","89","","test","25","<div class = coverbox></div><div class = stopbox><div class = centered-shape id = stop-signal></div><div class = centered-shape id = stop-signal-inner></div></div>","550","go","500",""
"679","71","stop-signal","47","180322","0.0-10.0-26.0","pilot-38_ses-01_run2","","2522","0","stim","","<div class = coverbox></div><div class = shapebox><img class = stim src = /static/experiments/stop_signal/images/rectangle.png></img></div>","89,71","850","true","71","","test","26","<div class = coverbox></div><div class = stopbox><div class = centered-shape id = stop-signal></div><div class = centered-shape id = stop-signal-inner></div></div>","550","stop","500",""
"-1","-1","stop-signal","48","182732","0.0-10.0-27.0","pilot-38_ses-01_run2","","2386","0","stim","","<div class = coverbox></div><div class = shapebox><img class = stim src = /static/experiments/stop_signal/images/trapezoid.png></img></div>","89,71","850","false","71","","test","27","<div class = coverbox></div><div class = stopbox><div class = centered-shape id = stop-signal></div><div class = centered-shape id = stop-signal-inner></div></div>","500","stop","500",""
"920","71","stop-signal","49","184993","0.0-10.0-28.0","pilot-38_ses-01_run2","","2250","0","stim","","<div class = coverbox></div><div class = shapebox><img class = stim src = /static/experiments/stop_signal/images/trapezoid.png></img></div>","89,71","850","true","71","","test","28","<div class = coverbox></div><div class = stopbox><div class = centered-shape id = stop-signal></div><div class = centered-shape id = stop-signal-inner></div></div>","550","go","500",""
"-1","-1","stop-signal","50","187248","0.0-10.0-29.0","pilot-38_ses-01_run2","","2250","0","stim","","<div class = coverbox></div><div class = shapebox><img class = stim src = /static/experiments/stop_signal/images/rectangle.png></img></div>","89,71","850","false","71","","test","29","<div class = coverbox></div><div class = stopbox><div class = centered-shape id = stop-signal></div><div class = centered-shape id = stop-signal-inner></div></div>","550","stop","500",""
"-1","-1","stop-signal","51","189508","0.0-10.0-30.0","pilot-38_ses-01_run2","","2250","0","stim","","<div class = coverbox></div><div class = shapebox><img class = stim src = /static/experiments/stop_signal/images/moon.png></img></div>","89,71","850","false","89","","test","30","<div class = coverbox></div><div class = stopbox><div class = centered-shape id = stop-signal></div><div class = centered-shape id = stop-signal-inner></div></div>","600","stop","500",""
"866","89","stop-signal","52","191750","0.0-10.0-31.0","pilot-38_ses-01_run2","","2250","0","stim","","<div class = coverbox></div><div class = shapebox><img class = stim src = /static/experiments/stop_signal/images/moon.png></img></div>","89,71","850","true","89","","test","31","<div class = coverbox></div><div class = stopbox><div class = centered-shape id = stop-signal></div><div class = centered-shape id = stop-signal-inner></div></div>","650","stop","500",""
"-1","-1","stop-signal","53","194305","0.0-10.0-32.0","pilot-38_ses-01_run2","","2522","0","stim","","<div class = coverbox></div><div class = shapebox><img class = stim src = /static/experiments/stop_signal/images/moon.png></img></div>","89,71","850","false","89","","test","32","<div class = coverbox></div><div class = stopbox><div class = centered-shape id = stop-signal></div><div class = centered-shape id = stop-signal-inner></div></div>","600","go","500",""
"792","71","stop-signal","54","196587","0.0-10.0-33.0","pilot-38_ses-01_run2","","2250","0","stim","","<div class = coverbox></div><div class = shapebox><img class = stim src = /static/experiments/stop_signal/images/trapezoid.png></img></div>","89,71","850","true","71","","test","33","<div class = coverbox></div><div class = stopbox><div class = centered-shape id = stop-signal></div><div class = centered-shape id = stop-signal-inner></div></div>","600","go","500",""
"852","71","stop-signal","55","198819","0.0-10.0-34.0","pilot-38_ses-01_run2","","2250","0","stim","","<div class = coverbox></div><div class = shapebox><img class = stim src = /static/experiments/stop_signal/images/trapezoid.png></img></div>","89,71","850","true","71","","test","34","<div class = coverbox></div><div class = stopbox><div class = centered-shape id = stop-signal></div><div class = centered-shape id = stop-signal-inner></div></div>","600","stop","500",""
"663","89","stop-signal","56","201064","0.0-10.0-35.0","pilot-38_ses-01_run2","","2250","0","stim","","<div class = coverbox></div><div class = shapebox><img class = stim src = /static/experiments/stop_signal/images/oval.png></img></div>","89,71","850","true","89","","test","35","<div class = coverbox></div><div class = stopbox><div class = centered-shape id = stop-signal></div><div class = centered-shape id = stop-signal-inner></div></div>","550","go","500",""
"929","89","stop-signal","57","203322","0.0-10.0-36.0","pilot-38_ses-01_run2","","2250","0","stim","","<div class = coverbox></div><div class = shapebox><img class = stim src = /static/experiments/stop_signal/images/moon.png></img></div>","89,71","850","true","89","","test","36","<div class = coverbox></div><div class = stopbox><div class = centered-shape id = stop-signal></div><div class = centered-shape id = stop-signal-inner></div></div>","550","go","500",""
"909","89","stop-signal","58","205716","0.0-10.0-37.0","pilot-38_ses-01_run2","","2386","0","stim","","<div class = coverbox></div><div class = shapebox><img class = stim src = /static/experiments/stop_signal/images/moon.png></img></div>","89,71","850","true","89","","test","37","<div class = coverbox></div><div class = stopbox><div class = centered-shape id = stop-signal></div><div class = centered-shape id = stop-signal-inner></div></div>","550","go","500",""
"1114","89","stop-signal","59","207993","0.0-10.0-38.0","pilot-38_ses-01_run2","","2250","0","stim","","<div class = coverbox></div><div class = shapebox><img class = stim src = /static/experiments/stop_signal/images/moon.png></img></div>","89,71","850","true","89","","test","38","<div class = coverbox></div><div class = stopbox><div class = centered-shape id = stop-signal></div><div class = centered-shape id = stop-signal-inner></div></div>","550","go","500",""
"-1","-1","stop-signal","60","210231","0.0-10.0-39.0","pilot-38_ses-01_run2","","2250","0","stim","","<div class = coverbox></div><div class = shapebox><img class = stim src = /static/experiments/stop_signal/images/rectangle.png></img></div>","89,71","850","false","71","","test","39","<div class = coverbox></div><div class = stopbox><div class = centered-shape id = stop-signal></div><div class = centered-shape id = stop-signal-inner></div></div>","550","stop","500",""
"1052","71","stop-signal","61","212487","0.0-10.0-40.0","pilot-38_ses-01_run2","","2250","0","stim","","<div class = coverbox></div><div class = shapebox><img class = stim src = /static/experiments/stop_signal/images/trapezoid.png></img></div>","89,71","850","true","71","","test","40","<div class = coverbox></div><div class = stopbox><div class = centered-shape id = stop-signal></div><div class = centered-shape id = stop-signal-inner></div></div>","600","go","500",""
"-1","-1","poldrack-single-stim","62","220001","0.0-11.0","pilot-38_ses-01_run2","","7500","1000","rest_block","","<div class = centerbox><div class = center-text>+</div></div>","none","7500","","","","","","","","","",""
"-1","-1","poldrack-single-stim","63","222545","0.0-12.0","pilot-38_ses-01_run2","","1500","500","test_start_block","","<div class = centerbox><div class = center-text>Prerparez-vous!</p></div>","none","1500","","","","","","","","","",""
"-1","-1","stop-signal","64","225318","0.0-13.0-0.0","pilot-38_ses-01_run2","","2250","0","stim","","<div class = coverbox></div><div class = shapebox><img class = stim src = /static/experiments/stop_signal/images/rectangle.png></img></div>","89,71","850","false","71","","test","41","<div class = coverbox></div><div class = stopbox><div class = centered-shape id = stop-signal></div><div class = centered-shape id = stop-signal-inner></div></div>","600","stop","500",""
"942","71","stop-signal","65","227867","0.0-13.0-1.0","pilot-38_ses-01_run2","","2522","0","stim","","<div class = coverbox></div><div class = shapebox><img class = stim src = /static/experiments/stop_signal/images/trapezoid.png></img></div>","89,71","850","true","71","","test","42","<div class = coverbox></div><div class = stopbox><div class = centered-shape id = stop-signal></div><div class = centered-shape id = stop-signal-inner></div></div>","650","stop","500",""
"995","71","stop-signal","66","230275","0.0-13.0-2.0","pilot-38_ses-01_run2","","2386","0","stim","","<div class = coverbox></div><div class = shapebox><img class = stim src = /static/experiments/stop_signal/images/rectangle.png></img></div>","89,71","850","true","71","","test","43","<div class = coverbox></div><div class = stopbox><div class = centered-shape id = stop-signal></div><div class = centered-shape id = stop-signal-inner></div></div>","600","go","500",""
"1012","71","stop-signal","67","232822","0.0-13.0-3.0","pilot-38_ses-01_run2","","2522","0","stim","","<div class = coverbox></div><div class = shapebox><img class = stim src = /static/experiments/stop_signal/images/trapezoid.png></img></div>","89,71","850","true","71","","test","44","<div class = coverbox></div><div class = stopbox><div class = centered-shape id = stop-signal></div><div class = centered-shape id = stop-signal-inner></div></div>","600","go","500",""
"-1","-1","stop-signal","68","235093","0.0-13.0-4.0","pilot-38_ses-01_run2","","2250","0","stim","","<div class = coverbox></div><div class = shapebox><img class = stim src = /static/experiments/stop_signal/images/oval.png></img></div>","89,71","850","false","89","","test","45","<div class = coverbox></div><div class = stopbox><div class = centered-shape id = stop-signal></div><div class = centered-shape id = stop-signal-inner></div></div>","600","stop","500",""
"1519","71","stop-signal","69","237489","0.0-13.0-5.0","pilot-38_ses-01_run2","","2386","0","stim","","<div class = coverbox></div><div class = shapebox><img class = stim src = /static/experiments/stop_signal/images/trapezoid.png></img></div>","89,71","850","true","71","","test","46","<div class = coverbox></div><div class = stopbox><div class = centered-shape id = stop-signal></div><div class = centered-shape id = stop-signal-inner></div></div>","650","go","500",""
"1198","89","stop-signal","70","239888","0.0-13.0-6.0","pilot-38_ses-01_run2","","2386","0","stim","","<div class = coverbox></div><div class = shapebox><img class = stim src = /static/experiments/stop_signal/images/oval.png></img></div>","89,71","850","true","89","","test","47","<div class = coverbox></div><div class = stopbox><div class = centered-shape id = stop-signal></div><div class = centered-shape id = stop-signal-inner></div></div>","650","go","500",""
"931","71","stop-signal","71","242160","0.0-13.0-7.0","pilot-38_ses-01_run2","","2250","0","stim","","<div class = coverbox></div><div class = shapebox><img class = stim src = /static/experiments/stop_signal/images/rectangle.png></img></div>","89,71","850","true","71","","test","48","<div class = coverbox></div><div class = stopbox><div class = centered-shape id = stop-signal></div><div class = centered-shape id = stop-signal-inner></div></div>","650","go","500",""
"992","89","stop-signal","72","244551","0.0-13.0-8.0","pilot-38_ses-01_run2","","2386","0","stim","","<div class = coverbox></div><div class = shapebox><img class = stim src = /static/experiments/stop_signal/images/oval.png></img></div>","89,71","850","true","89","","test","49","<div class = coverbox></div><div class = stopbox><div class = centered-shape id = stop-signal></div><div class = centered-shape id = stop-signal-inner></div></div>","650","go","500",""
"969","71","stop-signal","73","246961","0.0-13.0-9.0","pilot-38_ses-01_run2","","2386","0","stim","","<div class = coverbox></div><div class = shapebox><img class = stim src = /static/experiments/stop_signal/images/rectangle.png></img></div>","89,71","850","true","71","","test","50","<div class = coverbox></div><div class = stopbox><div class = centered-shape id = stop-signal></div><div class = centered-shape id = stop-signal-inner></div></div>","650","go","500",""
"-1","-1","stop-signal","74","249336","0.0-13.0-10.0","pilot-38_ses-01_run2","","2386","0","stim","","<div class = coverbox></div><div class = shapebox><img class = stim src = /static/experiments/stop_signal/images/moon.png></img></div>","89,71","850","false","89","","test","51","<div class = coverbox></div><div class = stopbox><div class = centered-shape id = stop-signal></div><div class = centered-shape id = stop-signal-inner></div></div>","650","stop","500",""
"1103","89","stop-signal","75","252001","0.0-13.0-11.0","pilot-38_ses-01_run2","","2658","0","stim","","<div class = coverbox></div><div class = shapebox><img class = stim src = /static/experiments/stop_signal/images/oval.png></img></div>","89,71","850","true","89","","test","52","<div class = coverbox></div><div class = stopbox><div class = centered-shape id = stop-signal></div><div class = centered-shape id = stop-signal-inner></div></div>","700","go","500",""
"998","89","stop-signal","76","254548","0.0-13.0-12.0","pilot-38_ses-01_run2","","2522","0","stim","","<div class = coverbox></div><div class = shapebox><img class = stim src = /static/experiments/stop_signal/images/moon.png></img></div>","89,71","850","true","89","","test","53","<div class = coverbox></div><div class = stopbox><div class = centered-shape id = stop-signal></div><div class = centered-shape id = stop-signal-inner></div></div>","700","go","500",""
"1111","71","stop-signal","77","256814","0.0-13.0-13.0","pilot-38_ses-01_run2","","2250","0","stim","","<div class = coverbox></div><div class = shapebox><img class = stim src = /static/experiments/stop_signal/images/trapezoid.png></img></div>","89,71","850","true","71","","test","54","<div class = coverbox></div><div class = stopbox><div class = centered-shape id = stop-signal></div><div class = centered-shape id = stop-signal-inner></div></div>","700","stop","500",""
"-1","-1","stop-signal","78","259753","0.0-13.0-14.0","pilot-38_ses-01_run2","","2930","0","stim","","<div class = coverbox></div><div class = shapebox><img class = stim src = /static/experiments/stop_signal/images/moon.png></img></div>","89,71","850","false","89","","test","55","<div class = coverbox></div><div class = stopbox><div class = centered-shape id = stop-signal></div><div class = centered-shape id = stop-signal-inner></div></div>","650","stop","500",""
"951","89","stop-signal","79","262022","0.0-13.0-15.0","pilot-38_ses-01_run2","","2250","0","stim","","<div class = coverbox></div><div class = shapebox><img class = stim src = /static/experiments/stop_signal/images/oval.png></img></div>","89,71","850","true","89","","test","56","<div class = coverbox></div><div class = stopbox><div class = centered-shape id = stop-signal></div><div class = centered-shape id = stop-signal-inner></div></div>","700","go","500",""
"1197","89","stop-signal","80","264572","0.0-13.0-16.0","pilot-38_ses-01_run2","","2522","0","stim","","<div class = coverbox></div><div class = shapebox><img class = stim src = /static/experiments/stop_signal/images/oval.png></img></div>","89,71","850","true","89","","test","57","<div class = coverbox></div><div class = stopbox><div class = centered-shape id = stop-signal></div><div class = centered-shape id = stop-signal-inner></div></div>","700","go","500",""
"-1","-1","stop-signal","81","266844","0.0-13.0-17.0","pilot-38_ses-01_run2","","2250","0","stim","","<div class = coverbox></div><div class = shapebox><img class = stim src = /static/experiments/stop_signal/images/trapezoid.png></img></div>","89,71","850","false","71","","test","58","<div class = coverbox></div><div class = stopbox><div class = centered-shape id = stop-signal></div><div class = centered-shape id = stop-signal-inner></div></div>","700","stop","500",""
"1115","71","stop-signal","82","269088","0.0-13.0-18.0","pilot-38_ses-01_run2","","2250","0","stim","","<div class = coverbox></div><div class = shapebox><img class = stim src = /static/experiments/stop_signal/images/rectangle.png></img></div>","89,71","850","true","71","","test","59","<div class = coverbox></div><div class = stopbox><div class = centered-shape id = stop-signal></div><div class = centered-shape id = stop-signal-inner></div></div>","750","go","500",""
"1162","89","stop-signal","83","271349","0.0-13.0-19.0","pilot-38_ses-01_run2","","2250","0","stim","","<div class = coverbox></div><div class = shapebox><img class = stim src = /static/experiments/stop_signal/images/oval.png></img></div>","89,71","850","true","89","","test","60","<div class = coverbox></div><div class = stopbox><div class = centered-shape id = stop-signal></div><div class = centered-shape id = stop-signal-inner></div></div>","750","go","500",""
"1085","71","stop-signal","84","273594","0.0-13.0-20.0","pilot-38_ses-01_run2","","2250","0","stim","","<div class = coverbox></div><div class = shapebox><img class = stim src = /static/experiments/stop_signal/images/rectangle.png></img></div>","89,71","850","true","71","","test","61","<div class = coverbox></div><div class = stopbox><div class = centered-shape id = stop-signal></div><div class = centered-shape id = stop-signal-inner></div></div>","750","go","500",""
"1196","71","stop-signal","85","276134","0.0-13.0-21.0","pilot-38_ses-01_run2","","2522","0","stim","","<div class = coverbox></div><div class = shapebox><img class = stim src = /static/experiments/stop_signal/images/rectangle.png></img></div>","89,71","850","true","71","","test","62","<div class = coverbox></div><div class = stopbox><div class = centered-shape id = stop-signal></div><div class = centered-shape id = stop-signal-inner></div></div>","750","go","500",""
"-1","-1","stop-signal","86","279232","0.0-13.0-22.0","pilot-38_ses-01_run2","","3066","0","stim","","<div class = coverbox></div><div class = shapebox><img class = stim src = /static/experiments/stop_signal/images/oval.png></img></div>","89,71","850","false","89","","test","63","<div class = coverbox></div><div class = stopbox><div class = centered-shape id = stop-signal></div><div class = centered-shape id = stop-signal-inner></div></div>","750","stop","500",""
"-1","-1","stop-signal","87","281503","0.0-13.0-23.0","pilot-38_ses-01_run2","","2250","0","stim","","<div class = coverbox></div><div class = shapebox><img class = stim src = /static/experiments/stop_signal/images/moon.png></img></div>","89,71","850","false","89","","test","64","<div class = coverbox></div><div class = stopbox><div class = centered-shape id = stop-signal></div><div class = centered-shape id = stop-signal-inner></div></div>","800","stop","500",""
"1293","89","stop-signal","88","283912","0.0-13.0-24.0","pilot-38_ses-01_run2","","2386","0","stim","","<div class = coverbox></div><div class = shapebox><img class = stim src = /static/experiments/stop_signal/images/moon.png></img></div>","89,71","850","true","89","","test","65","<div class = coverbox></div><div class = stopbox><div class = centered-shape id = stop-signal></div><div class = centered-shape id = stop-signal-inner></div></div>","850","go","500",""
"-1","-1","stop-signal","89","286297","0.0-13.0-25.0","pilot-38_ses-01_run2","","2386","0","stim","","<div class = coverbox></div><div class = shapebox><img class = stim src = /static/experiments/stop_signal/images/moon.png></img></div>","89,71","850","false","89","","test","66","<div class = coverbox></div><div class = stopbox><div class = centered-shape id = stop-signal></div><div class = centered-shape id = stop-signal-inner></div></div>","850","stop","500",""
"1097","71","stop-signal","90","288848","0.0-13.0-26.0","pilot-38_ses-01_run2","","2522","0","stim","","<div class = coverbox></div><div class = shapebox><img class = stim src = /static/experiments/stop_signal/images/rectangle.png></img></div>","89,71","850","true","71","","test","67","<div class = coverbox></div><div class = stopbox><div class = centered-shape id = stop-signal></div><div class = centered-shape id = stop-signal-inner></div></div>","900","go","500",""
"1153","71","stop-signal","91","291243","0.0-13.0-27.0","pilot-38_ses-01_run2","","2386","0","stim","","<div class = coverbox></div><div class = shapebox><img class = stim src = /static/experiments/stop_signal/images/trapezoid.png></img></div>","89,71","850","true","71","","test","68","<div class = coverbox></div><div class = stopbox><div class = centered-shape id = stop-signal></div><div class = centered-shape id = stop-signal-inner></div></div>","900","go","500",""
"1185","71","stop-signal","92","293640","0.0-13.0-28.0","pilot-38_ses-01_run2","","2386","0","stim","","<div class = coverbox></div><div class = shapebox><img class = stim src = /static/experiments/stop_signal/images/rectangle.png></img></div>","89,71","850","true","71","","test","69","<div class = coverbox></div><div class = stopbox><div class = centered-shape id = stop-signal></div><div class = centered-shape id = stop-signal-inner></div></div>","900","go","500",""
"1110","89","stop-signal","93","296468","0.0-13.0-29.0","pilot-38_ses-01_run2","","2794","0","stim","","<div class = coverbox></div><div class = shapebox><img class = stim src = /static/experiments/stop_signal/images/moon.png></img></div>","89,71","850","true","89","","test","70","<div class = coverbox></div><div class = stopbox><div class = centered-shape id = stop-signal></div><div class = centered-shape id = stop-signal-inner></div></div>","900","stop","500",""
"1069","71","stop-signal","94","298876","0.0-13.0-30.0","pilot-38_ses-01_run2","","2386","0","stim","","<div class = coverbox></div><div class = shapebox><img class = stim src = /static/experiments/stop_signal/images/rectangle.png></img></div>","89,71","850","true","71","","test","71","<div class = coverbox></div><div class = stopbox><div class = centered-shape id = stop-signal></div><div class = centered-shape id = stop-signal-inner></div></div>","850","go","500",""
"-1","-1","stop-signal","95","301158","0.0-13.0-31.0","pilot-38_ses-01_run2","","2250","0","stim","","<div class = coverbox></div><div class = shapebox><img class = stim src = /static/experiments/stop_signal/images/rectangle.png></img></div>","89,71","850","false","71","","test","72","<div class = coverbox></div><div class = stopbox><div class = centered-shape id = stop-signal></div><div class = centered-shape id = stop-signal-inner></div></div>","850","stop","500",""
"1168","71","stop-signal","96","303711","0.0-13.0-32.0","pilot-38_ses-01_run2","","2522","0","stim","","<div class = coverbox></div><div class = shapebox><img class = stim src = /static/experiments/stop_signal/images/rectangle.png></img></div>","89,71","850","true","71","","test","73","<div class = coverbox></div><div class = stopbox><div class = centered-shape id = stop-signal></div><div class = centered-shape id = stop-signal-inner></div></div>","900","stop","500",""
"804","71","stop-signal","97","306110","0.0-13.0-33.0","pilot-38_ses-01_run2","","2386","0","stim","","<div class = coverbox></div><div class = shapebox><img class = stim src = /static/experiments/stop_signal/images/rectangle.png></img></div>","89,71","850","true","71","","test","74","<div class = coverbox></div><div class = stopbox><div class = centered-shape id = stop-signal></div><div class = centered-shape id = stop-signal-inner></div></div>","850","stop","500",""
"1393","71","stop-signal","98","308505","0.0-13.0-34.0","pilot-38_ses-01_run2","","2386","0","stim","","<div class = coverbox></div><div class = shapebox><img class = stim src = /static/experiments/stop_signal/images/rectangle.png></img></div>","89,71","850","true","71","","test","75","<div class = coverbox></div><div class = stopbox><div class = centered-shape id = stop-signal></div><div class = centered-shape id = stop-signal-inner></div></div>","800","go","500",""
"-1","-1","stop-signal","99","310773","0.0-13.0-35.0","pilot-38_ses-01_run2","","2250","0","stim","","<div class = coverbox></div><div class = shapebox><img class = stim src = /static/experiments/stop_signal/images/moon.png></img></div>","89,71","850","false","89","","test","76","<div class = coverbox></div><div class = stopbox><div class = centered-shape id = stop-signal></div><div class = centered-shape id = stop-signal-inner></div></div>","800","stop","500",""
"1270","89","stop-signal","100","313183","0.0-13.0-36.0","pilot-38_ses-01_run2","","2386","0","stim","","<div class = coverbox></div><div class = shapebox><img class = stim src = /static/experiments/stop_signal/images/oval.png></img></div>","89,71","850","true","89","","test","77","<div class = coverbox></div><div class = stopbox><div class = centered-shape id = stop-signal></div><div class = centered-shape id = stop-signal-inner></div></div>","850","go","500",""
"1244","89","stop-signal","101","315441","0.0-13.0-37.0","pilot-38_ses-01_run2","","2250","0","stim","","<div class = coverbox></div><div class = shapebox><img class = stim src = /static/experiments/stop_signal/images/moon.png></img></div>","89,71","850","true","89","","test","78","<div class = coverbox></div><div class = stopbox><div class = centered-shape id = stop-signal></div><div class = centered-shape id = stop-signal-inner></div></div>","850","go","500",""
"-1","-1","stop-signal","102","317707","0.0-13.0-38.0","pilot-38_ses-01_run2","","2250","0","stim","","<div class = coverbox></div><div class = shapebox><img class = stim src = /static/experiments/stop_signal/images/moon.png></img></div>","89,71","850","false","89","","test","79","<div class = coverbox></div><div class = stopbox><div class = centered-shape id = stop-signal></div><div class = centered-shape id = stop-signal-inner></div></div>","850","stop","500",""
"729","71","stop-signal","103","319949","0.0-13.0-39.0","pilot-38_ses-01_run2","","2250","0","stim","","<div class = coverbox></div><div class = shapebox><img class = stim src = /static/experiments/stop_signal/images/trapezoid.png></img></div>","89,71","850","true","71","","test","80","<div class = coverbox></div><div class = stopbox><div class = centered-shape id = stop-signal></div><div class = centered-shape id = stop-signal-inner></div></div>","900","go","500",""
"1251","89","stop-signal","104","322355","0.0-13.0-40.0","pilot-38_ses-01_run2","","2386","0","stim","","<div class = coverbox></div><div class = shapebox><img class = stim src = /static/experiments/stop_signal/images/oval.png></img></div>","89,71","850","true","89","","test","81","<div class = coverbox></div><div class = stopbox><div class = centered-shape id = stop-signal></div><div class = centered-shape id = stop-signal-inner></div></div>","900","go","500",""
"1240","89","stop-signal","105","324618","0.0-13.0-41.0","pilot-38_ses-01_run2","","2250","0","stim","","<div class = coverbox></div><div class = shapebox><img class = stim src = /static/experiments/stop_signal/images/oval.png></img></div>","89,71","850","true","89","","test","82","<div class = coverbox></div><div class = stopbox><div class = centered-shape id = stop-signal></div><div class = centered-shape id = stop-signal-inner></div></div>","900","stop","500",""
"-1","-1","poldrack-single-stim","106","332150","0.0-14.0","pilot-38_ses-01_run2","","7500","1000","rest_block","","<div class = centerbox><div class = center-text>+</div></div>","none","7500","","","","","","","","","",""
"-1","-1","poldrack-single-stim","107","334691","0.0-15.0","pilot-38_ses-01_run2","","1500","500","test_start_block","","<div class = centerbox><div class = center-text>Prerparez-vous!</p></div>","none","1500","","","","","","","","","",""
"-1","-1","stop-signal","108","337478","0.0-16.0-0.0","pilot-38_ses-01_run2","","2250","0","stim","","<div class = coverbox></div><div class = shapebox><img class = stim src = /static/experiments/stop_signal/images/trapezoid.png></img></div>","89,71","850","false","71","","test","83","<div class = coverbox></div><div class = stopbox><div class = centered-shape id = stop-signal></div><div class = centered-shape id = stop-signal-inner></div></div>","850","stop","500",""
"-1","-1","stop-signal","109","339887","0.0-16.0-1.0","pilot-38_ses-01_run2","","2386","0","stim","","<div class = coverbox></div><div class = shapebox><img class = stim src = /static/experiments/stop_signal/images/trapezoid.png></img></div>","89,71","850","false","71","","test","84","<div class = coverbox></div><div class = stopbox><div class = centered-shape id = stop-signal></div><div class = centered-shape id = stop-signal-inner></div></div>","900","stop","500",""
"-1","-1","stop-signal","110","342271","0.0-16.0-2.0","pilot-38_ses-01_run2","","2386","0","stim","","<div class = coverbox></div><div class = shapebox><img class = stim src = /static/experiments/stop_signal/images/trapezoid.png></img></div>","89,71","850","false","71","","test","85","<div class = coverbox></div><div class = stopbox><div class = centered-shape id = stop-signal></div><div class = centered-shape id = stop-signal-inner></div></div>","950","stop","500",""
"1391","71","stop-signal","111","344548","0.0-16.0-3.0","pilot-38_ses-01_run2","","2250","0","stim","","<div class = coverbox></div><div class = shapebox><img class = stim src = /static/experiments/stop_signal/images/trapezoid.png></img></div>","89,71","850","true","71","","test","86","<div class = coverbox></div><div class = stopbox><div class = centered-shape id = stop-signal></div><div class = centered-shape id = stop-signal-inner></div></div>","1000","go","500",""
"-1","-1","stop-signal","112","347102","0.0-16.0-4.0","pilot-38_ses-01_run2","","2522","0","stim","","<div class = coverbox></div><div class = shapebox><img class = stim src = /static/experiments/stop_signal/images/trapezoid.png></img></div>","89,71","850","false","71","","test","87","<div class = coverbox></div><div class = stopbox><div class = centered-shape id = stop-signal></div><div class = centered-shape id = stop-signal-inner></div></div>","1000","stop","500",""
"1295","89","stop-signal","113","349366","0.0-16.0-5.0","pilot-38_ses-01_run2","","2250","0","stim","","<div class = coverbox></div><div class = shapebox><img class = stim src = /static/experiments/stop_signal/images/oval.png></img></div>","89,71","850","true","89","","test","88","<div class = coverbox></div><div class = stopbox><div class = centered-shape id = stop-signal></div><div class = centered-shape id = stop-signal-inner></div></div>","1000","go","500",""
"1436","89","stop-signal","114","351778","0.0-16.0-6.0","pilot-38_ses-01_run2","","2386","0","stim","","<div class = coverbox></div><div class = shapebox><img class = stim src = /static/experiments/stop_signal/images/moon.png></img></div>","89,71","850","true","89","","test","89","<div class = coverbox></div><div class = stopbox><div class = centered-shape id = stop-signal></div><div class = centered-shape id = stop-signal-inner></div></div>","1000","go","500",""
"1404","71","stop-signal","115","354037","0.0-16.0-7.0","pilot-38_ses-01_run2","","2250","0","stim","","<div class = coverbox></div><div class = shapebox><img class = stim src = /static/experiments/stop_signal/images/rectangle.png></img></div>","89,71","850","true","71","","test","90","<div class = coverbox></div><div class = stopbox><div class = centered-shape id = stop-signal></div><div class = centered-shape id = stop-signal-inner></div></div>","1000","go","500",""
"1222","89","stop-signal","116","356297","0.0-16.0-8.0","pilot-38_ses-01_run2","","2250","0","stim","","<div class = coverbox></div><div class = shapebox><img class = stim src = /static/experiments/stop_signal/images/oval.png></img></div>","89,71","850","true","89","","test","91","<div class = coverbox></div><div class = stopbox><div class = centered-shape id = stop-signal></div><div class = centered-shape id = stop-signal-inner></div></div>","1000","stop","500",""
"1287","89","stop-signal","117","358700","0.0-16.0-9.0","pilot-38_ses-01_run2","","2386","0","stim","","<div class = coverbox></div><div class = shapebox><img class = stim src = /static/experiments/stop_signal/images/moon.png></img></div>","89,71","850","true","89","","test","92","<div class = coverbox></div><div class = stopbox><div class = centered-shape id = stop-signal></div><div class = centered-shape id = stop-signal-inner></div></div>","950","go","500",""
"1472","89","stop-signal","118","361248","0.0-16.0-10.0","pilot-38_ses-01_run2","","2522","0","stim","","<div class = coverbox></div><div class = shapebox><img class = stim src = /static/experiments/stop_signal/images/moon.png></img></div>","89,71","850","true","89","","test","93","<div class = coverbox></div><div class = stopbox><div class = centered-shape id = stop-signal></div><div class = centered-shape id = stop-signal-inner></div></div>","950","go","500",""
"1404","89","stop-signal","119","363660","0.0-16.0-11.0","pilot-38_ses-01_run2","","2386","0","stim","","<div class = coverbox></div><div class = shapebox><img class = stim src = /static/experiments/stop_signal/images/oval.png></img></div>","89,71","850","true","89","","test","94","<div class = coverbox></div><div class = stopbox><div class = centered-shape id = stop-signal></div><div class = centered-shape id = stop-signal-inner></div></div>","950","go","500",""
"1453","89","stop-signal","120","366213","0.0-16.0-12.0","pilot-38_ses-01_run2","","2522","0","stim","","<div class = coverbox></div><div class = shapebox><img class = stim src = /static/experiments/stop_signal/images/oval.png></img></div>","89,71","850","true","89","","test","95","<div class = coverbox></div><div class = stopbox><div class = centered-shape id = stop-signal></div><div class = centered-shape id = stop-signal-inner></div></div>","950","go","500",""
"-1","-1","stop-signal","121","369157","0.0-16.0-13.0","pilot-38_ses-01_run2","","2930","0","stim","","<div class = coverbox></div><div class = shapebox><img class = stim src = /static/experiments/stop_signal/images/rectangle.png></img></div>","89,71","850","false","71","","test","96","<div class = coverbox></div><div class = stopbox><div class = centered-shape id = stop-signal></div><div class = centered-shape id = stop-signal-inner></div></div>","950","stop","500",""
"745","71","stop-signal","122","371716","0.0-16.0-14.0","pilot-38_ses-01_run2","","2522","0","stim","","<div class = coverbox></div><div class = shapebox><img class = stim src = /static/experiments/stop_signal/images/trapezoid.png></img></div>","89,71","850","true","71","","test","97","<div class = coverbox></div><div class = stopbox><div class = centered-shape id = stop-signal></div><div class = centered-shape id = stop-signal-inner></div></div>","1000","go","500",""
"1244","71","stop-signal","123","374233","0.0-16.0-15.0","pilot-38_ses-01_run2","","2522","0","stim","","<div class = coverbox></div><div class = shapebox><img class = stim src = /static/experiments/stop_signal/images/trapezoid.png></img></div>","89,71","850","true","71","","test","98","<div class = coverbox></div><div class = stopbox><div class = centered-shape id = stop-signal></div><div class = centered-shape id = stop-signal-inner></div></div>","1000","go","500",""
"1359","89","stop-signal","124","376507","0.0-16.0-16.0","pilot-38_ses-01_run2","","2250","0","stim","","<div class = coverbox></div><div class = shapebox><img class = stim src = /static/experiments/stop_signal/images/moon.png></img></div>","89,71","850","true","89","","test","99","<div class = coverbox></div><div class = stopbox><div class = centered-shape id = stop-signal></div><div class = centered-shape id = stop-signal-inner></div></div>","1000","go","500",""
"-1","-1","stop-signal","125","379052","0.0-16.0-17.0","pilot-38_ses-01_run2","","2522","0","stim","","<div class = coverbox></div><div class = shapebox><img class = stim src = /static/experiments/stop_signal/images/oval.png></img></div>","89,71","850","false","89","","test","100","<div class = coverbox></div><div class = stopbox><div class = centered-shape id = stop-signal></div><div class = centered-shape id = stop-signal-inner></div></div>","1000","stop","500",""
"1384","89","stop-signal","126","381466","0.0-16.0-18.0","pilot-38_ses-01_run2","","2386","0","stim","","<div class = coverbox></div><div class = shapebox><img class = stim src = /static/experiments/stop_signal/images/moon.png></img></div>","89,71","850","true","89","","test","101","<div class = coverbox></div><div class = stopbox><div class = centered-shape id = stop-signal></div><div class = centered-shape id = stop-signal-inner></div></div>","1000","go","500",""
"1384","71","stop-signal","127","383735","0.0-16.0-19.0","pilot-38_ses-01_run2","","2250","0","stim","","<div class = coverbox></div><div class = shapebox><img class = stim src = /static/experiments/stop_signal/images/trapezoid.png></img></div>","89,71","850","true","71","","test","102","<div class = coverbox></div><div class = stopbox><div class = centered-shape id = stop-signal></div><div class = centered-shape id = stop-signal-inner></div></div>","1000","go","500",""
"1365","71","stop-signal","128","386144","0.0-16.0-20.0","pilot-38_ses-01_run2","","2386","0","stim","","<div class = coverbox></div><div class = shapebox><img class = stim src = /static/experiments/stop_signal/images/oval.png></img></div>","89,71","850","false","89","","test","103","<div class = coverbox></div><div class = stopbox><div class = centered-shape id = stop-signal></div><div class = centered-shape id = stop-signal-inner></div></div>","1000","go","500",""
"1472","89","stop-signal","129","388421","0.0-16.0-21.0","pilot-38_ses-01_run2","","2250","0","stim","","<div class = coverbox></div><div class = shapebox><img class = stim src = /static/experiments/stop_signal/images/moon.png></img></div>","89,71","850","true","89","","test","104","<div class = coverbox></div><div class = stopbox><div class = centered-shape id = stop-signal></div><div class = centered-shape id = stop-signal-inner></div></div>","1000","go","500",""
"-1","-1","stop-signal","130","390824","0.0-16.0-22.0","pilot-38_ses-01_run2","","2386","0","stim","","<div class = coverbox></div><div class = shapebox><img class = stim src = /static/experiments/stop_signal/images/oval.png></img></div>","89,71","850","false","89","","test","105","<div class = coverbox></div><div class = stopbox><div class = centered-shape id = stop-signal></div><div class = centered-shape id = stop-signal-inner></div></div>","1000","stop","500",""
"108","89","stop-signal","131","393365","0.0-16.0-23.0","pilot-38_ses-01_run2","","2522","0","stim","","<div class = coverbox></div><div class = shapebox><img class = stim src = /static/experiments/stop_signal/images/rectangle.png></img></div>","89,71","850","false","71","","test","106","<div class = coverbox></div><div class = stopbox><div class = centered-shape id = stop-signal></div><div class = centered-shape id = stop-signal-inner></div></div>","1000","go","500",""
"-1","-1","stop-signal","132","395627","0.0-16.0-24.0","pilot-38_ses-01_run2","","2250","0","stim","","<div class = coverbox></div><div class = shapebox><img class = stim src = /static/experiments/stop_signal/images/oval.png></img></div>","89,71","850","false","89","","test","107","<div class = coverbox></div><div class = stopbox><div class = centered-shape id = stop-signal></div><div class = centered-shape id = stop-signal-inner></div></div>","1000","stop","500",""
"1930","89","stop-signal","133","398047","0.0-16.0-25.0","pilot-38_ses-01_run2","","2386","0","stim","","<div class = coverbox></div><div class = shapebox><img class = stim src = /static/experiments/stop_signal/images/oval.png></img></div>","89,71","850","true","89","","test","108","<div class = coverbox></div><div class = stopbox><div class = centered-shape id = stop-signal></div><div class = centered-shape id = stop-signal-inner></div></div>","1000","stop","500",""
"1872","71","stop-signal","134","400723","0.0-16.0-26.0","pilot-38_ses-01_run2","","2658","0","stim","","<div class = coverbox></div><div class = shapebox><img class = stim src = /static/experiments/stop_signal/images/trapezoid.png></img></div>","89,71","850","true","71","","test","109","<div class = coverbox></div><div class = stopbox><div class = centered-shape id = stop-signal></div><div class = centered-shape id = stop-signal-inner></div></div>","950","go","500",""
"-1","-1","stop-signal","135","402998","0.0-16.0-27.0","pilot-38_ses-01_run2","","2250","0","stim","","<div class = coverbox></div><div class = shapebox><img class = stim src = /static/experiments/stop_signal/images/rectangle.png></img></div>","89,71","850","false","71","","test","110","<div class = coverbox></div><div class = stopbox><div class = centered-shape id = stop-signal></div><div class = centered-shape id = stop-signal-inner></div></div>","950","stop","500",""
"1877","71","stop-signal","136","406216","0.0-16.0-28.0","pilot-38_ses-01_run2","","3202","0","stim","","<div class = coverbox></div><div class = shapebox><img class = stim src = /static/experiments/stop_signal/images/rectangle.png></img></div>","89,71","850","true","71","","test","111","<div class = coverbox></div><div class = stopbox><div class = centered-shape id = stop-signal></div><div class = centered-shape id = stop-signal-inner></div></div>","1000","go","500",""
"1591","89","stop-signal","137","408622","0.0-16.0-29.0","pilot-38_ses-01_run2","","2386","0","stim","","<div class = coverbox></div><div class = shapebox><img class = stim src = /static/experiments/stop_signal/images/moon.png></img></div>","89,71","850","true","89","","test","112","<div class = coverbox></div><div class = stopbox><div class = centered-shape id = stop-signal></div><div class = centered-shape id = stop-signal-inner></div></div>","1000","go","500",""
"1920","89","stop-signal","138","411016","0.0-16.0-30.0","pilot-38_ses-01_run2","","2386","0","stim","","<div class = coverbox></div><div class = shapebox><img class = stim src = /static/experiments/stop_signal/images/oval.png></img></div>","89,71","850","true","89","","test","113","<div class = coverbox></div><div class = stopbox><div class = centered-shape id = stop-signal></div><div class = centered-shape id = stop-signal-inner></div></div>","1000","go","500",""
"-1","-1","stop-signal","139","413554","0.0-16.0-31.0","pilot-38_ses-01_run2","","2522","0","stim","","<div class = coverbox></div><div class = shapebox><img class = stim src = /static/experiments/stop_signal/images/oval.png></img></div>","89,71","850","false","89","","test","114","<div class = coverbox></div><div class = stopbox><div class = centered-shape id = stop-signal></div><div class = centered-shape id = stop-signal-inner></div></div>","1000","stop","500",""
"1585","71","stop-signal","140","415813","0.0-16.0-32.0","pilot-38_ses-01_run2","","2250","0","stim","","<div class = coverbox></div><div class = shapebox><img class = stim src = /static/experiments/stop_signal/images/rectangle.png></img></div>","89,71","850","true","71","","test","115","<div class = coverbox></div><div class = stopbox><div class = centered-shape id = stop-signal></div><div class = centered-shape id = stop-signal-inner></div></div>","1000","go","500",""
"-1","-1","stop-signal","141","418079","0.0-16.0-33.0","pilot-38_ses-01_run2","","2250","0","stim","","<div class = coverbox></div><div class = shapebox><img class = stim src = /static/experiments/stop_signal/images/moon.png></img></div>","89,71","850","false","89","","test","116","<div class = coverbox></div><div class = stopbox><div class = centered-shape id = stop-signal></div><div class = centered-shape id = stop-signal-inner></div></div>","1000","stop","500",""
"-1","-1","stop-signal","142","420322","0.0-16.0-34.0","pilot-38_ses-01_run2","","2250","0","stim","","<div class = coverbox></div><div class = shapebox><img class = stim src = /static/experiments/stop_signal/images/rectangle.png></img></div>","89,71","850","false","71","","test","117","<div class = coverbox></div><div class = stopbox><div class = centered-shape id = stop-signal></div><div class = centered-shape id = stop-signal-inner></div></div>","1000","stop","500",""
"1581","89","stop-signal","143","423273","0.0-16.0-35.0","pilot-38_ses-01_run2","","2930","0","stim","","<div class = coverbox></div><div class = shapebox><img class = stim src = /static/experiments/stop_signal/images/moon.png></img></div>","89,71","850","true","89","","test","118","<div class = coverbox></div><div class = stopbox><div class = centered-shape id = stop-signal></div><div class = centered-shape id = stop-signal-inner></div></div>","1000","go","500",""
"1639","71","stop-signal","144","425809","0.0-16.0-36.0","pilot-38_ses-01_run2","","2522","0","stim","","<div class = coverbox></div><div class = shapebox><img class = stim src = /static/experiments/stop_signal/images/trapezoid.png></img></div>","89,71","850","true","71","","test","119","<div class = coverbox></div><div class = stopbox><div class = centered-shape id = stop-signal></div><div class = centered-shape id = stop-signal-inner></div></div>","1000","go","500",""
"1656","71","stop-signal","145","428329","0.0-16.0-37.0","pilot-38_ses-01_run2","","2522","0","stim","","<div class = coverbox></div><div class = shapebox><img class = stim src = /static/experiments/stop_signal/images/trapezoid.png></img></div>","89,71","850","true","71","","test","120","<div class = coverbox></div><div class = stopbox><div class = centered-shape id = stop-signal></div><div class = centered-shape id = stop-signal-inner></div></div>","1000","go","500",""
"1671","89","stop-signal","146","430597","0.0-16.0-38.0","pilot-38_ses-01_run2","","2250","0","stim","","<div class = coverbox></div><div class = shapebox><img class = stim src = /static/experiments/stop_signal/images/moon.png></img></div>","89,71","850","true","89","","test","121","<div class = coverbox></div><div class = stopbox><div class = centered-shape id = stop-signal></div><div class = centered-shape id = stop-signal-inner></div></div>","1000","go","500",""
"-1","-1","stop-signal","147","433129","0.0-16.0-39.0","pilot-38_ses-01_run2","","2522","0","stim","","<div class = coverbox></div><div class = shapebox><img class = stim src = /static/experiments/stop_signal/images/rectangle.png></img></div>","89,71","850","false","71","","test","122","<div class = coverbox></div><div class = stopbox><div class = centered-shape id = stop-signal></div><div class = centered-shape id = stop-signal-inner></div></div>","1000","stop","500",""
"1259","71","stop-signal","148","435395","0.0-16.0-40.0","pilot-38_ses-01_run2","","2250","0","stim","","<div class = coverbox></div><div class = shapebox><img class = stim src = /static/experiments/stop_signal/images/trapezoid.png></img></div>","89,71","850","true","71","","test","123","<div class = coverbox></div><div class = stopbox><div class = centered-shape id = stop-signal></div><div class = centered-shape id = stop-signal-inner></div></div>","1000","stop","500",""
"1857","71","stop-signal","149","437813","0.0-16.0-41.0","pilot-38_ses-01_run2","","2386","0","stim","","<div class = coverbox></div><div class = shapebox><img class = stim src = /static/experiments/stop_signal/images/rectangle.png></img></div>","89,71","850","true","71","","test","124","<div class = coverbox></div><div class = stopbox><div class = centered-shape id = stop-signal></div><div class = centered-shape id = stop-signal-inner></div></div>","950","go","500",""
"16189","32","poldrack-single-stim","150","454005","0.0-17.0","pilot-38_ses-01_run2","","16189","0","end","","<div class = centerbox><div class = center-text><i>Fin</i></div></div>","32","16189","","","","","","","","","","stop_signal"
"496","13","text","151","454502","0.0-18.0","pilot-38_ses-01_run2","","","","","","","","","","","","","","","","","",""
