"rt","key_press","trial_type","trial_index","time_elapsed","internal_node_id","subject","text","block_duration","timing_post_trial","trial_id","responses","stimulus","possible_responses","stim_duration","exp_stage","condition","trial_num","correct_response","correct","exp_id"
"2833","13","text","0","2838","0.0-0.0","pilot-40_ses-03_1","","","","","","","","","","","","","",""
"1199","89","poldrack-text","1","5044","0.0-1.0","pilot-40_ses-03_1","<div class = centerbox><div style = 'font-size: 50px' class = center-text>Veuillez appuyer avec votre index</p></div>","1199","500","fmri_response_test","","","","","","","","","",""
"770","71","poldrack-text","2","6330","0.0-2.0","pilot-40_ses-03_1","<div class = centerbox><div style = 'font-size: 50px' class = center-text>Veuillez appuyer avec votre majeur</p></div>","770","500","fmri_response_test","","","","","","","","","",""
"23132","","survey-text","3","29979","0.0-3.0","pilot-40_ses-03_1","","","","task_setup","{""Q0"":""4"",""Q1"":""1""}","","","","","","","","",""
"21806","32","poldrack-single-stim","4","52798","0.0-4.0","pilot-40_ses-03_1","","21806","500","instructions","","<div class = centerbox><p style = ""font-size:40px"" class = center-block-text>Paire cible (appuyez sur l'index):</p><p class = center-block-text><img src = ""/static/experiments/dot_pattern_expectancy/images/cue4.png"" ></img>&nbsp&nbsp&nbsp...suivi par...&nbsp&nbsp&nbsp<img src = ""/static/experiments/dot_pattern_expectancy/images/probe1.png"" ></img><br></br></p><p style = ""font-size:40px"" class = center-block-text>Sinon appuyez sur le majeur</div>","32","21806","","","","","",""
"-1","-1","poldrack-single-stim","5","53824","0.0-5.0-0.0","pilot-40_ses-03_1","","500","0","cue","","<div class = centerbox><div class = img-container><img src = ""/static/experiments/dot_pattern_expectancy/images/cue6.png""</img></div></div>","none","500","practice","BX","0","","",""
"-1","-1","poldrack-single-stim","6","55842","0.0-5.0-1.0","pilot-40_ses-03_1","","2000","0","fixation","","<div class = centerbox><div class = fixation>+</div></div>","none","2000","practice","","","","",""
"772","89","poldrack-single-stim","7","58363","0.0-5.0-2.0","pilot-40_ses-03_1","","2500","0","probe","","<div class = centerbox><div class = img-container><img src = ""/static/experiments/dot_pattern_expectancy/images/probe1.png""</img></div></div>","89,71","500","practice","BX","0","71","false",""
"-1","-1","poldrack-single-stim","8","58883","0.0-5.0-3.0","pilot-40_ses-03_1","","500","0","feedback","","<div class = centerbox><div style=""color:red""; class = center-text>Incorrect</div></div>","none","500","practice","","1","","",""
"-1","-1","poldrack-single-stim","9","59406","0.0-5.0-4.0","pilot-40_ses-03_1","","500","0","cue","","<div class = centerbox><div class = img-container><img src = ""/static/experiments/dot_pattern_expectancy/images/cue4.png""</img></div></div>","none","500","practice","AY","1","","",""
"-1","-1","poldrack-single-stim","10","61422","0.0-5.0-5.0","pilot-40_ses-03_1","","2000","0","fixation","","<div class = centerbox><div class = fixation>+</div></div>","none","2000","practice","","","","",""
"871","71","poldrack-single-stim","11","62942","0.0-5.0-6.0","pilot-40_ses-03_1","","1500","0","probe","","<div class = centerbox><div class = img-container><img src = ""/static/experiments/dot_pattern_expectancy/images/probe6.png""</img></div></div>","89,71","500","practice","AY","1","71","true",""
"-1","-1","poldrack-single-stim","12","63462","0.0-5.0-7.0","pilot-40_ses-03_1","","500","0","feedback","","<div class = centerbox><div style=""color:#4FE829""; class = center-text>Correct!</div></div>","none","500","practice","","2","","",""
"-1","-1","poldrack-single-stim","13","63981","0.0-5.0-8.0","pilot-40_ses-03_1","","500","0","cue","","<div class = centerbox><div class = img-container><img src = ""/static/experiments/dot_pattern_expectancy/images/cue4.png""</img></div></div>","none","500","practice","AX","2","","",""
"-1","-1","poldrack-single-stim","14","66003","0.0-5.0-9.0","pilot-40_ses-03_1","","2000","0","fixation","","<div class = centerbox><div class = fixation>+</div></div>","none","2000","practice","","","","",""
"817","89","poldrack-single-stim","15","68323","0.0-5.0-10.0","pilot-40_ses-03_1","","2300","0","probe","","<div class = centerbox><div class = img-container><img src = ""/static/experiments/dot_pattern_expectancy/images/probe1.png""</img></div></div>","89,71","500","practice","AX","2","89","true",""
"-1","-1","poldrack-single-stim","16","68844","0.0-5.0-11.0","pilot-40_ses-03_1","","500","0","feedback","","<div class = centerbox><div style=""color:#4FE829""; class = center-text>Correct!</div></div>","none","500","practice","","3","","",""
"-1","-1","poldrack-single-stim","17","69363","0.0-5.0-12.0","pilot-40_ses-03_1","","500","0","cue","","<div class = centerbox><div class = img-container><img src = ""/static/experiments/dot_pattern_expectancy/images/cue4.png""</img></div></div>","none","500","practice","AX","3","","",""
"-1","-1","poldrack-single-stim","18","71384","0.0-5.0-13.0","pilot-40_ses-03_1","","2000","0","fixation","","<div class = centerbox><div class = fixation>+</div></div>","none","2000","practice","","","","",""
"1073","89","poldrack-single-stim","19","73100","0.0-5.0-14.0","pilot-40_ses-03_1","","1700","0","probe","","<div class = centerbox><div class = img-container><img src = ""/static/experiments/dot_pattern_expectancy/images/probe1.png""</img></div></div>","89,71","500","practice","AX","3","89","true",""
"-1","-1","poldrack-single-stim","20","73622","0.0-5.0-15.0","pilot-40_ses-03_1","","500","0","feedback","","<div class = centerbox><div style=""color:#4FE829""; class = center-text>Correct!</div></div>","none","500","practice","","4","","",""
"-1","-1","poldrack-single-stim","21","74143","0.0-5.0-16.0","pilot-40_ses-03_1","","500","0","cue","","<div class = centerbox><div class = img-container><img src = ""/static/experiments/dot_pattern_expectancy/images/cue2.png""</img></div></div>","none","500","practice","BX","4","","",""
"-1","-1","poldrack-single-stim","22","76163","0.0-5.0-17.0","pilot-40_ses-03_1","","2000","0","fixation","","<div class = centerbox><div class = fixation>+</div></div>","none","2000","practice","","","","",""
"1266","71","poldrack-single-stim","23","77682","0.0-5.0-18.0","pilot-40_ses-03_1","","1500","0","probe","","<div class = centerbox><div class = img-container><img src = ""/static/experiments/dot_pattern_expectancy/images/probe1.png""</img></div></div>","89,71","500","practice","BX","4","71","true",""
"-1","-1","poldrack-single-stim","24","78203","0.0-5.0-19.0","pilot-40_ses-03_1","","500","0","feedback","","<div class = centerbox><div style=""color:#4FE829""; class = center-text>Correct!</div></div>","none","500","practice","","5","","",""
"-1","-1","poldrack-single-stim","25","78723","0.0-5.0-20.0","pilot-40_ses-03_1","","500","0","cue","","<div class = centerbox><div class = img-container><img src = ""/static/experiments/dot_pattern_expectancy/images/cue5.png""</img></div></div>","none","500","practice","BY","5","","",""
"-1","-1","poldrack-single-stim","26","80743","0.0-5.0-21.0","pilot-40_ses-03_1","","2000","0","fixation","","<div class = centerbox><div class = fixation>+</div></div>","none","2000","practice","","","","",""
"1188","71","poldrack-single-stim","27","82862","0.0-5.0-22.0","pilot-40_ses-03_1","","2100","0","probe","","<div class = centerbox><div class = img-container><img src = ""/static/experiments/dot_pattern_expectancy/images/probe4.png""</img></div></div>","89,71","500","practice","BY","5","71","true",""
"-1","-1","poldrack-single-stim","28","83382","0.0-5.0-23.0","pilot-40_ses-03_1","","500","0","feedback","","<div class = centerbox><div style=""color:#4FE829""; class = center-text>Correct!</div></div>","none","500","practice","","6","","",""
"-1","-1","poldrack-single-stim","29","83902","0.0-5.0-24.0","pilot-40_ses-03_1","","500","0","cue","","<div class = centerbox><div class = img-container><img src = ""/static/experiments/dot_pattern_expectancy/images/cue4.png""</img></div></div>","none","500","practice","AX","6","","",""
"-1","-1","poldrack-single-stim","30","85923","0.0-5.0-25.0","pilot-40_ses-03_1","","2000","0","fixation","","<div class = centerbox><div class = fixation>+</div></div>","none","2000","practice","","","","",""
"831","89","poldrack-single-stim","31","87842","0.0-5.0-26.0","pilot-40_ses-03_1","","1900","0","probe","","<div class = centerbox><div class = img-container><img src = ""/static/experiments/dot_pattern_expectancy/images/probe1.png""</img></div></div>","89,71","500","practice","AX","6","89","true",""
"-1","-1","poldrack-single-stim","32","88354","0.0-5.0-27.0","pilot-40_ses-03_1","","500","0","feedback","","<div class = centerbox><div style=""color:#4FE829""; class = center-text>Correct!</div></div>","none","500","practice","","7","","",""
"-1","-1","poldrack-single-stim","33","88872","0.0-5.0-28.0","pilot-40_ses-03_1","","500","0","cue","","<div class = centerbox><div class = img-container><img src = ""/static/experiments/dot_pattern_expectancy/images/cue4.png""</img></div></div>","none","500","practice","AY","7","","",""
"-1","-1","poldrack-single-stim","34","90893","0.0-5.0-29.0","pilot-40_ses-03_1","","2000","0","fixation","","<div class = centerbox><div class = fixation>+</div></div>","none","2000","practice","","","","",""
"1018","71","poldrack-single-stim","35","92411","0.0-5.0-30.0","pilot-40_ses-03_1","","1500","0","probe","","<div class = centerbox><div class = img-container><img src = ""/static/experiments/dot_pattern_expectancy/images/probe5.png""</img></div></div>","89,71","500","practice","AY","7","71","true",""
"-1","-1","poldrack-single-stim","36","92933","0.0-5.0-31.0","pilot-40_ses-03_1","","500","0","feedback","","<div class = centerbox><div style=""color:#4FE829""; class = center-text>Correct!</div></div>","none","500","practice","","8","","",""
"-1","-1","poldrack-single-stim","37","93454","0.0-5.0-32.0","pilot-40_ses-03_1","","500","0","cue","","<div class = centerbox><div class = img-container><img src = ""/static/experiments/dot_pattern_expectancy/images/cue3.png""</img></div></div>","none","500","practice","BY","8","","",""
"-1","-1","poldrack-single-stim","38","95472","0.0-5.0-33.0","pilot-40_ses-03_1","","2000","0","fixation","","<div class = centerbox><div class = fixation>+</div></div>","none","2000","practice","","","","",""
"1025","71","poldrack-single-stim","39","96992","0.0-5.0-34.0","pilot-40_ses-03_1","","1500","0","probe","","<div class = centerbox><div class = img-container><img src = ""/static/experiments/dot_pattern_expectancy/images/probe6.png""</img></div></div>","89,71","500","practice","BY","8","71","true",""
"-1","-1","poldrack-single-stim","40","97501","0.0-5.0-35.0","pilot-40_ses-03_1","","500","0","feedback","","<div class = centerbox><div style=""color:#4FE829""; class = center-text>Correct!</div></div>","none","500","practice","","9","","",""
"-1","-1","poldrack-single-stim","41","98022","0.0-5.0-36.0","pilot-40_ses-03_1","","500","0","cue","","<div class = centerbox><div class = img-container><img src = ""/static/experiments/dot_pattern_expectancy/images/cue4.png""</img></div></div>","none","500","practice","AX","9","","",""
"-1","-1","poldrack-single-stim","42","100043","0.0-5.0-37.0","pilot-40_ses-03_1","","2000","0","fixation","","<div class = centerbox><div class = fixation>+</div></div>","none","2000","practice","","","","",""
"908","89","poldrack-single-stim","43","101563","0.0-5.0-38.0","pilot-40_ses-03_1","","1500","0","probe","","<div class = centerbox><div class = img-container><img src = ""/static/experiments/dot_pattern_expectancy/images/probe1.png""</img></div></div>","89,71","500","practice","AX","9","89","true",""
"-1","-1","poldrack-single-stim","44","102082","0.0-5.0-39.0","pilot-40_ses-03_1","","500","0","feedback","","<div class = centerbox><div style=""color:#4FE829""; class = center-text>Correct!</div></div>","none","500","practice","","10","","",""
"2518","32","poldrack-text","45","104604","0.0-6.0","pilot-40_ses-03_1","<div class = centerbox><div  class = center-text>Scanner Setup</div></div>","2518","0","fmri_scanner_wait","","","","","","","","","",""
"57497","84","poldrack-text","46","162105","0.0-7.0","pilot-40_ses-03_1","<div class = centerbox><div style='color:red'; class = center-text>+</div></div>","57497","0","fmri_trigger_wait","","","","","","","","","",""
"-1","-1","poldrack-single-stim","47","163113","0.0-8.0","pilot-40_ses-03_1","","1000","0","fmri_buffer","","","none","1000","","","","","",""
"-1","-1","poldrack-single-stim","48","164624","0.0-9.0","pilot-40_ses-03_1","","1500","500","test_start_block","","<div class = centerbox><div class = center-text>Preparez-vous!</p></div>","none","1500","","","","","",""
"-1","-1","poldrack-single-stim","49","165653","0.0-10.0","pilot-40_ses-03_1","","500","0","cue","","<div class = centerbox><div class = img-container><img src = ""/static/experiments/dot_pattern_expectancy/images/cue1.png""</img></div></div>","none","500","test","BY","0","","",""
"-1","-1","poldrack-single-stim","50","167673","0.0-11.0","pilot-40_ses-03_1","","2000","0","fixation","","<div class = centerbox><div class = fixation>+</div></div>","none","2000","test","","","","",""
"885","71","poldrack-single-stim","51","169333","0.0-12.0","pilot-40_ses-03_1","","1636","0","probe","","<div class = centerbox><div class = img-container><img src = ""/static/experiments/dot_pattern_expectancy/images/probe2.png""</img></div></div>","89,71","500","test","BY","0","71","true",""
"-1","-1","poldrack-single-stim","52","169852","0.0-13.0","pilot-40_ses-03_1","","500","0","cue","","<div class = centerbox><div class = img-container><img src = ""/static/experiments/dot_pattern_expectancy/images/cue4.png""</img></div></div>","none","500","test","AY","1","","",""
"-1","-1","poldrack-single-stim","53","171873","0.0-14.0","pilot-40_ses-03_1","","2000","0","fixation","","<div class = centerbox><div class = fixation>+</div></div>","none","2000","test","","","","",""
"827","71","poldrack-single-stim","54","173383","0.0-15.0","pilot-40_ses-03_1","","1500","0","probe","","<div class = centerbox><div class = img-container><img src = ""/static/experiments/dot_pattern_expectancy/images/probe4.png""</img></div></div>","89,71","500","test","AY","1","71","true",""
"-1","-1","poldrack-single-stim","55","173892","0.0-16.0","pilot-40_ses-03_1","","500","0","cue","","<div class = centerbox><div class = img-container><img src = ""/static/experiments/dot_pattern_expectancy/images/cue4.png""</img></div></div>","none","500","test","AX","2","","",""
"-1","-1","poldrack-single-stim","56","175912","0.0-17.0","pilot-40_ses-03_1","","2000","0","fixation","","<div class = centerbox><div class = fixation>+</div></div>","none","2000","test","","","","",""
"616","89","poldrack-single-stim","57","177971","0.0-18.0","pilot-40_ses-03_1","","2044","0","probe","","<div class = centerbox><div class = img-container><img src = ""/static/experiments/dot_pattern_expectancy/images/probe1.png""</img></div></div>","89,71","500","test","AX","2","89","true",""
"-1","-1","poldrack-single-stim","58","178483","0.0-19.0","pilot-40_ses-03_1","","500","0","cue","","<div class = centerbox><div class = img-container><img src = ""/static/experiments/dot_pattern_expectancy/images/cue1.png""</img></div></div>","none","500","test","BY","3","","",""
"-1","-1","poldrack-single-stim","59","180502","0.0-20.0","pilot-40_ses-03_1","","2000","0","fixation","","<div class = centerbox><div class = fixation>+</div></div>","none","2000","test","","","","",""
"892","71","poldrack-single-stim","60","182292","0.0-21.0","pilot-40_ses-03_1","","1772","0","probe","","<div class = centerbox><div class = img-container><img src = ""/static/experiments/dot_pattern_expectancy/images/probe4.png""</img></div></div>","89,71","500","test","BY","3","71","true",""
"-1","-1","poldrack-single-stim","61","182812","0.0-22.0","pilot-40_ses-03_1","","500","0","cue","","<div class = centerbox><div class = img-container><img src = ""/static/experiments/dot_pattern_expectancy/images/cue6.png""</img></div></div>","none","500","test","BX","4","","",""
"-1","-1","poldrack-single-stim","62","184833","0.0-23.0","pilot-40_ses-03_1","","2000","0","fixation","","<div class = centerbox><div class = fixation>+</div></div>","none","2000","test","","","","",""
"539","89","poldrack-single-stim","63","186492","0.0-24.0","pilot-40_ses-03_1","","1636","0","probe","","<div class = centerbox><div class = img-container><img src = ""/static/experiments/dot_pattern_expectancy/images/probe1.png""</img></div></div>","89,71","500","test","BX","4","71","false",""
"-1","-1","poldrack-single-stim","64","187014","0.0-25.0","pilot-40_ses-03_1","","500","0","cue","","<div class = centerbox><div class = img-container><img src = ""/static/experiments/dot_pattern_expectancy/images/cue4.png""</img></div></div>","none","500","test","AX","5","","",""
"-1","-1","poldrack-single-stim","65","189033","0.0-26.0","pilot-40_ses-03_1","","2000","0","fixation","","<div class = centerbox><div class = fixation>+</div></div>","none","2000","test","","","","",""
"529","89","poldrack-single-stim","66","190671","0.0-27.0","pilot-40_ses-03_1","","1636","0","probe","","<div class = centerbox><div class = img-container><img src = ""/static/experiments/dot_pattern_expectancy/images/probe1.png""</img></div></div>","89,71","500","test","AX","5","89","true",""
"-1","-1","poldrack-single-stim","67","191193","0.0-28.0","pilot-40_ses-03_1","","500","0","cue","","<div class = centerbox><div class = img-container><img src = ""/static/experiments/dot_pattern_expectancy/images/cue4.png""</img></div></div>","none","500","test","AX","6","","",""
"-1","-1","poldrack-single-stim","68","193213","0.0-29.0","pilot-40_ses-03_1","","2000","0","fixation","","<div class = centerbox><div class = fixation>+</div></div>","none","2000","test","","","","",""
"778","89","poldrack-single-stim","69","194733","0.0-30.0","pilot-40_ses-03_1","","1500","0","probe","","<div class = centerbox><div class = img-container><img src = ""/static/experiments/dot_pattern_expectancy/images/probe1.png""</img></div></div>","89,71","500","test","AX","6","89","true",""
"-1","-1","poldrack-single-stim","70","195253","0.0-31.0","pilot-40_ses-03_1","","500","0","cue","","<div class = centerbox><div class = img-container><img src = ""/static/experiments/dot_pattern_expectancy/images/cue4.png""</img></div></div>","none","500","test","AX","7","","",""
"-1","-1","poldrack-single-stim","71","197274","0.0-32.0","pilot-40_ses-03_1","","2000","0","fixation","","<div class = centerbox><div class = fixation>+</div></div>","none","2000","test","","","","",""
"609","89","poldrack-single-stim","72","198781","0.0-33.0","pilot-40_ses-03_1","","1500","0","probe","","<div class = centerbox><div class = img-container><img src = ""/static/experiments/dot_pattern_expectancy/images/probe1.png""</img></div></div>","89,71","500","test","AX","7","89","true",""
"-1","-1","poldrack-single-stim","73","199303","0.0-34.0","pilot-40_ses-03_1","","500","0","cue","","<div class = centerbox><div class = img-container><img src = ""/static/experiments/dot_pattern_expectancy/images/cue4.png""</img></div></div>","none","500","test","AY","8","","",""
"-1","-1","poldrack-single-stim","74","201323","0.0-35.0","pilot-40_ses-03_1","","2000","0","fixation","","<div class = centerbox><div class = fixation>+</div></div>","none","2000","test","","","","",""
"656","71","poldrack-single-stim","75","203372","0.0-36.0","pilot-40_ses-03_1","","2044","0","probe","","<div class = centerbox><div class = img-container><img src = ""/static/experiments/dot_pattern_expectancy/images/probe5.png""</img></div></div>","89,71","500","test","AY","8","71","true",""
"-1","-1","poldrack-single-stim","76","203893","0.0-37.0","pilot-40_ses-03_1","","500","0","cue","","<div class = centerbox><div class = img-container><img src = ""/static/experiments/dot_pattern_expectancy/images/cue4.png""</img></div></div>","none","500","test","AX","9","","",""
"-1","-1","poldrack-single-stim","77","205912","0.0-38.0","pilot-40_ses-03_1","","2000","0","fixation","","<div class = centerbox><div class = fixation>+</div></div>","none","2000","test","","","","",""
"661","89","poldrack-single-stim","78","208372","0.0-39.0","pilot-40_ses-03_1","","2452","0","probe","","<div class = centerbox><div class = img-container><img src = ""/static/experiments/dot_pattern_expectancy/images/probe1.png""</img></div></div>","89,71","500","test","AX","9","89","true",""
"-1","-1","poldrack-single-stim","79","208892","0.0-40.0","pilot-40_ses-03_1","","500","0","cue","","<div class = centerbox><div class = img-container><img src = ""/static/experiments/dot_pattern_expectancy/images/cue4.png""</img></div></div>","none","500","test","AX","10","","",""
"-1","-1","poldrack-single-stim","80","210913","0.0-41.0","pilot-40_ses-03_1","","2000","0","fixation","","<div class = centerbox><div class = fixation>+</div></div>","none","2000","test","","","","",""
"640","89","poldrack-single-stim","81","212843","0.0-42.0","pilot-40_ses-03_1","","1908","0","probe","","<div class = centerbox><div class = img-container><img src = ""/static/experiments/dot_pattern_expectancy/images/probe1.png""</img></div></div>","89,71","500","test","AX","10","89","true",""
"-1","-1","poldrack-single-stim","82","213364","0.0-43.0","pilot-40_ses-03_1","","500","0","cue","","<div class = centerbox><div class = img-container><img src = ""/static/experiments/dot_pattern_expectancy/images/cue4.png""</img></div></div>","none","500","test","AX","11","","",""
"-1","-1","poldrack-single-stim","83","215373","0.0-44.0","pilot-40_ses-03_1","","2000","0","fixation","","<div class = centerbox><div class = fixation>+</div></div>","none","2000","test","","","","",""
"600","89","poldrack-single-stim","84","216882","0.0-45.0","pilot-40_ses-03_1","","1500","0","probe","","<div class = centerbox><div class = img-container><img src = ""/static/experiments/dot_pattern_expectancy/images/probe1.png""</img></div></div>","89,71","500","test","AX","11","89","true",""
"-1","-1","poldrack-single-stim","85","217424","0.0-46.0","pilot-40_ses-03_1","","500","0","cue","","<div class = centerbox><div class = img-container><img src = ""/static/experiments/dot_pattern_expectancy/images/cue4.png""</img></div></div>","none","500","test","AX","12","","",""
"-1","-1","poldrack-single-stim","86","219443","0.0-47.0","pilot-40_ses-03_1","","2000","0","fixation","","<div class = centerbox><div class = fixation>+</div></div>","none","2000","test","","","","",""
"583","89","poldrack-single-stim","87","221362","0.0-48.0","pilot-40_ses-03_1","","1908","0","probe","","<div class = centerbox><div class = img-container><img src = ""/static/experiments/dot_pattern_expectancy/images/probe1.png""</img></div></div>","89,71","500","test","AX","12","89","true",""
"-1","-1","poldrack-single-stim","88","221882","0.0-49.0","pilot-40_ses-03_1","","500","0","cue","","<div class = centerbox><div class = img-container><img src = ""/static/experiments/dot_pattern_expectancy/images/cue2.png""</img></div></div>","none","500","test","BX","13","","",""
"-1","-1","poldrack-single-stim","89","223902","0.0-50.0","pilot-40_ses-03_1","","2000","0","fixation","","<div class = centerbox><div class = fixation>+</div></div>","none","2000","test","","","","",""
"712","71","poldrack-single-stim","90","226101","0.0-51.0","pilot-40_ses-03_1","","2180","0","probe","","<div class = centerbox><div class = img-container><img src = ""/static/experiments/dot_pattern_expectancy/images/probe1.png""</img></div></div>","89,71","500","test","BX","13","71","true",""
"-1","-1","poldrack-single-stim","91","226623","0.0-52.0","pilot-40_ses-03_1","","500","0","cue","","<div class = centerbox><div class = img-container><img src = ""/static/experiments/dot_pattern_expectancy/images/cue4.png""</img></div></div>","none","500","test","AX","14","","",""
"-1","-1","poldrack-single-stim","92","228643","0.0-53.0","pilot-40_ses-03_1","","2000","0","fixation","","<div class = centerbox><div class = fixation>+</div></div>","none","2000","test","","","","",""
"607","89","poldrack-single-stim","93","230161","0.0-54.0","pilot-40_ses-03_1","","1500","0","probe","","<div class = centerbox><div class = img-container><img src = ""/static/experiments/dot_pattern_expectancy/images/probe1.png""</img></div></div>","89,71","500","test","AX","14","89","true",""
"-1","-1","poldrack-single-stim","94","230682","0.0-55.0","pilot-40_ses-03_1","","500","0","cue","","<div class = centerbox><div class = img-container><img src = ""/static/experiments/dot_pattern_expectancy/images/cue6.png""</img></div></div>","none","500","test","BY","15","","",""
"-1","-1","poldrack-single-stim","95","232703","0.0-56.0","pilot-40_ses-03_1","","2000","0","fixation","","<div class = centerbox><div class = fixation>+</div></div>","none","2000","test","","","","",""
"658","71","poldrack-single-stim","96","234623","0.0-57.0","pilot-40_ses-03_1","","1908","0","probe","","<div class = centerbox><div class = img-container><img src = ""/static/experiments/dot_pattern_expectancy/images/probe3.png""</img></div></div>","89,71","500","test","BY","15","71","true",""
"-1","-1","poldrack-single-stim","97","235143","0.0-58.0","pilot-40_ses-03_1","","500","0","cue","","<div class = centerbox><div class = img-container><img src = ""/static/experiments/dot_pattern_expectancy/images/cue1.png""</img></div></div>","none","500","test","BX","16","","",""
"-1","-1","poldrack-single-stim","98","237162","0.0-59.0","pilot-40_ses-03_1","","2000","0","fixation","","<div class = centerbox><div class = fixation>+</div></div>","none","2000","test","","","","",""
"529","71","poldrack-single-stim","99","239482","0.0-60.0","pilot-40_ses-03_1","","2316","0","probe","","<div class = centerbox><div class = img-container><img src = ""/static/experiments/dot_pattern_expectancy/images/probe1.png""</img></div></div>","89,71","500","test","BX","16","71","true",""
"-1","-1","poldrack-single-stim","100","239993","0.0-61.0","pilot-40_ses-03_1","","500","0","cue","","<div class = centerbox><div class = img-container><img src = ""/static/experiments/dot_pattern_expectancy/images/cue4.png""</img></div></div>","none","500","test","AY","17","","",""
"-1","-1","poldrack-single-stim","101","242002","0.0-62.0","pilot-40_ses-03_1","","2000","0","fixation","","<div class = centerbox><div class = fixation>+</div></div>","none","2000","test","","","","",""
"617","71","poldrack-single-stim","102","244332","0.0-63.0","pilot-40_ses-03_1","","2316","0","probe","","<div class = centerbox><div class = img-container><img src = ""/static/experiments/dot_pattern_expectancy/images/probe5.png""</img></div></div>","89,71","500","test","AY","17","71","true",""
"-1","-1","poldrack-single-stim","103","244853","0.0-64.0","pilot-40_ses-03_1","","500","0","cue","","<div class = centerbox><div class = img-container><img src = ""/static/experiments/dot_pattern_expectancy/images/cue6.png""</img></div></div>","none","500","test","BX","18","","",""
"-1","-1","poldrack-single-stim","104","246863","0.0-65.0","pilot-40_ses-03_1","","2000","0","fixation","","<div class = centerbox><div class = fixation>+</div></div>","none","2000","test","","","","",""
"627","71","poldrack-single-stim","105","248521","0.0-66.0","pilot-40_ses-03_1","","1636","0","probe","","<div class = centerbox><div class = img-container><img src = ""/static/experiments/dot_pattern_expectancy/images/probe1.png""</img></div></div>","89,71","500","test","BX","18","71","true",""
"-1","-1","poldrack-single-stim","106","249042","0.0-67.0","pilot-40_ses-03_1","","500","0","cue","","<div class = centerbox><div class = img-container><img src = ""/static/experiments/dot_pattern_expectancy/images/cue4.png""</img></div></div>","none","500","test","AY","19","","",""
"-1","-1","poldrack-single-stim","107","251063","0.0-68.0","pilot-40_ses-03_1","","2000","0","fixation","","<div class = centerbox><div class = fixation>+</div></div>","none","2000","test","","","","",""
"707","71","poldrack-single-stim","108","252582","0.0-69.0","pilot-40_ses-03_1","","1500","0","probe","","<div class = centerbox><div class = img-container><img src = ""/static/experiments/dot_pattern_expectancy/images/probe6.png""</img></div></div>","89,71","500","test","AY","19","71","true",""
"-1","-1","poldrack-single-stim","109","253102","0.0-70.0","pilot-40_ses-03_1","","500","0","cue","","<div class = centerbox><div class = img-container><img src = ""/static/experiments/dot_pattern_expectancy/images/cue2.png""</img></div></div>","none","500","test","BY","20","","",""
"-1","-1","poldrack-single-stim","110","255121","0.0-71.0","pilot-40_ses-03_1","","2000","0","fixation","","<div class = centerbox><div class = fixation>+</div></div>","none","2000","test","","","","",""
"848","71","poldrack-single-stim","111","257031","0.0-72.0","pilot-40_ses-03_1","","1908","0","probe","","<div class = centerbox><div class = img-container><img src = ""/static/experiments/dot_pattern_expectancy/images/probe2.png""</img></div></div>","89,71","500","test","BY","20","71","true",""
"-1","-1","poldrack-single-stim","112","257552","0.0-73.0","pilot-40_ses-03_1","","500","0","cue","","<div class = centerbox><div class = img-container><img src = ""/static/experiments/dot_pattern_expectancy/images/cue4.png""</img></div></div>","none","500","test","AX","21","","",""
"-1","-1","poldrack-single-stim","113","259575","0.0-74.0","pilot-40_ses-03_1","","2000","0","fixation","","<div class = centerbox><div class = fixation>+</div></div>","none","2000","test","","","","",""
"670","89","poldrack-single-stim","114","261092","0.0-75.0","pilot-40_ses-03_1","","1500","0","probe","","<div class = centerbox><div class = img-container><img src = ""/static/experiments/dot_pattern_expectancy/images/probe1.png""</img></div></div>","89,71","500","test","AX","21","89","true",""
"-1","-1","poldrack-single-stim","115","261612","0.0-76.0","pilot-40_ses-03_1","","500","0","cue","","<div class = centerbox><div class = img-container><img src = ""/static/experiments/dot_pattern_expectancy/images/cue4.png""</img></div></div>","none","500","test","AY","22","","",""
"-1","-1","poldrack-single-stim","116","263632","0.0-77.0","pilot-40_ses-03_1","","2000","0","fixation","","<div class = centerbox><div class = fixation>+</div></div>","none","2000","test","","","","",""
"699","71","poldrack-single-stim","117","265953","0.0-78.0","pilot-40_ses-03_1","","2316","0","probe","","<div class = centerbox><div class = img-container><img src = ""/static/experiments/dot_pattern_expectancy/images/probe4.png""</img></div></div>","89,71","500","test","AY","22","71","true",""
"-1","-1","poldrack-single-stim","118","266473","0.0-79.0","pilot-40_ses-03_1","","500","0","cue","","<div class = centerbox><div class = img-container><img src = ""/static/experiments/dot_pattern_expectancy/images/cue4.png""</img></div></div>","none","500","test","AX","23","","",""
"-1","-1","poldrack-single-stim","119","268497","0.0-80.0","pilot-40_ses-03_1","","2000","0","fixation","","<div class = centerbox><div class = fixation>+</div></div>","none","2000","test","","","","",""
"598","89","poldrack-single-stim","120","270003","0.0-81.0","pilot-40_ses-03_1","","1500","0","probe","","<div class = centerbox><div class = img-container><img src = ""/static/experiments/dot_pattern_expectancy/images/probe1.png""</img></div></div>","89,71","500","test","AX","23","89","true",""
"-1","-1","poldrack-single-stim","121","270525","0.0-82.0","pilot-40_ses-03_1","","500","0","cue","","<div class = centerbox><div class = img-container><img src = ""/static/experiments/dot_pattern_expectancy/images/cue4.png""</img></div></div>","none","500","test","AY","24","","",""
"-1","-1","poldrack-single-stim","122","272542","0.0-83.0","pilot-40_ses-03_1","","2000","0","fixation","","<div class = centerbox><div class = fixation>+</div></div>","none","2000","test","","","","",""
"533","71","poldrack-single-stim","123","275282","0.0-84.0","pilot-40_ses-03_1","","2724","0","probe","","<div class = centerbox><div class = img-container><img src = ""/static/experiments/dot_pattern_expectancy/images/probe5.png""</img></div></div>","89,71","500","test","AY","24","71","true",""
"-1","-1","poldrack-single-stim","124","275802","0.0-85.0","pilot-40_ses-03_1","","500","0","cue","","<div class = centerbox><div class = img-container><img src = ""/static/experiments/dot_pattern_expectancy/images/cue4.png""</img></div></div>","none","500","test","AX","25","","",""
"-1","-1","poldrack-single-stim","125","277823","0.0-86.0","pilot-40_ses-03_1","","2000","0","fixation","","<div class = centerbox><div class = fixation>+</div></div>","none","2000","test","","","","",""
"618","89","poldrack-single-stim","126","279342","0.0-87.0","pilot-40_ses-03_1","","1500","0","probe","","<div class = centerbox><div class = img-container><img src = ""/static/experiments/dot_pattern_expectancy/images/probe1.png""</img></div></div>","89,71","500","test","AX","25","89","true",""
"-1","-1","poldrack-single-stim","127","279863","0.0-88.0","pilot-40_ses-03_1","","500","0","cue","","<div class = centerbox><div class = img-container><img src = ""/static/experiments/dot_pattern_expectancy/images/cue4.png""</img></div></div>","none","500","test","AX","26","","",""
"-1","-1","poldrack-single-stim","128","281882","0.0-89.0","pilot-40_ses-03_1","","2000","0","fixation","","<div class = centerbox><div class = fixation>+</div></div>","none","2000","test","","","","",""
"684","89","poldrack-single-stim","129","283532","0.0-90.0","pilot-40_ses-03_1","","1636","0","probe","","<div class = centerbox><div class = img-container><img src = ""/static/experiments/dot_pattern_expectancy/images/probe1.png""</img></div></div>","89,71","500","test","AX","26","89","true",""
"-1","-1","poldrack-single-stim","130","284053","0.0-91.0","pilot-40_ses-03_1","","500","0","cue","","<div class = centerbox><div class = img-container><img src = ""/static/experiments/dot_pattern_expectancy/images/cue4.png""</img></div></div>","none","500","test","AX","27","","",""
"-1","-1","poldrack-single-stim","131","286063","0.0-92.0","pilot-40_ses-03_1","","2000","0","fixation","","<div class = centerbox><div class = fixation>+</div></div>","none","2000","test","","","","",""
"592","89","poldrack-single-stim","132","287701","0.0-93.0","pilot-40_ses-03_1","","1636","0","probe","","<div class = centerbox><div class = img-container><img src = ""/static/experiments/dot_pattern_expectancy/images/probe1.png""</img></div></div>","89,71","500","test","AX","27","89","true",""
"-1","-1","poldrack-single-stim","133","288223","0.0-94.0","pilot-40_ses-03_1","","500","0","cue","","<div class = centerbox><div class = img-container><img src = ""/static/experiments/dot_pattern_expectancy/images/cue4.png""</img></div></div>","none","500","test","AX","28","","",""
"-1","-1","poldrack-single-stim","134","290243","0.0-95.0","pilot-40_ses-03_1","","2000","0","fixation","","<div class = centerbox><div class = fixation>+</div></div>","none","2000","test","","","","",""
"619","89","poldrack-single-stim","135","292020","0.0-96.0","pilot-40_ses-03_1","","1772","0","probe","","<div class = centerbox><div class = img-container><img src = ""/static/experiments/dot_pattern_expectancy/images/probe1.png""</img></div></div>","89,71","500","test","AX","28","89","true",""
"-1","-1","poldrack-single-stim","136","292542","0.0-97.0","pilot-40_ses-03_1","","500","0","cue","","<div class = centerbox><div class = img-container><img src = ""/static/experiments/dot_pattern_expectancy/images/cue2.png""</img></div></div>","none","500","test","BY","29","","",""
"-1","-1","poldrack-single-stim","137","294562","0.0-98.0","pilot-40_ses-03_1","","2000","0","fixation","","<div class = centerbox><div class = fixation>+</div></div>","none","2000","test","","","","",""
"588","71","poldrack-single-stim","138","296342","0.0-99.0","pilot-40_ses-03_1","","1772","0","probe","","<div class = centerbox><div class = img-container><img src = ""/static/experiments/dot_pattern_expectancy/images/probe5.png""</img></div></div>","89,71","500","test","BY","29","71","true",""
"-1","-1","poldrack-single-stim","139","296863","0.0-100.0","pilot-40_ses-03_1","","500","0","cue","","<div class = centerbox><div class = img-container><img src = ""/static/experiments/dot_pattern_expectancy/images/cue4.png""</img></div></div>","none","500","test","AX","30","","",""
"-1","-1","poldrack-single-stim","140","298882","0.0-101.0","pilot-40_ses-03_1","","2000","0","fixation","","<div class = centerbox><div class = fixation>+</div></div>","none","2000","test","","","","",""
"598","89","poldrack-single-stim","141","300402","0.0-102.0","pilot-40_ses-03_1","","1500","0","probe","","<div class = centerbox><div class = img-container><img src = ""/static/experiments/dot_pattern_expectancy/images/probe1.png""</img></div></div>","89,71","500","test","AX","30","89","true",""
"-1","-1","poldrack-single-stim","142","300913","0.0-103.0","pilot-40_ses-03_1","","500","0","cue","","<div class = centerbox><div class = img-container><img src = ""/static/experiments/dot_pattern_expectancy/images/cue1.png""</img></div></div>","none","500","test","BY","31","","",""
"-1","-1","poldrack-single-stim","143","302923","0.0-104.0","pilot-40_ses-03_1","","2000","0","fixation","","<div class = centerbox><div class = fixation>+</div></div>","none","2000","test","","","","",""
"474","71","poldrack-single-stim","144","305383","0.0-105.0","pilot-40_ses-03_1","","2452","0","probe","","<div class = centerbox><div class = img-container><img src = ""/static/experiments/dot_pattern_expectancy/images/probe4.png""</img></div></div>","89,71","500","test","BY","31","71","true",""
"-1","-1","poldrack-single-stim","145","305903","0.0-106.0","pilot-40_ses-03_1","","500","0","cue","","<div class = centerbox><div class = img-container><img src = ""/static/experiments/dot_pattern_expectancy/images/cue4.png""</img></div></div>","none","500","test","AX","32","","",""
"-1","-1","poldrack-single-stim","146","307923","0.0-107.0","pilot-40_ses-03_1","","2000","0","fixation","","<div class = centerbox><div class = fixation>+</div></div>","none","2000","test","","","","",""
"514","89","poldrack-single-stim","147","309573","0.0-108.0","pilot-40_ses-03_1","","1636","0","probe","","<div class = centerbox><div class = img-container><img src = ""/static/experiments/dot_pattern_expectancy/images/probe1.png""</img></div></div>","89,71","500","test","AX","32","89","true",""
"-1","-1","poldrack-single-stim","148","310083","0.0-109.0","pilot-40_ses-03_1","","500","0","cue","","<div class = centerbox><div class = img-container><img src = ""/static/experiments/dot_pattern_expectancy/images/cue4.png""</img></div></div>","none","500","test","AX","33","","",""
"-1","-1","poldrack-single-stim","149","312111","0.0-110.0","pilot-40_ses-03_1","","2000","0","fixation","","<div class = centerbox><div class = fixation>+</div></div>","none","2000","test","","","","",""
"539","89","poldrack-single-stim","150","313763","0.0-111.0","pilot-40_ses-03_1","","1636","0","probe","","<div class = centerbox><div class = img-container><img src = ""/static/experiments/dot_pattern_expectancy/images/probe1.png""</img></div></div>","89,71","500","test","AX","33","89","true",""
"-1","-1","poldrack-single-stim","151","314283","0.0-112.0","pilot-40_ses-03_1","","500","0","cue","","<div class = centerbox><div class = img-container><img src = ""/static/experiments/dot_pattern_expectancy/images/cue3.png""</img></div></div>","none","500","test","BX","34","","",""
"-1","-1","poldrack-single-stim","152","316294","0.0-113.0","pilot-40_ses-03_1","","2000","0","fixation","","<div class = centerbox><div class = fixation>+</div></div>","none","2000","test","","","","",""
"428","71","poldrack-single-stim","153","317812","0.0-114.0","pilot-40_ses-03_1","","1500","0","probe","","<div class = centerbox><div class = img-container><img src = ""/static/experiments/dot_pattern_expectancy/images/probe1.png""</img></div></div>","89,71","500","test","BX","34","71","true",""
"-1","-1","poldrack-single-stim","154","318333","0.0-115.0","pilot-40_ses-03_1","","500","0","cue","","<div class = centerbox><div class = img-container><img src = ""/static/experiments/dot_pattern_expectancy/images/cue5.png""</img></div></div>","none","500","test","BX","35","","",""
"-1","-1","poldrack-single-stim","155","320345","0.0-116.0","pilot-40_ses-03_1","","2000","0","fixation","","<div class = centerbox><div class = fixation>+</div></div>","none","2000","test","","","","",""
"470","71","poldrack-single-stim","156","321852","0.0-117.0","pilot-40_ses-03_1","","1500","0","probe","","<div class = centerbox><div class = img-container><img src = ""/static/experiments/dot_pattern_expectancy/images/probe1.png""</img></div></div>","89,71","500","test","BX","35","71","true",""
"-1","-1","poldrack-single-stim","157","322363","0.0-118.0","pilot-40_ses-03_1","","500","0","cue","","<div class = centerbox><div class = img-container><img src = ""/static/experiments/dot_pattern_expectancy/images/cue4.png""</img></div></div>","none","500","test","AX","36","","",""
"-1","-1","poldrack-single-stim","158","324383","0.0-119.0","pilot-40_ses-03_1","","2000","0","fixation","","<div class = centerbox><div class = fixation>+</div></div>","none","2000","test","","","","",""
"569","89","poldrack-single-stim","159","326702","0.0-120.0","pilot-40_ses-03_1","","2316","0","probe","","<div class = centerbox><div class = img-container><img src = ""/static/experiments/dot_pattern_expectancy/images/probe1.png""</img></div></div>","89,71","500","test","AX","36","89","true",""
"-1","-1","poldrack-single-stim","160","327223","0.0-121.0","pilot-40_ses-03_1","","500","0","cue","","<div class = centerbox><div class = img-container><img src = ""/static/experiments/dot_pattern_expectancy/images/cue4.png""</img></div></div>","none","500","test","AY","37","","",""
"-1","-1","poldrack-single-stim","161","329243","0.0-122.0","pilot-40_ses-03_1","","2000","0","fixation","","<div class = centerbox><div class = fixation>+</div></div>","none","2000","test","","","","",""
"586","71","poldrack-single-stim","162","331302","0.0-123.0","pilot-40_ses-03_1","","2044","0","probe","","<div class = centerbox><div class = img-container><img src = ""/static/experiments/dot_pattern_expectancy/images/probe4.png""</img></div></div>","89,71","500","test","AY","37","71","true",""
"-1","-1","poldrack-single-stim","163","331822","0.0-124.0","pilot-40_ses-03_1","","500","0","cue","","<div class = centerbox><div class = img-container><img src = ""/static/experiments/dot_pattern_expectancy/images/cue4.png""</img></div></div>","none","500","test","AX","38","","",""
"-1","-1","poldrack-single-stim","164","333843","0.0-125.0","pilot-40_ses-03_1","","2000","0","fixation","","<div class = centerbox><div class = fixation>+</div></div>","none","2000","test","","","","",""
"942","89","poldrack-single-stim","165","337816","0.0-126.0","pilot-40_ses-03_1","","3948","0","probe","","<div class = centerbox><div class = img-container><img src = ""/static/experiments/dot_pattern_expectancy/images/probe1.png""</img></div></div>","89,71","500","test","AX","38","89","true",""
"-1","-1","poldrack-single-stim","166","338325","0.0-127.0","pilot-40_ses-03_1","","500","0","cue","","<div class = centerbox><div class = img-container><img src = ""/static/experiments/dot_pattern_expectancy/images/cue4.png""</img></div></div>","none","500","test","AX","39","","",""
"-1","-1","poldrack-single-stim","167","340333","0.0-128.0","pilot-40_ses-03_1","","2000","0","fixation","","<div class = centerbox><div class = fixation>+</div></div>","none","2000","test","","","","",""
"516","89","poldrack-single-stim","168","341982","0.0-129.0","pilot-40_ses-03_1","","1636","0","probe","","<div class = centerbox><div class = img-container><img src = ""/static/experiments/dot_pattern_expectancy/images/probe1.png""</img></div></div>","89,71","500","test","AX","39","89","true",""
"-1","-1","poldrack-single-stim","169","349503","0.0-130.0","pilot-40_ses-03_1","","7500","1000","rest_block","","<div class = centerbox><div class = center-text>+</div></div>","none","7500","","","","","",""
"-1","-1","poldrack-single-stim","170","352042","0.0-131.0","pilot-40_ses-03_1","","1500","500","test_start_block","","<div class = centerbox><div class = center-text>Preparez-vous!</p></div>","none","1500","","","","","",""
"-1","-1","poldrack-single-stim","171","353083","0.0-132.0","pilot-40_ses-03_1","","500","0","cue","","<div class = centerbox><div class = img-container><img src = ""/static/experiments/dot_pattern_expectancy/images/cue4.png""</img></div></div>","none","500","test","AY","0","","",""
"-1","-1","poldrack-single-stim","172","355095","0.0-133.0","pilot-40_ses-03_1","","2000","0","fixation","","<div class = centerbox><div class = fixation>+</div></div>","none","2000","test","","","","",""
"663","71","poldrack-single-stim","173","356753","0.0-134.0","pilot-40_ses-03_1","","1636","0","probe","","<div class = centerbox><div class = img-container><img src = ""/static/experiments/dot_pattern_expectancy/images/probe6.png""</img></div></div>","89,71","500","test","AY","0","71","true",""
"-1","-1","poldrack-single-stim","174","357272","0.0-135.0","pilot-40_ses-03_1","","500","0","cue","","<div class = centerbox><div class = img-container><img src = ""/static/experiments/dot_pattern_expectancy/images/cue4.png""</img></div></div>","none","500","test","AX","1","","",""
"-1","-1","poldrack-single-stim","175","359294","0.0-136.0","pilot-40_ses-03_1","","2000","0","fixation","","<div class = centerbox><div class = fixation>+</div></div>","none","2000","test","","","","",""
"534","89","poldrack-single-stim","176","360932","0.0-137.0","pilot-40_ses-03_1","","1636","0","probe","","<div class = centerbox><div class = img-container><img src = ""/static/experiments/dot_pattern_expectancy/images/probe1.png""</img></div></div>","89,71","500","test","AX","1","89","true",""
"-1","-1","poldrack-single-stim","177","361442","0.0-138.0","pilot-40_ses-03_1","","500","0","cue","","<div class = centerbox><div class = img-container><img src = ""/static/experiments/dot_pattern_expectancy/images/cue4.png""</img></div></div>","none","500","test","AX","2","","",""
"-1","-1","poldrack-single-stim","178","363463","0.0-139.0","pilot-40_ses-03_1","","2000","0","fixation","","<div class = centerbox><div class = fixation>+</div></div>","none","2000","test","","","","",""
"611","89","poldrack-single-stim","179","364972","0.0-140.0","pilot-40_ses-03_1","","1500","0","probe","","<div class = centerbox><div class = img-container><img src = ""/static/experiments/dot_pattern_expectancy/images/probe1.png""</img></div></div>","89,71","500","test","AX","2","89","true",""
"-1","-1","poldrack-single-stim","180","365492","0.0-141.0","pilot-40_ses-03_1","","500","0","cue","","<div class = centerbox><div class = img-container><img src = ""/static/experiments/dot_pattern_expectancy/images/cue4.png""</img></div></div>","none","500","test","AX","3","","",""
"-1","-1","poldrack-single-stim","181","367514","0.0-142.0","pilot-40_ses-03_1","","2000","0","fixation","","<div class = centerbox><div class = fixation>+</div></div>","none","2000","test","","","","",""
"598","89","poldrack-single-stim","182","369031","0.0-143.0","pilot-40_ses-03_1","","1500","0","probe","","<div class = centerbox><div class = img-container><img src = ""/static/experiments/dot_pattern_expectancy/images/probe1.png""</img></div></div>","89,71","500","test","AX","3","89","true",""
"-1","-1","poldrack-single-stim","183","369552","0.0-144.0","pilot-40_ses-03_1","","500","0","cue","","<div class = centerbox><div class = img-container><img src = ""/static/experiments/dot_pattern_expectancy/images/cue4.png""</img></div></div>","none","500","test","AX","4","","",""
"-1","-1","poldrack-single-stim","184","371572","0.0-145.0","pilot-40_ses-03_1","","2000","0","fixation","","<div class = centerbox><div class = fixation>+</div></div>","none","2000","test","","","","",""
"547","89","poldrack-single-stim","185","373492","0.0-146.0","pilot-40_ses-03_1","","1908","0","probe","","<div class = centerbox><div class = img-container><img src = ""/static/experiments/dot_pattern_expectancy/images/probe1.png""</img></div></div>","89,71","500","test","AX","4","89","true",""
"-1","-1","poldrack-single-stim","186","374013","0.0-147.0","pilot-40_ses-03_1","","500","0","cue","","<div class = centerbox><div class = img-container><img src = ""/static/experiments/dot_pattern_expectancy/images/cue2.png""</img></div></div>","none","500","test","BX","5","","",""
"-1","-1","poldrack-single-stim","187","376033","0.0-148.0","pilot-40_ses-03_1","","2000","0","fixation","","<div class = centerbox><div class = fixation>+</div></div>","none","2000","test","","","","",""
"307","71","poldrack-single-stim","188","377671","0.0-149.0","pilot-40_ses-03_1","","1636","0","probe","","<div class = centerbox><div class = img-container><img src = ""/static/experiments/dot_pattern_expectancy/images/probe1.png""</img></div></div>","89,71","500","test","BX","5","71","true",""
"-1","-1","poldrack-single-stim","189","378194","0.0-150.0","pilot-40_ses-03_1","","500","0","cue","","<div class = centerbox><div class = img-container><img src = ""/static/experiments/dot_pattern_expectancy/images/cue4.png""</img></div></div>","none","500","test","AX","6","","",""
"-1","-1","poldrack-single-stim","190","380213","0.0-151.0","pilot-40_ses-03_1","","2000","0","fixation","","<div class = centerbox><div class = fixation>+</div></div>","none","2000","test","","","","",""
"490","89","poldrack-single-stim","191","382272","0.0-152.0","pilot-40_ses-03_1","","2044","0","probe","","<div class = centerbox><div class = img-container><img src = ""/static/experiments/dot_pattern_expectancy/images/probe1.png""</img></div></div>","89,71","500","test","AX","6","89","true",""
"-1","-1","poldrack-single-stim","192","382792","0.0-153.0","pilot-40_ses-03_1","","500","0","cue","","<div class = centerbox><div class = img-container><img src = ""/static/experiments/dot_pattern_expectancy/images/cue4.png""</img></div></div>","none","500","test","AX","7","","",""
"-1","-1","poldrack-single-stim","193","384813","0.0-154.0","pilot-40_ses-03_1","","2000","0","fixation","","<div class = centerbox><div class = fixation>+</div></div>","none","2000","test","","","","",""
"493","89","poldrack-single-stim","194","386593","0.0-155.0","pilot-40_ses-03_1","","1772","0","probe","","<div class = centerbox><div class = img-container><img src = ""/static/experiments/dot_pattern_expectancy/images/probe1.png""</img></div></div>","89,71","500","test","AX","7","89","true",""
"-1","-1","poldrack-single-stim","195","387113","0.0-156.0","pilot-40_ses-03_1","","500","0","cue","","<div class = centerbox><div class = img-container><img src = ""/static/experiments/dot_pattern_expectancy/images/cue4.png""</img></div></div>","none","500","test","AX","8","","",""
"-1","-1","poldrack-single-stim","196","389132","0.0-157.0","pilot-40_ses-03_1","","2000","0","fixation","","<div class = centerbox><div class = fixation>+</div></div>","none","2000","test","","","","",""
"500","89","poldrack-single-stim","197","390642","0.0-158.0","pilot-40_ses-03_1","","1500","0","probe","","<div class = centerbox><div class = img-container><img src = ""/static/experiments/dot_pattern_expectancy/images/probe1.png""</img></div></div>","89,71","500","test","AX","8","89","true",""
"-1","-1","poldrack-single-stim","198","391162","0.0-159.0","pilot-40_ses-03_1","","500","0","cue","","<div class = centerbox><div class = img-container><img src = ""/static/experiments/dot_pattern_expectancy/images/cue4.png""</img></div></div>","none","500","test","AX","9","","",""
"-1","-1","poldrack-single-stim","199","393173","0.0-160.0","pilot-40_ses-03_1","","2000","0","fixation","","<div class = centerbox><div class = fixation>+</div></div>","none","2000","test","","","","",""
"581","89","poldrack-single-stim","200","395362","0.0-161.0","pilot-40_ses-03_1","","2180","0","probe","","<div class = centerbox><div class = img-container><img src = ""/static/experiments/dot_pattern_expectancy/images/probe1.png""</img></div></div>","89,71","500","test","AX","9","89","true",""
"-1","-1","poldrack-single-stim","201","395874","0.0-162.0","pilot-40_ses-03_1","","500","0","cue","","<div class = centerbox><div class = img-container><img src = ""/static/experiments/dot_pattern_expectancy/images/cue4.png""</img></div></div>","none","500","test","AX","10","","",""
"-1","-1","poldrack-single-stim","202","397894","0.0-163.0","pilot-40_ses-03_1","","2000","0","fixation","","<div class = centerbox><div class = fixation>+</div></div>","none","2000","test","","","","",""
"477","89","poldrack-single-stim","203","399412","0.0-164.0","pilot-40_ses-03_1","","1500","0","probe","","<div class = centerbox><div class = img-container><img src = ""/static/experiments/dot_pattern_expectancy/images/probe1.png""</img></div></div>","89,71","500","test","AX","10","89","true",""
"-1","-1","poldrack-single-stim","204","399934","0.0-165.0","pilot-40_ses-03_1","","500","0","cue","","<div class = centerbox><div class = img-container><img src = ""/static/experiments/dot_pattern_expectancy/images/cue1.png""</img></div></div>","none","500","test","BX","11","","",""
"-1","-1","poldrack-single-stim","205","401953","0.0-166.0","pilot-40_ses-03_1","","2000","0","fixation","","<div class = centerbox><div class = fixation>+</div></div>","none","2000","test","","","","",""
"563","71","poldrack-single-stim","206","405632","0.0-167.0","pilot-40_ses-03_1","","3676","0","probe","","<div class = centerbox><div class = img-container><img src = ""/static/experiments/dot_pattern_expectancy/images/probe1.png""</img></div></div>","89,71","500","test","BX","11","71","true",""
"-1","-1","poldrack-single-stim","207","406151","0.0-168.0","pilot-40_ses-03_1","","500","0","cue","","<div class = centerbox><div class = img-container><img src = ""/static/experiments/dot_pattern_expectancy/images/cue1.png""</img></div></div>","none","500","test","BY","12","","",""
"-1","-1","poldrack-single-stim","208","408163","0.0-169.0","pilot-40_ses-03_1","","2000","0","fixation","","<div class = centerbox><div class = fixation>+</div></div>","none","2000","test","","","","",""
"634","71","poldrack-single-stim","209","409821","0.0-170.0","pilot-40_ses-03_1","","1636","0","probe","","<div class = centerbox><div class = img-container><img src = ""/static/experiments/dot_pattern_expectancy/images/probe5.png""</img></div></div>","89,71","500","test","BY","12","71","true",""
"-1","-1","poldrack-single-stim","210","410342","0.0-171.0","pilot-40_ses-03_1","","500","0","cue","","<div class = centerbox><div class = img-container><img src = ""/static/experiments/dot_pattern_expectancy/images/cue6.png""</img></div></div>","none","500","test","BY","13","","",""
"-1","-1","poldrack-single-stim","211","412353","0.0-172.0","pilot-40_ses-03_1","","2000","0","fixation","","<div class = centerbox><div class = fixation>+</div></div>","none","2000","test","","","","",""
"746","71","poldrack-single-stim","212","413992","0.0-173.0","pilot-40_ses-03_1","","1636","0","probe","","<div class = centerbox><div class = img-container><img src = ""/static/experiments/dot_pattern_expectancy/images/probe4.png""</img></div></div>","89,71","500","test","BY","13","71","true",""
"-1","-1","poldrack-single-stim","213","414513","0.0-174.0","pilot-40_ses-03_1","","500","0","cue","","<div class = centerbox><div class = img-container><img src = ""/static/experiments/dot_pattern_expectancy/images/cue2.png""</img></div></div>","none","500","test","BX","14","","",""
"-1","-1","poldrack-single-stim","214","416523","0.0-175.0","pilot-40_ses-03_1","","2000","0","fixation","","<div class = centerbox><div class = fixation>+</div></div>","none","2000","test","","","","",""
"500","71","poldrack-single-stim","215","418042","0.0-176.0","pilot-40_ses-03_1","","1500","0","probe","","<div class = centerbox><div class = img-container><img src = ""/static/experiments/dot_pattern_expectancy/images/probe1.png""</img></div></div>","89,71","500","test","BX","14","71","true",""
"-1","-1","poldrack-single-stim","216","418562","0.0-177.0","pilot-40_ses-03_1","","500","0","cue","","<div class = centerbox><div class = img-container><img src = ""/static/experiments/dot_pattern_expectancy/images/cue4.png""</img></div></div>","none","500","test","AX","15","","",""
"-1","-1","poldrack-single-stim","217","420571","0.0-178.0","pilot-40_ses-03_1","","2000","0","fixation","","<div class = centerbox><div class = fixation>+</div></div>","none","2000","test","","","","",""
"661","89","poldrack-single-stim","218","422492","0.0-179.0","pilot-40_ses-03_1","","1908","0","probe","","<div class = centerbox><div class = img-container><img src = ""/static/experiments/dot_pattern_expectancy/images/probe1.png""</img></div></div>","89,71","500","test","AX","15","89","true",""
"-1","-1","poldrack-single-stim","219","423012","0.0-180.0","pilot-40_ses-03_1","","500","0","cue","","<div class = centerbox><div class = img-container><img src = ""/static/experiments/dot_pattern_expectancy/images/cue4.png""</img></div></div>","none","500","test","AX","16","","",""
"-1","-1","poldrack-single-stim","220","425033","0.0-181.0","pilot-40_ses-03_1","","2000","0","fixation","","<div class = centerbox><div class = fixation>+</div></div>","none","2000","test","","","","",""
"550","89","poldrack-single-stim","221","426672","0.0-182.0","pilot-40_ses-03_1","","1636","0","probe","","<div class = centerbox><div class = img-container><img src = ""/static/experiments/dot_pattern_expectancy/images/probe1.png""</img></div></div>","89,71","500","test","AX","16","89","true",""
"-1","-1","poldrack-single-stim","222","427193","0.0-183.0","pilot-40_ses-03_1","","500","0","cue","","<div class = centerbox><div class = img-container><img src = ""/static/experiments/dot_pattern_expectancy/images/cue2.png""</img></div></div>","none","500","test","BX","17","","",""
"-1","-1","poldrack-single-stim","223","429212","0.0-184.0","pilot-40_ses-03_1","","2000","0","fixation","","<div class = centerbox><div class = fixation>+</div></div>","none","2000","test","","","","",""
"545","71","poldrack-single-stim","224","430722","0.0-185.0","pilot-40_ses-03_1","","1500","0","probe","","<div class = centerbox><div class = img-container><img src = ""/static/experiments/dot_pattern_expectancy/images/probe1.png""</img></div></div>","89,71","500","test","BX","17","71","true",""
"-1","-1","poldrack-single-stim","225","431242","0.0-186.0","pilot-40_ses-03_1","","500","0","cue","","<div class = centerbox><div class = img-container><img src = ""/static/experiments/dot_pattern_expectancy/images/cue4.png""</img></div></div>","none","500","test","AX","18","","",""
"-1","-1","poldrack-single-stim","226","433263","0.0-187.0","pilot-40_ses-03_1","","2000","0","fixation","","<div class = centerbox><div class = fixation>+</div></div>","none","2000","test","","","","",""
"562","89","poldrack-single-stim","227","435192","0.0-188.0","pilot-40_ses-03_1","","1908","0","probe","","<div class = centerbox><div class = img-container><img src = ""/static/experiments/dot_pattern_expectancy/images/probe1.png""</img></div></div>","89,71","500","test","AX","18","89","true",""
"-1","-1","poldrack-single-stim","228","435711","0.0-189.0","pilot-40_ses-03_1","","500","0","cue","","<div class = centerbox><div class = img-container><img src = ""/static/experiments/dot_pattern_expectancy/images/cue2.png""</img></div></div>","none","500","test","BY","19","","",""
"-1","-1","poldrack-single-stim","229","437732","0.0-190.0","pilot-40_ses-03_1","","2000","0","fixation","","<div class = centerbox><div class = fixation>+</div></div>","none","2000","test","","","","",""
"382","71","poldrack-single-stim","230","439920","0.0-191.0","pilot-40_ses-03_1","","2180","0","probe","","<div class = centerbox><div class = img-container><img src = ""/static/experiments/dot_pattern_expectancy/images/probe4.png""</img></div></div>","89,71","500","test","BY","19","71","true",""
"-1","-1","poldrack-single-stim","231","440443","0.0-192.0","pilot-40_ses-03_1","","500","0","cue","","<div class = centerbox><div class = img-container><img src = ""/static/experiments/dot_pattern_expectancy/images/cue4.png""</img></div></div>","none","500","test","AX","20","","",""
"-1","-1","poldrack-single-stim","232","442462","0.0-193.0","pilot-40_ses-03_1","","2000","0","fixation","","<div class = centerbox><div class = fixation>+</div></div>","none","2000","test","","","","",""
"570","89","poldrack-single-stim","233","444241","0.0-194.0","pilot-40_ses-03_1","","1772","0","probe","","<div class = centerbox><div class = img-container><img src = ""/static/experiments/dot_pattern_expectancy/images/probe1.png""</img></div></div>","89,71","500","test","AX","20","89","true",""
"-1","-1","poldrack-single-stim","234","444764","0.0-195.0","pilot-40_ses-03_1","","500","0","cue","","<div class = centerbox><div class = img-container><img src = ""/static/experiments/dot_pattern_expectancy/images/cue4.png""</img></div></div>","none","500","test","AX","21","","",""
"-1","-1","poldrack-single-stim","235","446783","0.0-196.0","pilot-40_ses-03_1","","2000","0","fixation","","<div class = centerbox><div class = fixation>+</div></div>","none","2000","test","","","","",""
"550","89","poldrack-single-stim","236","448292","0.0-197.0","pilot-40_ses-03_1","","1500","0","probe","","<div class = centerbox><div class = img-container><img src = ""/static/experiments/dot_pattern_expectancy/images/probe1.png""</img></div></div>","89,71","500","test","AX","21","89","true",""
"-1","-1","poldrack-single-stim","237","448813","0.0-198.0","pilot-40_ses-03_1","","500","0","cue","","<div class = centerbox><div class = img-container><img src = ""/static/experiments/dot_pattern_expectancy/images/cue4.png""</img></div></div>","none","500","test","AX","22","","",""
"-1","-1","poldrack-single-stim","238","450833","0.0-199.0","pilot-40_ses-03_1","","2000","0","fixation","","<div class = centerbox><div class = fixation>+</div></div>","none","2000","test","","","","",""
"555","89","poldrack-single-stim","239","452352","0.0-200.0","pilot-40_ses-03_1","","1500","0","probe","","<div class = centerbox><div class = img-container><img src = ""/static/experiments/dot_pattern_expectancy/images/probe1.png""</img></div></div>","89,71","500","test","AX","22","89","true",""
"-1","-1","poldrack-single-stim","240","452873","0.0-201.0","pilot-40_ses-03_1","","500","0","cue","","<div class = centerbox><div class = img-container><img src = ""/static/experiments/dot_pattern_expectancy/images/cue4.png""</img></div></div>","none","500","test","AX","23","","",""
"-1","-1","poldrack-single-stim","241","454883","0.0-202.0","pilot-40_ses-03_1","","2000","0","fixation","","<div class = centerbox><div class = fixation>+</div></div>","none","2000","test","","","","",""
"501","89","poldrack-single-stim","242","456933","0.0-203.0","pilot-40_ses-03_1","","2044","0","probe","","<div class = centerbox><div class = img-container><img src = ""/static/experiments/dot_pattern_expectancy/images/probe1.png""</img></div></div>","89,71","500","test","AX","23","89","true",""
"-1","-1","poldrack-single-stim","243","457453","0.0-204.0","pilot-40_ses-03_1","","500","0","cue","","<div class = centerbox><div class = img-container><img src = ""/static/experiments/dot_pattern_expectancy/images/cue4.png""</img></div></div>","none","500","test","AX","24","","",""
"-1","-1","poldrack-single-stim","244","459473","0.0-205.0","pilot-40_ses-03_1","","2000","0","fixation","","<div class = centerbox><div class = fixation>+</div></div>","none","2000","test","","","","",""
"440","89","poldrack-single-stim","245","462342","0.0-206.0","pilot-40_ses-03_1","","2860","0","probe","","<div class = centerbox><div class = img-container><img src = ""/static/experiments/dot_pattern_expectancy/images/probe1.png""</img></div></div>","89,71","500","test","AX","24","89","true",""
"-1","-1","poldrack-single-stim","246","462862","0.0-207.0","pilot-40_ses-03_1","","500","0","cue","","<div class = centerbox><div class = img-container><img src = ""/static/experiments/dot_pattern_expectancy/images/cue1.png""</img></div></div>","none","500","test","BX","25","","",""
"-1","-1","poldrack-single-stim","247","464883","0.0-208.0","pilot-40_ses-03_1","","2000","0","fixation","","<div class = centerbox><div class = fixation>+</div></div>","none","2000","test","","","","",""
"546","71","poldrack-single-stim","248","466402","0.0-209.0","pilot-40_ses-03_1","","1500","0","probe","","<div class = centerbox><div class = img-container><img src = ""/static/experiments/dot_pattern_expectancy/images/probe1.png""</img></div></div>","89,71","500","test","BX","25","71","true",""
"-1","-1","poldrack-single-stim","249","466923","0.0-210.0","pilot-40_ses-03_1","","500","0","cue","","<div class = centerbox><div class = img-container><img src = ""/static/experiments/dot_pattern_expectancy/images/cue6.png""</img></div></div>","none","500","test","BY","26","","",""
"-1","-1","poldrack-single-stim","250","468941","0.0-211.0","pilot-40_ses-03_1","","2000","0","fixation","","<div class = centerbox><div class = fixation>+</div></div>","none","2000","test","","","","",""
"543","71","poldrack-single-stim","251","470733","0.0-212.0","pilot-40_ses-03_1","","1772","0","probe","","<div class = centerbox><div class = img-container><img src = ""/static/experiments/dot_pattern_expectancy/images/probe5.png""</img></div></div>","89,71","500","test","BY","26","71","true",""
"-1","-1","poldrack-single-stim","252","471255","0.0-213.0","pilot-40_ses-03_1","","500","0","cue","","<div class = centerbox><div class = img-container><img src = ""/static/experiments/dot_pattern_expectancy/images/cue4.png""</img></div></div>","none","500","test","AX","27","","",""
"-1","-1","poldrack-single-stim","253","473262","0.0-214.0","pilot-40_ses-03_1","","2000","0","fixation","","<div class = centerbox><div class = fixation>+</div></div>","none","2000","test","","","","",""
"472","89","poldrack-single-stim","254","475041","0.0-215.0","pilot-40_ses-03_1","","1772","0","probe","","<div class = centerbox><div class = img-container><img src = ""/static/experiments/dot_pattern_expectancy/images/probe1.png""</img></div></div>","89,71","500","test","AX","27","89","true",""
"-1","-1","poldrack-single-stim","255","475563","0.0-216.0","pilot-40_ses-03_1","","500","0","cue","","<div class = centerbox><div class = img-container><img src = ""/static/experiments/dot_pattern_expectancy/images/cue4.png""</img></div></div>","none","500","test","AX","28","","",""
"-1","-1","poldrack-single-stim","256","477583","0.0-217.0","pilot-40_ses-03_1","","2000","0","fixation","","<div class = centerbox><div class = fixation>+</div></div>","none","2000","test","","","","",""
"527","89","poldrack-single-stim","257","480465","0.0-218.0","pilot-40_ses-03_1","","2860","0","probe","","<div class = centerbox><div class = img-container><img src = ""/static/experiments/dot_pattern_expectancy/images/probe1.png""</img></div></div>","89,71","500","test","AX","28","89","true",""
"-1","-1","poldrack-single-stim","258","480984","0.0-219.0","pilot-40_ses-03_1","","500","0","cue","","<div class = centerbox><div class = img-container><img src = ""/static/experiments/dot_pattern_expectancy/images/cue4.png""</img></div></div>","none","500","test","AX","29","","",""
"-1","-1","poldrack-single-stim","259","483003","0.0-220.0","pilot-40_ses-03_1","","2000","0","fixation","","<div class = centerbox><div class = fixation>+</div></div>","none","2000","test","","","","",""
"483","89","poldrack-single-stim","260","484781","0.0-221.0","pilot-40_ses-03_1","","1772","0","probe","","<div class = centerbox><div class = img-container><img src = ""/static/experiments/dot_pattern_expectancy/images/probe1.png""</img></div></div>","89,71","500","test","AX","29","89","true",""
"-1","-1","poldrack-single-stim","261","485301","0.0-222.0","pilot-40_ses-03_1","","500","0","cue","","<div class = centerbox><div class = img-container><img src = ""/static/experiments/dot_pattern_expectancy/images/cue5.png""</img></div></div>","none","500","test","BX","30","","",""
"-1","-1","poldrack-single-stim","262","487322","0.0-223.0","pilot-40_ses-03_1","","2000","0","fixation","","<div class = centerbox><div class = fixation>+</div></div>","none","2000","test","","","","",""
"369","71","poldrack-single-stim","263","488961","0.0-224.0","pilot-40_ses-03_1","","1636","0","probe","","<div class = centerbox><div class = img-container><img src = ""/static/experiments/dot_pattern_expectancy/images/probe1.png""</img></div></div>","89,71","500","test","BX","30","71","true",""
"-1","-1","poldrack-single-stim","264","489482","0.0-225.0","pilot-40_ses-03_1","","500","0","cue","","<div class = centerbox><div class = img-container><img src = ""/static/experiments/dot_pattern_expectancy/images/cue1.png""</img></div></div>","none","500","test","BX","31","","",""
"-1","-1","poldrack-single-stim","265","491503","0.0-226.0","pilot-40_ses-03_1","","2000","0","fixation","","<div class = centerbox><div class = fixation>+</div></div>","none","2000","test","","","","",""
"491","71","poldrack-single-stim","266","493972","0.0-227.0","pilot-40_ses-03_1","","2452","0","probe","","<div class = centerbox><div class = img-container><img src = ""/static/experiments/dot_pattern_expectancy/images/probe1.png""</img></div></div>","89,71","500","test","BX","31","71","true",""
"-1","-1","poldrack-single-stim","267","494492","0.0-228.0","pilot-40_ses-03_1","","500","0","cue","","<div class = centerbox><div class = img-container><img src = ""/static/experiments/dot_pattern_expectancy/images/cue4.png""</img></div></div>","none","500","test","AX","32","","",""
"-1","-1","poldrack-single-stim","268","496512","0.0-229.0","pilot-40_ses-03_1","","2000","0","fixation","","<div class = centerbox><div class = fixation>+</div></div>","none","2000","test","","","","",""
"456","89","poldrack-single-stim","269","498153","0.0-230.0","pilot-40_ses-03_1","","1636","0","probe","","<div class = centerbox><div class = img-container><img src = ""/static/experiments/dot_pattern_expectancy/images/probe1.png""</img></div></div>","89,71","500","test","AX","32","89","true",""
"-1","-1","poldrack-single-stim","270","498674","0.0-231.0","pilot-40_ses-03_1","","500","0","cue","","<div class = centerbox><div class = img-container><img src = ""/static/experiments/dot_pattern_expectancy/images/cue1.png""</img></div></div>","none","500","test","BX","33","","",""
"-1","-1","poldrack-single-stim","271","500683","0.0-232.0","pilot-40_ses-03_1","","2000","0","fixation","","<div class = centerbox><div class = fixation>+</div></div>","none","2000","test","","","","",""
"627","71","poldrack-single-stim","272","502202","0.0-233.0","pilot-40_ses-03_1","","1500","0","probe","","<div class = centerbox><div class = img-container><img src = ""/static/experiments/dot_pattern_expectancy/images/probe1.png""</img></div></div>","89,71","500","test","BX","33","71","true",""
"-1","-1","poldrack-single-stim","273","502723","0.0-234.0","pilot-40_ses-03_1","","500","0","cue","","<div class = centerbox><div class = img-container><img src = ""/static/experiments/dot_pattern_expectancy/images/cue4.png""</img></div></div>","none","500","test","AX","34","","",""
"-1","-1","poldrack-single-stim","274","504743","0.0-235.0","pilot-40_ses-03_1","","2000","0","fixation","","<div class = centerbox><div class = fixation>+</div></div>","none","2000","test","","","","",""
"404","89","poldrack-single-stim","275","506392","0.0-236.0","pilot-40_ses-03_1","","1636","0","probe","","<div class = centerbox><div class = img-container><img src = ""/static/experiments/dot_pattern_expectancy/images/probe1.png""</img></div></div>","89,71","500","test","AX","34","89","true",""
"-1","-1","poldrack-single-stim","276","506913","0.0-237.0","pilot-40_ses-03_1","","500","0","cue","","<div class = centerbox><div class = img-container><img src = ""/static/experiments/dot_pattern_expectancy/images/cue4.png""</img></div></div>","none","500","test","AX","35","","",""
"-1","-1","poldrack-single-stim","277","508933","0.0-238.0","pilot-40_ses-03_1","","2000","0","fixation","","<div class = centerbox><div class = fixation>+</div></div>","none","2000","test","","","","",""
"447","89","poldrack-single-stim","278","510573","0.0-239.0","pilot-40_ses-03_1","","1636","0","probe","","<div class = centerbox><div class = img-container><img src = ""/static/experiments/dot_pattern_expectancy/images/probe1.png""</img></div></div>","89,71","500","test","AX","35","89","true",""
"-1","-1","poldrack-single-stim","279","511093","0.0-240.0","pilot-40_ses-03_1","","500","0","cue","","<div class = centerbox><div class = img-container><img src = ""/static/experiments/dot_pattern_expectancy/images/cue3.png""</img></div></div>","none","500","test","BY","36","","",""
"-1","-1","poldrack-single-stim","280","513104","0.0-241.0","pilot-40_ses-03_1","","2000","0","fixation","","<div class = centerbox><div class = fixation>+</div></div>","none","2000","test","","","","",""
"366","71","poldrack-single-stim","281","515303","0.0-242.0","pilot-40_ses-03_1","","2180","0","probe","","<div class = centerbox><div class = img-container><img src = ""/static/experiments/dot_pattern_expectancy/images/probe6.png""</img></div></div>","89,71","500","test","BY","36","71","true",""
"-1","-1","poldrack-single-stim","282","515823","0.0-243.0","pilot-40_ses-03_1","","500","0","cue","","<div class = centerbox><div class = img-container><img src = ""/static/experiments/dot_pattern_expectancy/images/cue4.png""</img></div></div>","none","500","test","AX","37","","",""
"-1","-1","poldrack-single-stim","283","517843","0.0-244.0","pilot-40_ses-03_1","","2000","0","fixation","","<div class = centerbox><div class = fixation>+</div></div>","none","2000","test","","","","",""
"497","89","poldrack-single-stim","284","519362","0.0-245.0","pilot-40_ses-03_1","","1500","0","probe","","<div class = centerbox><div class = img-container><img src = ""/static/experiments/dot_pattern_expectancy/images/probe1.png""</img></div></div>","89,71","500","test","AX","37","89","true",""
"-1","-1","poldrack-single-stim","285","519881","0.0-246.0","pilot-40_ses-03_1","","500","0","cue","","<div class = centerbox><div class = img-container><img src = ""/static/experiments/dot_pattern_expectancy/images/cue4.png""</img></div></div>","none","500","test","AY","38","","",""
"-1","-1","poldrack-single-stim","286","521903","0.0-247.0","pilot-40_ses-03_1","","2000","0","fixation","","<div class = centerbox><div class = fixation>+</div></div>","none","2000","test","","","","",""
"600","71","poldrack-single-stim","287","523542","0.0-248.0","pilot-40_ses-03_1","","1636","0","probe","","<div class = centerbox><div class = img-container><img src = ""/static/experiments/dot_pattern_expectancy/images/probe4.png""</img></div></div>","89,71","500","test","AY","38","71","true",""
"-1","-1","poldrack-single-stim","288","524063","0.0-249.0","pilot-40_ses-03_1","","500","0","cue","","<div class = centerbox><div class = img-container><img src = ""/static/experiments/dot_pattern_expectancy/images/cue4.png""</img></div></div>","none","500","test","AX","39","","",""
"-1","-1","poldrack-single-stim","289","526088","0.0-250.0","pilot-40_ses-03_1","","2000","0","fixation","","<div class = centerbox><div class = fixation>+</div></div>","none","2000","test","","","","",""
"491","89","poldrack-single-stim","290","527731","0.0-251.0","pilot-40_ses-03_1","","1636","0","probe","","<div class = centerbox><div class = img-container><img src = ""/static/experiments/dot_pattern_expectancy/images/probe1.png""</img></div></div>","89,71","500","test","AX","39","89","true",""
"-1","-1","poldrack-single-stim","291","535253","0.0-252.0","pilot-40_ses-03_1","","7500","1000","rest_block","","<div class = centerbox><div class = center-text>+</div></div>","none","7500","","","","","",""
"-1","-1","poldrack-single-stim","292","537793","0.0-253.0","pilot-40_ses-03_1","","1500","500","test_start_block","","<div class = centerbox><div class = center-text>Preparez-vous!</p></div>","none","1500","","","","","",""
"-1","-1","poldrack-single-stim","293","538833","0.0-254.0","pilot-40_ses-03_1","","500","0","cue","","<div class = centerbox><div class = img-container><img src = ""/static/experiments/dot_pattern_expectancy/images/cue4.png""</img></div></div>","none","500","test","AX","0","","",""
"-1","-1","poldrack-single-stim","294","540854","0.0-255.0","pilot-40_ses-03_1","","2000","0","fixation","","<div class = centerbox><div class = fixation>+</div></div>","none","2000","test","","","","",""
"515","89","poldrack-single-stim","295","543042","0.0-256.0","pilot-40_ses-03_1","","2180","0","probe","","<div class = centerbox><div class = img-container><img src = ""/static/experiments/dot_pattern_expectancy/images/probe1.png""</img></div></div>","89,71","500","test","AX","0","89","true",""
"-1","-1","poldrack-single-stim","296","543564","0.0-257.0","pilot-40_ses-03_1","","500","0","cue","","<div class = centerbox><div class = img-container><img src = ""/static/experiments/dot_pattern_expectancy/images/cue4.png""</img></div></div>","none","500","test","AY","1","","",""
"-1","-1","poldrack-single-stim","297","545583","0.0-258.0","pilot-40_ses-03_1","","2000","0","fixation","","<div class = centerbox><div class = fixation>+</div></div>","none","2000","test","","","","",""
"583","71","poldrack-single-stim","298","547912","0.0-259.0","pilot-40_ses-03_1","","2316","0","probe","","<div class = centerbox><div class = img-container><img src = ""/static/experiments/dot_pattern_expectancy/images/probe3.png""</img></div></div>","89,71","500","test","AY","1","71","true",""
"-1","-1","poldrack-single-stim","299","548432","0.0-260.0","pilot-40_ses-03_1","","500","0","cue","","<div class = centerbox><div class = img-container><img src = ""/static/experiments/dot_pattern_expectancy/images/cue4.png""</img></div></div>","none","500","test","AY","2","","",""
"-1","-1","poldrack-single-stim","300","550443","0.0-261.0","pilot-40_ses-03_1","","2000","0","fixation","","<div class = centerbox><div class = fixation>+</div></div>","none","2000","test","","","","",""
"549","71","poldrack-single-stim","301","552082","0.0-262.0","pilot-40_ses-03_1","","1636","0","probe","","<div class = centerbox><div class = img-container><img src = ""/static/experiments/dot_pattern_expectancy/images/probe5.png""</img></div></div>","89,71","500","test","AY","2","71","true",""
"-1","-1","poldrack-single-stim","302","552603","0.0-263.0","pilot-40_ses-03_1","","500","0","cue","","<div class = centerbox><div class = img-container><img src = ""/static/experiments/dot_pattern_expectancy/images/cue1.png""</img></div></div>","none","500","test","BX","3","","",""
"-1","-1","poldrack-single-stim","303","554625","0.0-264.0","pilot-40_ses-03_1","","2000","0","fixation","","<div class = centerbox><div class = fixation>+</div></div>","none","2000","test","","","","",""
"805","71","poldrack-single-stim","304","556552","0.0-265.0","pilot-40_ses-03_1","","1908","0","probe","","<div class = centerbox><div class = img-container><img src = ""/static/experiments/dot_pattern_expectancy/images/probe1.png""</img></div></div>","89,71","500","test","BX","3","71","true",""
"-1","-1","poldrack-single-stim","305","557072","0.0-266.0","pilot-40_ses-03_1","","500","0","cue","","<div class = centerbox><div class = img-container><img src = ""/static/experiments/dot_pattern_expectancy/images/cue4.png""</img></div></div>","none","500","test","AX","4","","",""
"-1","-1","poldrack-single-stim","306","559093","0.0-267.0","pilot-40_ses-03_1","","2000","0","fixation","","<div class = centerbox><div class = fixation>+</div></div>","none","2000","test","","","","",""
"484","89","poldrack-single-stim","307","562653","0.0-268.0","pilot-40_ses-03_1","","3540","0","probe","","<div class = centerbox><div class = img-container><img src = ""/static/experiments/dot_pattern_expectancy/images/probe1.png""</img></div></div>","89,71","500","test","AX","4","89","true",""
"-1","-1","poldrack-single-stim","308","563173","0.0-269.0","pilot-40_ses-03_1","","500","0","cue","","<div class = centerbox><div class = img-container><img src = ""/static/experiments/dot_pattern_expectancy/images/cue6.png""</img></div></div>","none","500","test","BX","5","","",""
"-1","-1","poldrack-single-stim","309","565194","0.0-270.0","pilot-40_ses-03_1","","2000","0","fixation","","<div class = centerbox><div class = fixation>+</div></div>","none","2000","test","","","","",""
"496","71","poldrack-single-stim","310","566851","0.0-271.0","pilot-40_ses-03_1","","1636","0","probe","","<div class = centerbox><div class = img-container><img src = ""/static/experiments/dot_pattern_expectancy/images/probe1.png""</img></div></div>","89,71","500","test","BX","5","71","true",""
"-1","-1","poldrack-single-stim","311","567373","0.0-272.0","pilot-40_ses-03_1","","500","0","cue","","<div class = centerbox><div class = img-container><img src = ""/static/experiments/dot_pattern_expectancy/images/cue2.png""</img></div></div>","none","500","test","BY","6","","",""
"-1","-1","poldrack-single-stim","312","569393","0.0-273.0","pilot-40_ses-03_1","","2000","0","fixation","","<div class = centerbox><div class = fixation>+</div></div>","none","2000","test","","","","",""
"440","71","poldrack-single-stim","313","570912","0.0-274.0","pilot-40_ses-03_1","","1500","0","probe","","<div class = centerbox><div class = img-container><img src = ""/static/experiments/dot_pattern_expectancy/images/probe3.png""</img></div></div>","89,71","500","test","BY","6","71","true",""
"-1","-1","poldrack-single-stim","314","571433","0.0-275.0","pilot-40_ses-03_1","","500","0","cue","","<div class = centerbox><div class = img-container><img src = ""/static/experiments/dot_pattern_expectancy/images/cue4.png""</img></div></div>","none","500","test","AX","7","","",""
"-1","-1","poldrack-single-stim","315","573454","0.0-276.0","pilot-40_ses-03_1","","2000","0","fixation","","<div class = centerbox><div class = fixation>+</div></div>","none","2000","test","","","","",""
"528","89","poldrack-single-stim","316","574962","0.0-277.0","pilot-40_ses-03_1","","1500","0","probe","","<div class = centerbox><div class = img-container><img src = ""/static/experiments/dot_pattern_expectancy/images/probe1.png""</img></div></div>","89,71","500","test","AX","7","89","true",""
"-1","-1","poldrack-single-stim","317","575483","0.0-278.0","pilot-40_ses-03_1","","500","0","cue","","<div class = centerbox><div class = img-container><img src = ""/static/experiments/dot_pattern_expectancy/images/cue4.png""</img></div></div>","none","500","test","AX","8","","",""
"-1","-1","poldrack-single-stim","318","577503","0.0-279.0","pilot-40_ses-03_1","","2000","0","fixation","","<div class = centerbox><div class = fixation>+</div></div>","none","2000","test","","","","",""
"613","89","poldrack-single-stim","319","579292","0.0-280.0","pilot-40_ses-03_1","","1772","0","probe","","<div class = centerbox><div class = img-container><img src = ""/static/experiments/dot_pattern_expectancy/images/probe1.png""</img></div></div>","89,71","500","test","AX","8","89","true",""
"-1","-1","poldrack-single-stim","320","579813","0.0-281.0","pilot-40_ses-03_1","","500","0","cue","","<div class = centerbox><div class = img-container><img src = ""/static/experiments/dot_pattern_expectancy/images/cue1.png""</img></div></div>","none","500","test","BY","9","","",""
"-1","-1","poldrack-single-stim","321","581834","0.0-282.0","pilot-40_ses-03_1","","2000","0","fixation","","<div class = centerbox><div class = fixation>+</div></div>","none","2000","test","","","","",""
"402","71","poldrack-single-stim","322","584293","0.0-283.0","pilot-40_ses-03_1","","2452","0","probe","","<div class = centerbox><div class = img-container><img src = ""/static/experiments/dot_pattern_expectancy/images/probe4.png""</img></div></div>","89,71","500","test","BY","9","71","true",""
"-1","-1","poldrack-single-stim","323","584813","0.0-284.0","pilot-40_ses-03_1","","500","0","cue","","<div class = centerbox><div class = img-container><img src = ""/static/experiments/dot_pattern_expectancy/images/cue4.png""</img></div></div>","none","500","test","AX","10","","",""
"-1","-1","poldrack-single-stim","324","586832","0.0-285.0","pilot-40_ses-03_1","","2000","0","fixation","","<div class = centerbox><div class = fixation>+</div></div>","none","2000","test","","","","",""
"438","89","poldrack-single-stim","325","588752","0.0-286.0","pilot-40_ses-03_1","","1908","0","probe","","<div class = centerbox><div class = img-container><img src = ""/static/experiments/dot_pattern_expectancy/images/probe1.png""</img></div></div>","89,71","500","test","AX","10","89","true",""
"-1","-1","poldrack-single-stim","326","589262","0.0-287.0","pilot-40_ses-03_1","","500","0","cue","","<div class = centerbox><div class = img-container><img src = ""/static/experiments/dot_pattern_expectancy/images/cue6.png""</img></div></div>","none","500","test","BX","11","","",""
"-1","-1","poldrack-single-stim","327","591281","0.0-288.0","pilot-40_ses-03_1","","2000","0","fixation","","<div class = centerbox><div class = fixation>+</div></div>","none","2000","test","","","","",""
"598","71","poldrack-single-stim","328","592922","0.0-289.0","pilot-40_ses-03_1","","1636","0","probe","","<div class = centerbox><div class = img-container><img src = ""/static/experiments/dot_pattern_expectancy/images/probe1.png""</img></div></div>","89,71","500","test","BX","11","71","true",""
"-1","-1","poldrack-single-stim","329","593441","0.0-290.0","pilot-40_ses-03_1","","500","0","cue","","<div class = centerbox><div class = img-container><img src = ""/static/experiments/dot_pattern_expectancy/images/cue4.png""</img></div></div>","none","500","test","AX","12","","",""
"-1","-1","poldrack-single-stim","330","595463","0.0-291.0","pilot-40_ses-03_1","","2000","0","fixation","","<div class = centerbox><div class = fixation>+</div></div>","none","2000","test","","","","",""
"489","89","poldrack-single-stim","331","596979","0.0-292.0","pilot-40_ses-03_1","","1500","0","probe","","<div class = centerbox><div class = img-container><img src = ""/static/experiments/dot_pattern_expectancy/images/probe1.png""</img></div></div>","89,71","500","test","AX","12","89","true",""
"-1","-1","poldrack-single-stim","332","597503","0.0-293.0","pilot-40_ses-03_1","","500","0","cue","","<div class = centerbox><div class = img-container><img src = ""/static/experiments/dot_pattern_expectancy/images/cue4.png""</img></div></div>","none","500","test","AX","13","","",""
"-1","-1","poldrack-single-stim","333","599512","0.0-294.0","pilot-40_ses-03_1","","2000","0","fixation","","<div class = centerbox><div class = fixation>+</div></div>","none","2000","test","","","","",""
"510","89","poldrack-single-stim","334","601161","0.0-295.0","pilot-40_ses-03_1","","1636","0","probe","","<div class = centerbox><div class = img-container><img src = ""/static/experiments/dot_pattern_expectancy/images/probe1.png""</img></div></div>","89,71","500","test","AX","13","89","true",""
"-1","-1","poldrack-single-stim","335","601684","0.0-296.0","pilot-40_ses-03_1","","500","0","cue","","<div class = centerbox><div class = img-container><img src = ""/static/experiments/dot_pattern_expectancy/images/cue4.png""</img></div></div>","none","500","test","AX","14","","",""
"-1","-1","poldrack-single-stim","336","603702","0.0-297.0","pilot-40_ses-03_1","","2000","0","fixation","","<div class = centerbox><div class = fixation>+</div></div>","none","2000","test","","","","",""
"367","89","poldrack-single-stim","337","605343","0.0-298.0","pilot-40_ses-03_1","","1636","0","probe","","<div class = centerbox><div class = img-container><img src = ""/static/experiments/dot_pattern_expectancy/images/probe1.png""</img></div></div>","89,71","500","test","AX","14","89","true",""
"-1","-1","poldrack-single-stim","338","605863","0.0-299.0","pilot-40_ses-03_1","","500","0","cue","","<div class = centerbox><div class = img-container><img src = ""/static/experiments/dot_pattern_expectancy/images/cue6.png""</img></div></div>","none","500","test","BY","15","","",""
"-1","-1","poldrack-single-stim","339","607882","0.0-300.0","pilot-40_ses-03_1","","2000","0","fixation","","<div class = centerbox><div class = fixation>+</div></div>","none","2000","test","","","","",""
"403","71","poldrack-single-stim","340","610343","0.0-301.0","pilot-40_ses-03_1","","2452","0","probe","","<div class = centerbox><div class = img-container><img src = ""/static/experiments/dot_pattern_expectancy/images/probe2.png""</img></div></div>","89,71","500","test","BY","15","71","true",""
"-1","-1","poldrack-single-stim","341","610863","0.0-302.0","pilot-40_ses-03_1","","500","0","cue","","<div class = centerbox><div class = img-container><img src = ""/static/experiments/dot_pattern_expectancy/images/cue4.png""</img></div></div>","none","500","test","AX","16","","",""
"-1","-1","poldrack-single-stim","342","612882","0.0-303.0","pilot-40_ses-03_1","","2000","0","fixation","","<div class = centerbox><div class = fixation>+</div></div>","none","2000","test","","","","",""
"476","89","poldrack-single-stim","343","614392","0.0-304.0","pilot-40_ses-03_1","","1500","0","probe","","<div class = centerbox><div class = img-container><img src = ""/static/experiments/dot_pattern_expectancy/images/probe1.png""</img></div></div>","89,71","500","test","AX","16","89","true",""
"-1","-1","poldrack-single-stim","344","614903","0.0-305.0","pilot-40_ses-03_1","","500","0","cue","","<div class = centerbox><div class = img-container><img src = ""/static/experiments/dot_pattern_expectancy/images/cue1.png""</img></div></div>","none","500","test","BY","17","","",""
"-1","-1","poldrack-single-stim","345","616923","0.0-306.0","pilot-40_ses-03_1","","2000","0","fixation","","<div class = centerbox><div class = fixation>+</div></div>","none","2000","test","","","","",""
"342","71","poldrack-single-stim","346","618443","0.0-307.0","pilot-40_ses-03_1","","1500","0","probe","","<div class = centerbox><div class = img-container><img src = ""/static/experiments/dot_pattern_expectancy/images/probe5.png""</img></div></div>","89,71","500","test","BY","17","71","true",""
"-1","-1","poldrack-single-stim","347","618963","0.0-308.0","pilot-40_ses-03_1","","500","0","cue","","<div class = centerbox><div class = img-container><img src = ""/static/experiments/dot_pattern_expectancy/images/cue4.png""</img></div></div>","none","500","test","AX","18","","",""
"-1","-1","poldrack-single-stim","348","620981","0.0-309.0","pilot-40_ses-03_1","","2000","0","fixation","","<div class = centerbox><div class = fixation>+</div></div>","none","2000","test","","","","",""
"416","89","poldrack-single-stim","349","622622","0.0-310.0","pilot-40_ses-03_1","","1636","0","probe","","<div class = centerbox><div class = img-container><img src = ""/static/experiments/dot_pattern_expectancy/images/probe1.png""</img></div></div>","89,71","500","test","AX","18","89","true",""
"-1","-1","poldrack-single-stim","350","623142","0.0-311.0","pilot-40_ses-03_1","","500","0","cue","","<div class = centerbox><div class = img-container><img src = ""/static/experiments/dot_pattern_expectancy/images/cue4.png""</img></div></div>","none","500","test","AX","19","","",""
"-1","-1","poldrack-single-stim","351","625163","0.0-312.0","pilot-40_ses-03_1","","2000","0","fixation","","<div class = centerbox><div class = fixation>+</div></div>","none","2000","test","","","","",""
"513","89","poldrack-single-stim","352","626802","0.0-313.0","pilot-40_ses-03_1","","1636","0","probe","","<div class = centerbox><div class = img-container><img src = ""/static/experiments/dot_pattern_expectancy/images/probe1.png""</img></div></div>","89,71","500","test","AX","19","89","true",""
"-1","-1","poldrack-single-stim","353","627322","0.0-314.0","pilot-40_ses-03_1","","500","0","cue","","<div class = centerbox><div class = img-container><img src = ""/static/experiments/dot_pattern_expectancy/images/cue4.png""</img></div></div>","none","500","test","AY","20","","",""
"-1","-1","poldrack-single-stim","354","629343","0.0-315.0","pilot-40_ses-03_1","","2000","0","fixation","","<div class = centerbox><div class = fixation>+</div></div>","none","2000","test","","","","",""
"441","71","poldrack-single-stim","355","630982","0.0-316.0","pilot-40_ses-03_1","","1636","0","probe","","<div class = centerbox><div class = img-container><img src = ""/static/experiments/dot_pattern_expectancy/images/probe6.png""</img></div></div>","89,71","500","test","AY","20","71","true",""
"-1","-1","poldrack-single-stim","356","631502","0.0-317.0","pilot-40_ses-03_1","","500","0","cue","","<div class = centerbox><div class = img-container><img src = ""/static/experiments/dot_pattern_expectancy/images/cue4.png""</img></div></div>","none","500","test","AX","21","","",""
"-1","-1","poldrack-single-stim","357","633522","0.0-318.0","pilot-40_ses-03_1","","2000","0","fixation","","<div class = centerbox><div class = fixation>+</div></div>","none","2000","test","","","","",""
"508","89","poldrack-single-stim","358","635041","0.0-319.0","pilot-40_ses-03_1","","1500","0","probe","","<div class = centerbox><div class = img-container><img src = ""/static/experiments/dot_pattern_expectancy/images/probe1.png""</img></div></div>","89,71","500","test","AX","21","89","true",""
"-1","-1","poldrack-single-stim","359","635564","0.0-320.0","pilot-40_ses-03_1","","500","0","cue","","<div class = centerbox><div class = img-container><img src = ""/static/experiments/dot_pattern_expectancy/images/cue4.png""</img></div></div>","none","500","test","AX","22","","",""
"-1","-1","poldrack-single-stim","360","637584","0.0-321.0","pilot-40_ses-03_1","","2000","0","fixation","","<div class = centerbox><div class = fixation>+</div></div>","none","2000","test","","","","",""
"365","89","poldrack-single-stim","361","639102","0.0-322.0","pilot-40_ses-03_1","","1500","0","probe","","<div class = centerbox><div class = img-container><img src = ""/static/experiments/dot_pattern_expectancy/images/probe1.png""</img></div></div>","89,71","500","test","AX","22","89","true",""
"-1","-1","poldrack-single-stim","362","639623","0.0-323.0","pilot-40_ses-03_1","","500","0","cue","","<div class = centerbox><div class = img-container><img src = ""/static/experiments/dot_pattern_expectancy/images/cue4.png""</img></div></div>","none","500","test","AX","23","","",""
"-1","-1","poldrack-single-stim","363","641657","0.0-324.0","pilot-40_ses-03_1","","2000","0","fixation","","<div class = centerbox><div class = fixation>+</div></div>","none","2000","test","","","","",""
"493","89","poldrack-single-stim","364","643432","0.0-325.0","pilot-40_ses-03_1","","1772","0","probe","","<div class = centerbox><div class = img-container><img src = ""/static/experiments/dot_pattern_expectancy/images/probe1.png""</img></div></div>","89,71","500","test","AX","23","89","true",""
"-1","-1","poldrack-single-stim","365","643953","0.0-326.0","pilot-40_ses-03_1","","500","0","cue","","<div class = centerbox><div class = img-container><img src = ""/static/experiments/dot_pattern_expectancy/images/cue4.png""</img></div></div>","none","500","test","AX","24","","",""
"-1","-1","poldrack-single-stim","366","645962","0.0-327.0","pilot-40_ses-03_1","","2000","0","fixation","","<div class = centerbox><div class = fixation>+</div></div>","none","2000","test","","","","",""
"454","89","poldrack-single-stim","367","648162","0.0-328.0","pilot-40_ses-03_1","","2180","0","probe","","<div class = centerbox><div class = img-container><img src = ""/static/experiments/dot_pattern_expectancy/images/probe1.png""</img></div></div>","89,71","500","test","AX","24","89","true",""
"-1","-1","poldrack-single-stim","368","648672","0.0-329.0","pilot-40_ses-03_1","","500","0","cue","","<div class = centerbox><div class = img-container><img src = ""/static/experiments/dot_pattern_expectancy/images/cue2.png""</img></div></div>","none","500","test","BX","25","","",""
"-1","-1","poldrack-single-stim","369","650683","0.0-330.0","pilot-40_ses-03_1","","2000","0","fixation","","<div class = centerbox><div class = fixation>+</div></div>","none","2000","test","","","","",""
"701","71","poldrack-single-stim","370","652462","0.0-331.0","pilot-40_ses-03_1","","1772","0","probe","","<div class = centerbox><div class = img-container><img src = ""/static/experiments/dot_pattern_expectancy/images/probe1.png""</img></div></div>","89,71","500","test","BX","25","71","true",""
"-1","-1","poldrack-single-stim","371","652984","0.0-332.0","pilot-40_ses-03_1","","500","0","cue","","<div class = centerbox><div class = img-container><img src = ""/static/experiments/dot_pattern_expectancy/images/cue1.png""</img></div></div>","none","500","test","BY","26","","",""
"-1","-1","poldrack-single-stim","372","655002","0.0-333.0","pilot-40_ses-03_1","","2000","0","fixation","","<div class = centerbox><div class = fixation>+</div></div>","none","2000","test","","","","",""
"583","71","poldrack-single-stim","373","656522","0.0-334.0","pilot-40_ses-03_1","","1500","0","probe","","<div class = centerbox><div class = img-container><img src = ""/static/experiments/dot_pattern_expectancy/images/probe6.png""</img></div></div>","89,71","500","test","BY","26","71","true",""
"-1","-1","poldrack-single-stim","374","657031","0.0-335.0","pilot-40_ses-03_1","","500","0","cue","","<div class = centerbox><div class = img-container><img src = ""/static/experiments/dot_pattern_expectancy/images/cue4.png""</img></div></div>","none","500","test","AX","27","","",""
"-1","-1","poldrack-single-stim","375","659042","0.0-336.0","pilot-40_ses-03_1","","2000","0","fixation","","<div class = centerbox><div class = fixation>+</div></div>","none","2000","test","","","","",""
"539","89","poldrack-single-stim","376","660562","0.0-337.0","pilot-40_ses-03_1","","1500","0","probe","","<div class = centerbox><div class = img-container><img src = ""/static/experiments/dot_pattern_expectancy/images/probe1.png""</img></div></div>","89,71","500","test","AX","27","89","true",""
"-1","-1","poldrack-single-stim","377","661083","0.0-338.0","pilot-40_ses-03_1","","500","0","cue","","<div class = centerbox><div class = img-container><img src = ""/static/experiments/dot_pattern_expectancy/images/cue4.png""</img></div></div>","none","500","test","AX","28","","",""
"-1","-1","poldrack-single-stim","378","663091","0.0-339.0","pilot-40_ses-03_1","","2000","0","fixation","","<div class = centerbox><div class = fixation>+</div></div>","none","2000","test","","","","",""
"391","89","poldrack-single-stim","379","664742","0.0-340.0","pilot-40_ses-03_1","","1636","0","probe","","<div class = centerbox><div class = img-container><img src = ""/static/experiments/dot_pattern_expectancy/images/probe1.png""</img></div></div>","89,71","500","test","AX","28","89","true",""
"-1","-1","poldrack-single-stim","380","665263","0.0-341.0","pilot-40_ses-03_1","","500","0","cue","","<div class = centerbox><div class = img-container><img src = ""/static/experiments/dot_pattern_expectancy/images/cue4.png""</img></div></div>","none","500","test","AY","29","","",""
"-1","-1","poldrack-single-stim","381","667283","0.0-342.0","pilot-40_ses-03_1","","2000","0","fixation","","<div class = centerbox><div class = fixation>+</div></div>","none","2000","test","","","","",""
