"rt","key_press","trial_type","trial_index","time_elapsed","internal_node_id","subject","text","block_duration","timing_post_trial","trial_id","responses","stimulus","possible_responses","stim_duration","exp_stage","cue","stim_color","stim_number","task","task_switch","cue_switch","trial_num","correct","correct_response","feedback_duration","exp_id"
"5404","13","text","0","5407","0.0-0.0","pilot-38_ses-01_run2","","","","","","","","","","","","","","","","","","","",""
"1993","89","poldrack-text","1","8416","0.0-1.0","pilot-38_ses-01_run2","<div class = centerbox><div style = 'font-size: 50px' class = center-text>Veuillez appuyer avec votre index</p></div>","1993","500","fmri_response_test","","","","","","","","","","","","","","","",""
"299","71","poldrack-text","2","9243","0.0-2.0","pilot-38_ses-01_run2","<div class = centerbox><div style = 'font-size: 50px' class = center-text>Veuillez appuyer avec votre majeur</p></div>","299","500","fmri_response_test","","","","","","","","","","","","","","","",""
"6405","","survey-text","3","16185","0.0-3.0","pilot-38_ses-01_run2","","","","task_setup","{""Q0"":""2"",""Q1"":""2""}","","","","","","","","","","","","","","",""
"4432","32","poldrack-single-stim","4","21637","0.0-4.0","pilot-38_ses-01_run2","","4432","0","instructions","","<div class = centerbox><div class = center-text style=""font-size:40px""><strong>Color</strong> or <strong>Orange-Blue</strong>: Majeur if orange and Index if blue.<br><br><strong>Magnitude</strong> or <strong>High-Low</strong>: Majeur if >5 and Index if <5.</div></div>","32","4432","","","","","","","","","","","",""
"","","call-function","5","21638","0.0-5.0-0.0","pilot-38_ses-01_run2","","","","set_stims","","","","","","","","","","","","","","","",""
"-1","-1","poldrack-single-stim","6","22156","0.0-5.0-1.0","pilot-38_ses-01_run2","","500","0","fixation","","<div class = upperbox><div class = fixation>+</div></div><div class = lowerbox><div class = fixation>+</div></div>","none","500","practice","","","","","","","","","","",""
"-1","-1","poldrack-single-stim","7","22286","0.0-5.0-2.0","pilot-38_ses-01_run2","","100","0","cue","","<div class = upperbox><div class = ""center-text"" >Haut-Bas</div></div><div class = lowerbox><div class = fixation>+</div></div>","none","100","practice","Haut-Bas","#1F45FC","3","magnitude","stay","stay","0","","","",""
"947","89","poldrack-categorize","8","24824","0.0-5.0-3.0","pilot-38_ses-01_run2","","2000","0","stim","","<div class = upperbox><div class = ""center-text"" >Haut-Bas</div></div><div class = lowerbox><div class = ""stim-text"" style=color:#1F45FC;>3</div>","89,71","1000","practice","Haut-Bas","#1F45FC","3","magnitude","stay","stay","0","true","89","500",""
"-1","-1","poldrack-single-stim","9","25326","0.0-5.0-4.0","pilot-38_ses-01_run2","","500","0","gap",""," ","none","500","practice","","","","","","","","","","",""
"","","call-function","10","25327","0.0-5.0-5.0","pilot-38_ses-01_run2","","","","set_stims","","","","","","","","","","","","","","","",""
"-1","-1","poldrack-single-stim","11","25828","0.0-5.0-6.0","pilot-38_ses-01_run2","","500","0","fixation","","<div class = upperbox><div class = fixation>+</div></div><div class = lowerbox><div class = fixation>+</div></div>","none","500","practice","","","","","","","","","","",""
"-1","-1","poldrack-single-stim","12","25944","0.0-5.0-7.0","pilot-38_ses-01_run2","","100","0","cue","","<div class = upperbox><div class = ""center-text"" >Amplitude</div></div><div class = lowerbox><div class = fixation>+</div></div>","none","100","practice","Amplitude","orange","8","magnitude","stay","switch","1","","","",""
"687","71","poldrack-categorize","13","28493","0.0-5.0-8.0","pilot-38_ses-01_run2","","2000","0","stim","","<div class = upperbox><div class = ""center-text"" >Amplitude</div></div><div class = lowerbox><div class = ""stim-text"" style=color:orange;>8</div>","89,71","1000","practice","Amplitude","orange","8","magnitude","stay","switch","1","true","71","500",""
"-1","-1","poldrack-single-stim","14","28989","0.0-5.0-9.0","pilot-38_ses-01_run2","","500","0","gap",""," ","none","500","practice","","","","","","","","","","",""
"","","call-function","15","28990","0.0-5.0-10.0","pilot-38_ses-01_run2","","","","set_stims","","","","","","","","","","","","","","","",""
"-1","-1","poldrack-single-stim","16","29493","0.0-5.0-11.0","pilot-38_ses-01_run2","","500","0","fixation","","<div class = upperbox><div class = fixation>+</div></div><div class = lowerbox><div class = fixation>+</div></div>","none","500","practice","","","","","","","","","","",""
"-1","-1","poldrack-single-stim","17","30414","0.0-5.0-12.0","pilot-38_ses-01_run2","","900","0","cue","","<div class = upperbox><div class = ""center-text"" >Couleur</div></div><div class = lowerbox><div class = fixation>+</div></div>","none","900","practice","Couleur","#1F45FC","7","color","switch","stay","2","","","",""
"579","89","poldrack-categorize","18","32945","0.0-5.0-13.0","pilot-38_ses-01_run2","","2000","0","stim","","<div class = upperbox><div class = ""center-text"" >Couleur</div></div><div class = lowerbox><div class = ""stim-text"" style=color:#1F45FC;>7</div>","89,71","1000","practice","Couleur","#1F45FC","7","color","switch","stay","2","true","89","500",""
"-1","-1","poldrack-single-stim","19","33430","0.0-5.0-14.0","pilot-38_ses-01_run2","","500","0","gap",""," ","none","500","practice","","","","","","","","","","",""
"","","call-function","20","33430","0.0-5.0-15.0","pilot-38_ses-01_run2","","","","set_stims","","","","","","","","","","","","","","","",""
"-1","-1","poldrack-single-stim","21","33948","0.0-5.0-16.0","pilot-38_ses-01_run2","","500","0","fixation","","<div class = upperbox><div class = fixation>+</div></div><div class = lowerbox><div class = fixation>+</div></div>","none","500","practice","","","","","","","","","","",""
"-1","-1","poldrack-single-stim","22","34869","0.0-5.0-17.0","pilot-38_ses-01_run2","","900","0","cue","","<div class = upperbox><div class = ""center-text"" >Amplitude</div></div><div class = lowerbox><div class = fixation>+</div></div>","none","900","practice","Amplitude","#1F45FC","9","magnitude","switch","switch","3","","","",""
"680","71","poldrack-categorize","23","37419","0.0-5.0-18.0","pilot-38_ses-01_run2","","2000","0","stim","","<div class = upperbox><div class = ""center-text"" >Amplitude</div></div><div class = lowerbox><div class = ""stim-text"" style=color:#1F45FC;>9</div>","89,71","1000","practice","Amplitude","#1F45FC","9","magnitude","switch","switch","3","true","71","500",""
"-1","-1","poldrack-single-stim","24","37922","0.0-5.0-19.0","pilot-38_ses-01_run2","","500","0","gap",""," ","none","500","practice","","","","","","","","","","",""
"","","call-function","25","37922","0.0-5.0-20.0","pilot-38_ses-01_run2","","","","set_stims","","","","","","","","","","","","","","","",""
"-1","-1","poldrack-single-stim","26","38407","0.0-5.0-21.0","pilot-38_ses-01_run2","","500","0","fixation","","<div class = upperbox><div class = fixation>+</div></div><div class = lowerbox><div class = fixation>+</div></div>","none","500","practice","","","","","","","","","","",""
"-1","-1","poldrack-single-stim","27","38526","0.0-5.0-22.0","pilot-38_ses-01_run2","","100","0","cue","","<div class = upperbox><div class = ""center-text"" >Couleur</div></div><div class = lowerbox><div class = fixation>+</div></div>","none","100","practice","Couleur","#1F45FC","7","color","switch","stay","4","","","",""
"753","89","poldrack-categorize","28","41071","0.0-5.0-23.0","pilot-38_ses-01_run2","","2000","0","stim","","<div class = upperbox><div class = ""center-text"" >Couleur</div></div><div class = lowerbox><div class = ""stim-text"" style=color:#1F45FC;>7</div>","89,71","1000","practice","Couleur","#1F45FC","7","color","switch","stay","4","true","89","500",""
"-1","-1","poldrack-single-stim","29","41568","0.0-5.0-24.0","pilot-38_ses-01_run2","","500","0","gap",""," ","none","500","practice","","","","","","","","","","",""
"","","call-function","30","41569","0.0-5.0-25.0","pilot-38_ses-01_run2","","","","set_stims","","","","","","","","","","","","","","","",""
"-1","-1","poldrack-single-stim","31","42069","0.0-5.0-26.0","pilot-38_ses-01_run2","","500","0","fixation","","<div class = upperbox><div class = fixation>+</div></div><div class = lowerbox><div class = fixation>+</div></div>","none","500","practice","","","","","","","","","","",""
"-1","-1","poldrack-single-stim","32","42201","0.0-5.0-27.0","pilot-38_ses-01_run2","","100","0","cue","","<div class = upperbox><div class = ""center-text"" >Amplitude</div></div><div class = lowerbox><div class = fixation>+</div></div>","none","100","practice","Amplitude","#1F45FC","1","magnitude","switch","switch","5","","","",""
"699","89","poldrack-categorize","33","44742","0.0-5.0-28.0","pilot-38_ses-01_run2","","2000","0","stim","","<div class = upperbox><div class = ""center-text"" >Amplitude</div></div><div class = lowerbox><div class = ""stim-text"" style=color:#1F45FC;>1</div>","89,71","1000","practice","Amplitude","#1F45FC","1","magnitude","switch","switch","5","true","89","500",""
"-1","-1","poldrack-single-stim","34","45242","0.0-5.0-29.0","pilot-38_ses-01_run2","","500","0","gap",""," ","none","500","practice","","","","","","","","","","",""
"","","call-function","35","45242","0.0-5.0-30.0","pilot-38_ses-01_run2","","","","set_stims","","","","","","","","","","","","","","","",""
"-1","-1","poldrack-single-stim","36","45747","0.0-5.0-31.0","pilot-38_ses-01_run2","","500","0","fixation","","<div class = upperbox><div class = fixation>+</div></div><div class = lowerbox><div class = fixation>+</div></div>","none","500","practice","","","","","","","","","","",""
"-1","-1","poldrack-single-stim","37","46670","0.0-5.0-32.0","pilot-38_ses-01_run2","","900","0","cue","","<div class = upperbox><div class = ""center-text"" >Haut-Bas</div></div><div class = lowerbox><div class = fixation>+</div></div>","none","900","practice","Haut-Bas","#1F45FC","3","magnitude","stay","switch","6","","","",""
"1494","89","poldrack-categorize","38","49218","0.0-5.0-33.0","pilot-38_ses-01_run2","","2000","0","stim","","<div class = upperbox><div class = ""center-text"" >Haut-Bas</div></div><div class = lowerbox><div class = ""stim-text"" style=color:#1F45FC;>3</div>","89,71","1000","practice","Haut-Bas","#1F45FC","3","magnitude","stay","switch","6","true","89","500",""
"-1","-1","poldrack-single-stim","39","49720","0.0-5.0-34.0","pilot-38_ses-01_run2","","500","0","gap",""," ","none","500","practice","","","","","","","","","","",""
"","","call-function","40","49720","0.0-5.0-35.0","pilot-38_ses-01_run2","","","","set_stims","","","","","","","","","","","","","","","",""
"-1","-1","poldrack-single-stim","41","50223","0.0-5.0-36.0","pilot-38_ses-01_run2","","500","0","fixation","","<div class = upperbox><div class = fixation>+</div></div><div class = lowerbox><div class = fixation>+</div></div>","none","500","practice","","","","","","","","","","",""
"-1","-1","poldrack-single-stim","42","50354","0.0-5.0-37.0","pilot-38_ses-01_run2","","100","0","cue","","<div class = upperbox><div class = ""center-text"" >Haut-Bas</div></div><div class = lowerbox><div class = fixation>+</div></div>","none","100","practice","Haut-Bas","#1F45FC","4","magnitude","stay","stay","7","","","",""
"793","89","poldrack-categorize","43","52882","0.0-5.0-38.0","pilot-38_ses-01_run2","","2000","0","stim","","<div class = upperbox><div class = ""center-text"" >Haut-Bas</div></div><div class = lowerbox><div class = ""stim-text"" style=color:#1F45FC;>4</div>","89,71","1000","practice","Haut-Bas","#1F45FC","4","magnitude","stay","stay","7","true","89","500",""
"-1","-1","poldrack-single-stim","44","53390","0.0-5.0-39.0","pilot-38_ses-01_run2","","500","0","gap",""," ","none","500","practice","","","","","","","","","","",""
"","","call-function","45","53390","0.0-5.0-40.0","pilot-38_ses-01_run2","","","","set_stims","","","","","","","","","","","","","","","",""
"-1","-1","poldrack-single-stim","46","53905","0.0-5.0-41.0","pilot-38_ses-01_run2","","500","0","fixation","","<div class = upperbox><div class = fixation>+</div></div><div class = lowerbox><div class = fixation>+</div></div>","none","500","practice","","","","","","","","","","",""
"-1","-1","poldrack-single-stim","47","54037","0.0-5.0-42.0","pilot-38_ses-01_run2","","100","0","cue","","<div class = upperbox><div class = ""center-text"" >Orange-Bleu</div></div><div class = lowerbox><div class = fixation>+</div></div>","none","100","practice","Orange-Bleu","orange","7","color","switch","switch","8","","","",""
"757","71","poldrack-categorize","48","56575","0.0-5.0-43.0","pilot-38_ses-01_run2","","2000","0","stim","","<div class = upperbox><div class = ""center-text"" >Orange-Bleu</div></div><div class = lowerbox><div class = ""stim-text"" style=color:orange;>7</div>","89,71","1000","practice","Orange-Bleu","orange","7","color","switch","switch","8","true","71","500",""
"-1","-1","poldrack-single-stim","49","57077","0.0-5.0-44.0","pilot-38_ses-01_run2","","500","0","gap",""," ","none","500","practice","","","","","","","","","","",""
"","","call-function","50","57077","0.0-5.0-45.0","pilot-38_ses-01_run2","","","","set_stims","","","","","","","","","","","","","","","",""
"-1","-1","poldrack-single-stim","51","57580","0.0-5.0-46.0","pilot-38_ses-01_run2","","500","0","fixation","","<div class = upperbox><div class = fixation>+</div></div><div class = lowerbox><div class = fixation>+</div></div>","none","500","practice","","","","","","","","","","",""
"-1","-1","poldrack-single-stim","52","57696","0.0-5.0-47.0","pilot-38_ses-01_run2","","100","0","cue","","<div class = upperbox><div class = ""center-text"" >Amplitude</div></div><div class = lowerbox><div class = fixation>+</div></div>","none","100","practice","Amplitude","orange","4","magnitude","switch","stay","9","","","",""
"893","89","poldrack-categorize","53","60242","0.0-5.0-48.0","pilot-38_ses-01_run2","","2000","0","stim","","<div class = upperbox><div class = ""center-text"" >Amplitude</div></div><div class = lowerbox><div class = ""stim-text"" style=color:orange;>4</div>","89,71","1000","practice","Amplitude","orange","4","magnitude","switch","stay","9","true","89","500",""
"-1","-1","poldrack-single-stim","54","60748","0.0-5.0-49.0","pilot-38_ses-01_run2","","500","0","gap",""," ","none","500","practice","","","","","","","","","","",""
"","","call-function","55","60749","0.0-5.0-50.0","pilot-38_ses-01_run2","","","","set_stims","","","","","","","","","","","","","","","",""
"-1","-1","poldrack-single-stim","56","61239","0.0-5.0-51.0","pilot-38_ses-01_run2","","500","0","fixation","","<div class = upperbox><div class = fixation>+</div></div><div class = lowerbox><div class = fixation>+</div></div>","none","500","practice","","","","","","","","","","",""
"-1","-1","poldrack-single-stim","57","62157","0.0-5.0-52.0","pilot-38_ses-01_run2","","900","0","cue","","<div class = upperbox><div class = ""center-text"" >Couleur</div></div><div class = lowerbox><div class = fixation>+</div></div>","none","900","practice","Couleur","orange","2","color","switch","switch","10","","","",""
"685","71","poldrack-categorize","58","64681","0.0-5.0-53.0","pilot-38_ses-01_run2","","2000","0","stim","","<div class = upperbox><div class = ""center-text"" >Couleur</div></div><div class = lowerbox><div class = ""stim-text"" style=color:orange;>2</div>","89,71","1000","practice","Couleur","orange","2","color","switch","switch","10","true","71","500",""
"-1","-1","poldrack-single-stim","59","65209","0.0-5.0-54.0","pilot-38_ses-01_run2","","500","0","gap",""," ","none","500","practice","","","","","","","","","","",""
"","","call-function","60","65209","0.0-5.0-55.0","pilot-38_ses-01_run2","","","","set_stims","","","","","","","","","","","","","","","",""
"-1","-1","poldrack-single-stim","61","65688","0.0-5.0-56.0","pilot-38_ses-01_run2","","500","0","fixation","","<div class = upperbox><div class = fixation>+</div></div><div class = lowerbox><div class = fixation>+</div></div>","none","500","practice","","","","","","","","","","",""
"-1","-1","poldrack-single-stim","62","65819","0.0-5.0-57.0","pilot-38_ses-01_run2","","100","0","cue","","<div class = upperbox><div class = ""center-text"" >Orange-Bleu</div></div><div class = lowerbox><div class = fixation>+</div></div>","none","100","practice","Orange-Bleu","#1F45FC","6","color","stay","switch","11","","","",""
"709","89","poldrack-categorize","63","68365","0.0-5.0-58.0","pilot-38_ses-01_run2","","2000","0","stim","","<div class = upperbox><div class = ""center-text"" >Orange-Bleu</div></div><div class = lowerbox><div class = ""stim-text"" style=color:#1F45FC;>6</div>","89,71","1000","practice","Orange-Bleu","#1F45FC","6","color","stay","switch","11","true","89","500",""
"-1","-1","poldrack-single-stim","64","68848","0.0-5.0-59.0","pilot-38_ses-01_run2","","500","0","gap",""," ","none","500","practice","","","","","","","","","","",""
"","","call-function","65","68848","0.0-5.0-60.0","pilot-38_ses-01_run2","","","","set_stims","","","","","","","","","","","","","","","",""
"-1","-1","poldrack-single-stim","66","69349","0.0-5.0-61.0","pilot-38_ses-01_run2","","500","0","fixation","","<div class = upperbox><div class = fixation>+</div></div><div class = lowerbox><div class = fixation>+</div></div>","none","500","practice","","","","","","","","","","",""
"-1","-1","poldrack-single-stim","67","70276","0.0-5.0-62.0","pilot-38_ses-01_run2","","900","0","cue","","<div class = upperbox><div class = ""center-text"" >Orange-Bleu</div></div><div class = lowerbox><div class = fixation>+</div></div>","none","900","practice","Orange-Bleu","#1F45FC","4","color","stay","stay","12","","","",""
"530","89","poldrack-categorize","68","72815","0.0-5.0-63.0","pilot-38_ses-01_run2","","2000","0","stim","","<div class = upperbox><div class = ""center-text"" >Orange-Bleu</div></div><div class = lowerbox><div class = ""stim-text"" style=color:#1F45FC;>4</div>","89,71","1000","practice","Orange-Bleu","#1F45FC","4","color","stay","stay","12","true","89","500",""
"-1","-1","poldrack-single-stim","69","73317","0.0-5.0-64.0","pilot-38_ses-01_run2","","500","0","gap",""," ","none","500","practice","","","","","","","","","","",""
"","","call-function","70","73318","0.0-5.0-65.0","pilot-38_ses-01_run2","","","","set_stims","","","","","","","","","","","","","","","",""
"-1","-1","poldrack-single-stim","71","73819","0.0-5.0-66.0","pilot-38_ses-01_run2","","500","0","fixation","","<div class = upperbox><div class = fixation>+</div></div><div class = lowerbox><div class = fixation>+</div></div>","none","500","practice","","","","","","","","","","",""
"-1","-1","poldrack-single-stim","72","74742","0.0-5.0-67.0","pilot-38_ses-01_run2","","900","0","cue","","<div class = upperbox><div class = ""center-text"" >Orange-Bleu</div></div><div class = lowerbox><div class = fixation>+</div></div>","none","900","practice","Orange-Bleu","orange","1","color","stay","stay","13","","","",""
"1399","71","poldrack-categorize","73","77280","0.0-5.0-68.0","pilot-38_ses-01_run2","","2000","0","stim","","<div class = upperbox><div class = ""center-text"" >Orange-Bleu</div></div><div class = lowerbox><div class = ""stim-text"" style=color:orange;>1</div>","89,71","1000","practice","Orange-Bleu","orange","1","color","stay","stay","13","true","71","500",""
"-1","-1","poldrack-single-stim","74","77781","0.0-5.0-69.0","pilot-38_ses-01_run2","","500","0","gap",""," ","none","500","practice","","","","","","","","","","",""
"","","call-function","75","77781","0.0-5.0-70.0","pilot-38_ses-01_run2","","","","set_stims","","","","","","","","","","","","","","","",""
"-1","-1","poldrack-single-stim","76","78290","0.0-5.0-71.0","pilot-38_ses-01_run2","","500","0","fixation","","<div class = upperbox><div class = fixation>+</div></div><div class = lowerbox><div class = fixation>+</div></div>","none","500","practice","","","","","","","","","","",""
"-1","-1","poldrack-single-stim","77","79208","0.0-5.0-72.0","pilot-38_ses-01_run2","","900","0","cue","","<div class = upperbox><div class = ""center-text"" >Haut-Bas</div></div><div class = lowerbox><div class = fixation>+</div></div>","none","900","practice","Haut-Bas","#1F45FC","9","magnitude","switch","stay","14","","","",""
"722","71","poldrack-categorize","78","81756","0.0-5.0-73.0","pilot-38_ses-01_run2","","2000","0","stim","","<div class = upperbox><div class = ""center-text"" >Haut-Bas</div></div><div class = lowerbox><div class = ""stim-text"" style=color:#1F45FC;>9</div>","89,71","1000","practice","Haut-Bas","#1F45FC","9","magnitude","switch","stay","14","true","71","500",""
"-1","-1","poldrack-single-stim","79","82241","0.0-5.0-74.0","pilot-38_ses-01_run2","","500","0","gap",""," ","none","500","practice","","","","","","","","","","",""
"","","call-function","80","82242","0.0-5.0-75.0","pilot-38_ses-01_run2","","","","set_stims","","","","","","","","","","","","","","","",""
"-1","-1","poldrack-single-stim","81","82762","0.0-5.0-76.0","pilot-38_ses-01_run2","","500","0","fixation","","<div class = upperbox><div class = fixation>+</div></div><div class = lowerbox><div class = fixation>+</div></div>","none","500","practice","","","","","","","","","","",""
"-1","-1","poldrack-single-stim","82","83688","0.0-5.0-77.0","pilot-38_ses-01_run2","","900","0","cue","","<div class = upperbox><div class = ""center-text"" >Amplitude</div></div><div class = lowerbox><div class = fixation>+</div></div>","none","900","practice","Amplitude","orange","4","magnitude","stay","switch","15","","","",""
"1150","89","poldrack-categorize","83","86217","0.0-5.0-78.0","pilot-38_ses-01_run2","","2000","0","stim","","<div class = upperbox><div class = ""center-text"" >Amplitude</div></div><div class = lowerbox><div class = ""stim-text"" style=color:orange;>4</div>","89,71","1000","practice","Amplitude","orange","4","magnitude","stay","switch","15","true","89","500",""
"-1","-1","poldrack-single-stim","84","86719","0.0-5.0-79.0","pilot-38_ses-01_run2","","500","0","gap",""," ","none","500","practice","","","","","","","","","","",""
"1865","32","poldrack-text","85","88592","0.0-6.0","pilot-38_ses-01_run2","<div class = centerbox><div  class = center-text>Scanner Setup</div></div>","1865","0","fmri_scanner_wait","","","","","","","","","","","","","","","",""
"64067","84","poldrack-text","86","152661","0.0-7.0","pilot-38_ses-01_run2","<div class = centerbox><div style='color:red'; class = center-text>+</div></div>","64067","0","fmri_trigger_wait","","","","","","","","","","","","","","","",""
"-1","-1","poldrack-single-stim","87","153679","0.0-8.0","pilot-38_ses-01_run2","","1000","0","fmri_buffer","","","none","1000","","","","","","","","","","","",""
"-1","-1","poldrack-single-stim","88","155204","0.0-9.0","pilot-38_ses-01_run2","","1500","500","test_start_block","","<div class = centerbox><div class = center-text>Preparez-vous!</p></div>","none","1500","","","","","","","","","","","",""
"-1","-1","poldrack-single-stim","89","156230","0.0-10.0","pilot-38_ses-01_run2","","500","0","fixation","","<div class = upperbox><div class = fixation>+</div></div><div class = lowerbox><div class = fixation>+</div></div>","none","500","test","","","","","","","","","","",""
"","","call-function","90","156230","0.0-11.0","pilot-38_ses-01_run2","","","","set_stims","","","","","","","","","","","","","","","",""
"-1","-1","poldrack-single-stim","91","156359","0.0-12.0","pilot-38_ses-01_run2","","100","0","cue","","<div class = upperbox><div class = ""center-text"" >Amplitude</div></div><div class = lowerbox><div class = fixation>+</div></div>","none","100","test","Amplitude","#1F45FC","3","magnitude","stay","stay","0","","","",""
"656","89","poldrack-single-stim","92","159592","0.0-13.0","pilot-38_ses-01_run2","","3224","0","stim","","<div class = upperbox><div class = ""center-text"" >Amplitude</div></div><div class = lowerbox><div class = ""stim-text"" style=color:#1F45FC;>3</div>","89,71","1000","test","Amplitude","#1F45FC","3","magnitude","stay","stay","0","true","89","",""
"","","call-function","93","159592","0.0-14.0","pilot-38_ses-01_run2","","","","set_stims","","","","","","","","","","","","","","","",""
"-1","-1","poldrack-single-stim","94","159710","0.0-15.0","pilot-38_ses-01_run2","","100","0","cue","","<div class = upperbox><div class = ""center-text"" >Orange-Bleu</div></div><div class = lowerbox><div class = fixation>+</div></div>","none","100","test","Orange-Bleu","orange","8","color","switch","switch","1","","","",""
"754","71","poldrack-single-stim","95","162137","0.0-16.0","pilot-38_ses-01_run2","","2408","0","stim","","<div class = upperbox><div class = ""center-text"" >Orange-Bleu</div></div><div class = lowerbox><div class = ""stim-text"" style=color:orange;>8</div>","89,71","1000","test","Orange-Bleu","orange","8","color","switch","switch","1","true","71","",""
"","","call-function","96","162137","0.0-17.0","pilot-38_ses-01_run2","","","","set_stims","","","","","","","","","","","","","","","",""
"-1","-1","poldrack-single-stim","97","162256","0.0-18.0","pilot-38_ses-01_run2","","100","0","cue","","<div class = upperbox><div class = ""center-text"" >Haut-Bas</div></div><div class = lowerbox><div class = fixation>+</div></div>","none","100","test","Haut-Bas","#1F45FC","7","magnitude","switch","stay","2","","","",""
"1245","71","poldrack-single-stim","98","165100","0.0-19.0","pilot-38_ses-01_run2","","2816","0","stim","","<div class = upperbox><div class = ""center-text"" >Haut-Bas</div></div><div class = lowerbox><div class = ""stim-text"" style=color:#1F45FC;>7</div>","89,71","1000","test","Haut-Bas","#1F45FC","7","magnitude","switch","stay","2","true","71","",""
"","","call-function","99","165102","0.0-20.0","pilot-38_ses-01_run2","","","","set_stims","","","","","","","","","","","","","","","",""
"-1","-1","poldrack-single-stim","100","165231","0.0-21.0","pilot-38_ses-01_run2","","100","0","cue","","<div class = upperbox><div class = ""center-text"" >Couleur</div></div><div class = lowerbox><div class = fixation>+</div></div>","none","100","test","Couleur","#1F45FC","9","color","switch","stay","3","","","",""
"857","89","poldrack-single-stim","101","167661","0.0-22.0","pilot-38_ses-01_run2","","2408","0","stim","","<div class = upperbox><div class = ""center-text"" >Couleur</div></div><div class = lowerbox><div class = ""stim-text"" style=color:#1F45FC;>9</div>","89,71","1000","test","Couleur","#1F45FC","9","color","switch","stay","3","true","89","",""
"","","call-function","102","167662","0.0-23.0","pilot-38_ses-01_run2","","","","set_stims","","","","","","","","","","","","","","","",""
"-1","-1","poldrack-single-stim","103","168586","0.0-24.0","pilot-38_ses-01_run2","","900","0","cue","","<div class = upperbox><div class = ""center-text"" >Haut-Bas</div></div><div class = lowerbox><div class = fixation>+</div></div>","none","900","test","Haut-Bas","#1F45FC","7","magnitude","switch","stay","4","","","",""
"913","89","poldrack-single-stim","104","170739","0.0-25.0","pilot-38_ses-01_run2","","2136","0","stim","","<div class = upperbox><div class = ""center-text"" >Haut-Bas</div></div><div class = lowerbox><div class = ""stim-text"" style=color:#1F45FC;>7</div>","89,71","1000","test","Haut-Bas","#1F45FC","7","magnitude","switch","stay","4","false","71","",""
"","","call-function","105","170739","0.0-26.0","pilot-38_ses-01_run2","","","","set_stims","","","","","","","","","","","","","","","",""
"-1","-1","poldrack-single-stim","106","171657","0.0-27.0","pilot-38_ses-01_run2","","900","0","cue","","<div class = upperbox><div class = ""center-text"" >Haut-Bas</div></div><div class = lowerbox><div class = fixation>+</div></div>","none","900","test","Haut-Bas","#1F45FC","1","magnitude","stay","stay","5","","","",""
"613","89","poldrack-single-stim","107","173814","0.0-28.0","pilot-38_ses-01_run2","","2136","0","stim","","<div class = upperbox><div class = ""center-text"" >Haut-Bas</div></div><div class = lowerbox><div class = ""stim-text"" style=color:#1F45FC;>1</div>","89,71","1000","test","Haut-Bas","#1F45FC","1","magnitude","stay","stay","5","true","89","",""
"","","call-function","108","173814","0.0-29.0","pilot-38_ses-01_run2","","","","set_stims","","","","","","","","","","","","","","","",""
"-1","-1","poldrack-single-stim","109","173947","0.0-30.0","pilot-38_ses-01_run2","","100","0","cue","","<div class = upperbox><div class = ""center-text"" >Amplitude</div></div><div class = lowerbox><div class = fixation>+</div></div>","none","100","test","Amplitude","#1F45FC","3","magnitude","stay","switch","6","","","",""
"699","89","poldrack-single-stim","110","175971","0.0-31.0","pilot-38_ses-01_run2","","2000","0","stim","","<div class = upperbox><div class = ""center-text"" >Amplitude</div></div><div class = lowerbox><div class = ""stim-text"" style=color:#1F45FC;>3</div>","89,71","1000","test","Amplitude","#1F45FC","3","magnitude","stay","switch","6","true","89","",""
"","","call-function","111","175973","0.0-32.0","pilot-38_ses-01_run2","","","","set_stims","","","","","","","","","","","","","","","",""
"-1","-1","poldrack-single-stim","112","176074","0.0-33.0","pilot-38_ses-01_run2","","100","0","cue","","<div class = upperbox><div class = ""center-text"" >Haut-Bas</div></div><div class = lowerbox><div class = fixation>+</div></div>","none","100","test","Haut-Bas","#1F45FC","4","magnitude","stay","switch","7","","","",""
"717","89","poldrack-single-stim","113","178095","0.0-34.0","pilot-38_ses-01_run2","","2000","0","stim","","<div class = upperbox><div class = ""center-text"" >Haut-Bas</div></div><div class = lowerbox><div class = ""stim-text"" style=color:#1F45FC;>4</div>","89,71","1000","test","Haut-Bas","#1F45FC","4","magnitude","stay","switch","7","true","89","",""
"","","call-function","114","178095","0.0-35.0","pilot-38_ses-01_run2","","","","set_stims","","","","","","","","","","","","","","","",""
"-1","-1","poldrack-single-stim","115","179021","0.0-36.0","pilot-38_ses-01_run2","","900","0","cue","","<div class = upperbox><div class = ""center-text"" >Orange-Bleu</div></div><div class = lowerbox><div class = fixation>+</div></div>","none","900","test","Orange-Bleu","orange","7","color","switch","switch","8","","","",""
"449","71","poldrack-single-stim","116","181327","0.0-37.0","pilot-38_ses-01_run2","","2272","0","stim","","<div class = upperbox><div class = ""center-text"" >Orange-Bleu</div></div><div class = lowerbox><div class = ""stim-text"" style=color:orange;>7</div>","89,71","1000","test","Orange-Bleu","orange","7","color","switch","switch","8","true","71","",""
"","","call-function","117","181328","0.0-38.0","pilot-38_ses-01_run2","","","","set_stims","","","","","","","","","","","","","","","",""
"-1","-1","poldrack-single-stim","118","182250","0.0-39.0","pilot-38_ses-01_run2","","900","0","cue","","<div class = upperbox><div class = ""center-text"" >Amplitude</div></div><div class = lowerbox><div class = fixation>+</div></div>","none","900","test","Amplitude","orange","4","magnitude","switch","stay","9","","","",""
"517","89","poldrack-single-stim","119","184685","0.0-40.0","pilot-38_ses-01_run2","","2408","0","stim","","<div class = upperbox><div class = ""center-text"" >Amplitude</div></div><div class = lowerbox><div class = ""stim-text"" style=color:orange;>4</div>","89,71","1000","test","Amplitude","orange","4","magnitude","switch","stay","9","true","89","",""
"","","call-function","120","184685","0.0-41.0","pilot-38_ses-01_run2","","","","set_stims","","","","","","","","","","","","","","","",""
"-1","-1","poldrack-single-stim","121","185590","0.0-42.0","pilot-38_ses-01_run2","","900","0","cue","","<div class = upperbox><div class = ""center-text"" >Couleur</div></div><div class = lowerbox><div class = fixation>+</div></div>","none","900","test","Couleur","orange","2","color","switch","stay","10","","","",""
"716","71","poldrack-single-stim","122","187610","0.0-43.0","pilot-38_ses-01_run2","","2000","0","stim","","<div class = upperbox><div class = ""center-text"" >Couleur</div></div><div class = lowerbox><div class = ""stim-text"" style=color:orange;>2</div>","89,71","1000","test","Couleur","orange","2","color","switch","stay","10","true","71","",""
"","","call-function","123","187611","0.0-44.0","pilot-38_ses-01_run2","","","","set_stims","","","","","","","","","","","","","","","",""
"-1","-1","poldrack-single-stim","124","188531","0.0-45.0","pilot-38_ses-01_run2","","900","0","cue","","<div class = upperbox><div class = ""center-text"" >Orange-Bleu</div></div><div class = lowerbox><div class = fixation>+</div></div>","none","900","test","Orange-Bleu","#1F45FC","6","color","stay","switch","11","","","",""
"883","89","poldrack-single-stim","125","190678","0.0-46.0","pilot-38_ses-01_run2","","2136","0","stim","","<div class = upperbox><div class = ""center-text"" >Orange-Bleu</div></div><div class = lowerbox><div class = ""stim-text"" style=color:#1F45FC;>6</div>","89,71","1000","test","Orange-Bleu","#1F45FC","6","color","stay","switch","11","true","89","",""
"","","call-function","126","190678","0.0-47.0","pilot-38_ses-01_run2","","","","set_stims","","","","","","","","","","","","","","","",""
"-1","-1","poldrack-single-stim","127","191608","0.0-48.0","pilot-38_ses-01_run2","","900","0","cue","","<div class = upperbox><div class = ""center-text"" >Amplitude</div></div><div class = lowerbox><div class = fixation>+</div></div>","none","900","test","Amplitude","#1F45FC","4","magnitude","switch","stay","12","","","",""
"687","89","poldrack-single-stim","128","193629","0.0-49.0","pilot-38_ses-01_run2","","2000","0","stim","","<div class = upperbox><div class = ""center-text"" >Amplitude</div></div><div class = lowerbox><div class = ""stim-text"" style=color:#1F45FC;>4</div>","89,71","1000","test","Amplitude","#1F45FC","4","magnitude","switch","stay","12","true","89","",""
"","","call-function","129","193629","0.0-50.0","pilot-38_ses-01_run2","","","","set_stims","","","","","","","","","","","","","","","",""
"-1","-1","poldrack-single-stim","130","193767","0.0-51.0","pilot-38_ses-01_run2","","100","0","cue","","<div class = upperbox><div class = ""center-text"" >Couleur</div></div><div class = lowerbox><div class = fixation>+</div></div>","none","100","test","Couleur","orange","1","color","switch","stay","13","","","",""
"749","71","poldrack-single-stim","131","196195","0.0-52.0","pilot-38_ses-01_run2","","2408","0","stim","","<div class = upperbox><div class = ""center-text"" >Couleur</div></div><div class = lowerbox><div class = ""stim-text"" style=color:orange;>1</div>","89,71","1000","test","Couleur","orange","1","color","switch","stay","13","true","71","",""
"","","call-function","132","196196","0.0-53.0","pilot-38_ses-01_run2","","","","set_stims","","","","","","","","","","","","","","","",""
"-1","-1","poldrack-single-stim","133","196311","0.0-54.0","pilot-38_ses-01_run2","","100","0","cue","","<div class = upperbox><div class = ""center-text"" >Orange-Bleu</div></div><div class = lowerbox><div class = fixation>+</div></div>","none","100","test","Orange-Bleu","#1F45FC","9","color","stay","switch","14","","","",""
"753","89","poldrack-single-stim","134","198604","0.0-55.0","pilot-38_ses-01_run2","","2272","0","stim","","<div class = upperbox><div class = ""center-text"" >Orange-Bleu</div></div><div class = lowerbox><div class = ""stim-text"" style=color:#1F45FC;>9</div>","89,71","1000","test","Orange-Bleu","#1F45FC","9","color","stay","switch","14","true","89","",""
"","","call-function","135","198604","0.0-56.0","pilot-38_ses-01_run2","","","","set_stims","","","","","","","","","","","","","","","",""
"-1","-1","poldrack-single-stim","136","198720","0.0-57.0","pilot-38_ses-01_run2","","100","0","cue","","<div class = upperbox><div class = ""center-text"" >Amplitude</div></div><div class = lowerbox><div class = fixation>+</div></div>","none","100","test","Amplitude","orange","4","magnitude","switch","switch","15","","","",""
"853","89","poldrack-single-stim","137","200745","0.0-58.0","pilot-38_ses-01_run2","","2000","0","stim","","<div class = upperbox><div class = ""center-text"" >Amplitude</div></div><div class = lowerbox><div class = ""stim-text"" style=color:orange;>4</div>","89,71","1000","test","Amplitude","orange","4","magnitude","switch","switch","15","true","89","",""
"","","call-function","138","200745","0.0-59.0","pilot-38_ses-01_run2","","","","set_stims","","","","","","","","","","","","","","","",""
"-1","-1","poldrack-single-stim","139","201657","0.0-60.0","pilot-38_ses-01_run2","","900","0","cue","","<div class = upperbox><div class = ""center-text"" >Haut-Bas</div></div><div class = lowerbox><div class = fixation>+</div></div>","none","900","test","Haut-Bas","orange","8","magnitude","stay","switch","16","","","",""
"657","71","poldrack-single-stim","140","203955","0.0-61.0","pilot-38_ses-01_run2","","2272","0","stim","","<div class = upperbox><div class = ""center-text"" >Haut-Bas</div></div><div class = lowerbox><div class = ""stim-text"" style=color:orange;>8</div>","89,71","1000","test","Haut-Bas","orange","8","magnitude","stay","switch","16","true","71","",""
"","","call-function","141","203957","0.0-62.0","pilot-38_ses-01_run2","","","","set_stims","","","","","","","","","","","","","","","",""
"-1","-1","poldrack-single-stim","142","204089","0.0-63.0","pilot-38_ses-01_run2","","100","0","cue","","<div class = upperbox><div class = ""center-text"" >Couleur</div></div><div class = lowerbox><div class = fixation>+</div></div>","none","100","test","Couleur","#1F45FC","7","color","switch","switch","17","","","",""
"872","89","poldrack-single-stim","143","206108","0.0-64.0","pilot-38_ses-01_run2","","2000","0","stim","","<div class = upperbox><div class = ""center-text"" >Couleur</div></div><div class = lowerbox><div class = ""stim-text"" style=color:#1F45FC;>7</div>","89,71","1000","test","Couleur","#1F45FC","7","color","switch","switch","17","true","89","",""
"","","call-function","144","206109","0.0-65.0","pilot-38_ses-01_run2","","","","set_stims","","","","","","","","","","","","","","","",""
"-1","-1","poldrack-single-stim","145","206224","0.0-66.0","pilot-38_ses-01_run2","","100","0","cue","","<div class = upperbox><div class = ""center-text"" >Haut-Bas</div></div><div class = lowerbox><div class = fixation>+</div></div>","none","100","test","Haut-Bas","orange","2","magnitude","switch","switch","18","","","",""
"752","89","poldrack-single-stim","146","208252","0.0-67.0","pilot-38_ses-01_run2","","2000","0","stim","","<div class = upperbox><div class = ""center-text"" >Haut-Bas</div></div><div class = lowerbox><div class = ""stim-text"" style=color:orange;>2</div>","89,71","1000","test","Haut-Bas","orange","2","magnitude","switch","switch","18","true","89","",""
"","","call-function","147","208254","0.0-68.0","pilot-38_ses-01_run2","","","","set_stims","","","","","","","","","","","","","","","",""
"-1","-1","poldrack-single-stim","148","208379","0.0-69.0","pilot-38_ses-01_run2","","100","0","cue","","<div class = upperbox><div class = ""center-text"" >Haut-Bas</div></div><div class = lowerbox><div class = fixation>+</div></div>","none","100","test","Haut-Bas","#1F45FC","2","magnitude","stay","stay","19","","","",""
"748","89","poldrack-single-stim","149","210683","0.0-70.0","pilot-38_ses-01_run2","","2272","0","stim","","<div class = upperbox><div class = ""center-text"" >Haut-Bas</div></div><div class = lowerbox><div class = ""stim-text"" style=color:#1F45FC;>2</div>","89,71","1000","test","Haut-Bas","#1F45FC","2","magnitude","stay","stay","19","true","89","",""
"","","call-function","150","210684","0.0-71.0","pilot-38_ses-01_run2","","","","set_stims","","","","","","","","","","","","","","","",""
"-1","-1","poldrack-single-stim","151","210798","0.0-72.0","pilot-38_ses-01_run2","","100","0","cue","","<div class = upperbox><div class = ""center-text"" >Orange-Bleu</div></div><div class = lowerbox><div class = fixation>+</div></div>","none","100","test","Orange-Bleu","#1F45FC","9","color","switch","stay","20","","","",""
"718","89","poldrack-single-stim","152","212954","0.0-73.0","pilot-38_ses-01_run2","","2136","0","stim","","<div class = upperbox><div class = ""center-text"" >Orange-Bleu</div></div><div class = lowerbox><div class = ""stim-text"" style=color:#1F45FC;>9</div>","89,71","1000","test","Orange-Bleu","#1F45FC","9","color","switch","stay","20","true","89","",""
"","","call-function","153","212954","0.0-74.0","pilot-38_ses-01_run2","","","","set_stims","","","","","","","","","","","","","","","",""
"-1","-1","poldrack-single-stim","154","213095","0.0-75.0","pilot-38_ses-01_run2","","100","0","cue","","<div class = upperbox><div class = ""center-text"" >Haut-Bas</div></div><div class = lowerbox><div class = fixation>+</div></div>","none","100","test","Haut-Bas","orange","4","magnitude","switch","stay","21","","","",""
"680","89","poldrack-single-stim","155","215119","0.0-76.0","pilot-38_ses-01_run2","","2000","0","stim","","<div class = upperbox><div class = ""center-text"" >Haut-Bas</div></div><div class = lowerbox><div class = ""stim-text"" style=color:orange;>4</div>","89,71","1000","test","Haut-Bas","orange","4","magnitude","switch","stay","21","true","89","",""
"","","call-function","156","215119","0.0-77.0","pilot-38_ses-01_run2","","","","set_stims","","","","","","","","","","","","","","","",""
"-1","-1","poldrack-single-stim","157","215234","0.0-78.0","pilot-38_ses-01_run2","","100","0","cue","","<div class = upperbox><div class = ""center-text"" >Haut-Bas</div></div><div class = lowerbox><div class = fixation>+</div></div>","none","100","test","Haut-Bas","#1F45FC","8","magnitude","stay","stay","22","","","",""
"778","71","poldrack-single-stim","158","217258","0.0-79.0","pilot-38_ses-01_run2","","2000","0","stim","","<div class = upperbox><div class = ""center-text"" >Haut-Bas</div></div><div class = lowerbox><div class = ""stim-text"" style=color:#1F45FC;>8</div>","89,71","1000","test","Haut-Bas","#1F45FC","8","magnitude","stay","stay","22","true","71","",""
"","","call-function","159","217259","0.0-80.0","pilot-38_ses-01_run2","","","","set_stims","","","","","","","","","","","","","","","",""
"-1","-1","poldrack-single-stim","160","217388","0.0-81.0","pilot-38_ses-01_run2","","100","0","cue","","<div class = upperbox><div class = ""center-text"" >Couleur</div></div><div class = lowerbox><div class = fixation>+</div></div>","none","100","test","Couleur","orange","6","color","switch","stay","23","","","",""
"895","71","poldrack-single-stim","161","219417","0.0-82.0","pilot-38_ses-01_run2","","2000","0","stim","","<div class = upperbox><div class = ""center-text"" >Couleur</div></div><div class = lowerbox><div class = ""stim-text"" style=color:orange;>6</div>","89,71","1000","test","Couleur","orange","6","color","switch","stay","23","true","71","",""
"","","call-function","162","219418","0.0-83.0","pilot-38_ses-01_run2","","","","set_stims","","","","","","","","","","","","","","","",""
"-1","-1","poldrack-single-stim","163","220336","0.0-84.0","pilot-38_ses-01_run2","","900","0","cue","","<div class = upperbox><div class = ""center-text"" >Orange-Bleu</div></div><div class = lowerbox><div class = fixation>+</div></div>","none","900","test","Orange-Bleu","#1F45FC","6","color","stay","switch","24","","","",""
"668","89","poldrack-single-stim","164","222356","0.0-85.0","pilot-38_ses-01_run2","","2000","0","stim","","<div class = upperbox><div class = ""center-text"" >Orange-Bleu</div></div><div class = lowerbox><div class = ""stim-text"" style=color:#1F45FC;>6</div>","89,71","1000","test","Orange-Bleu","#1F45FC","6","color","stay","switch","24","true","89","",""
"","","call-function","165","222356","0.0-86.0","pilot-38_ses-01_run2","","","","set_stims","","","","","","","","","","","","","","","",""
"-1","-1","poldrack-single-stim","166","222489","0.0-87.0","pilot-38_ses-01_run2","","100","0","cue","","<div class = upperbox><div class = ""center-text"" >Orange-Bleu</div></div><div class = lowerbox><div class = fixation>+</div></div>","none","100","test","Orange-Bleu","#1F45FC","8","color","stay","stay","25","","","",""
"799","89","poldrack-single-stim","167","224511","0.0-88.0","pilot-38_ses-01_run2","","2000","0","stim","","<div class = upperbox><div class = ""center-text"" >Orange-Bleu</div></div><div class = lowerbox><div class = ""stim-text"" style=color:#1F45FC;>8</div>","89,71","1000","test","Orange-Bleu","#1F45FC","8","color","stay","stay","25","true","89","",""
"","","call-function","168","224511","0.0-89.0","pilot-38_ses-01_run2","","","","set_stims","","","","","","","","","","","","","","","",""
"-1","-1","poldrack-single-stim","169","225419","0.0-90.0","pilot-38_ses-01_run2","","900","0","cue","","<div class = upperbox><div class = ""center-text"" >Amplitude</div></div><div class = lowerbox><div class = fixation>+</div></div>","none","900","test","Amplitude","#1F45FC","8","magnitude","switch","switch","26","","","",""
"573","71","poldrack-single-stim","170","227579","0.0-91.0","pilot-38_ses-01_run2","","2136","0","stim","","<div class = upperbox><div class = ""center-text"" >Amplitude</div></div><div class = lowerbox><div class = ""stim-text"" style=color:#1F45FC;>8</div>","89,71","1000","test","Amplitude","#1F45FC","8","magnitude","switch","switch","26","true","71","",""
"","","call-function","171","227579","0.0-92.0","pilot-38_ses-01_run2","","","","set_stims","","","","","","","","","","","","","","","",""
"-1","-1","poldrack-single-stim","172","227711","0.0-93.0","pilot-38_ses-01_run2","","100","0","cue","","<div class = upperbox><div class = ""center-text"" >Amplitude</div></div><div class = lowerbox><div class = fixation>+</div></div>","none","100","test","Amplitude","#1F45FC","8","magnitude","stay","stay","27","","","",""
"773","71","poldrack-single-stim","173","229733","0.0-94.0","pilot-38_ses-01_run2","","2000","0","stim","","<div class = upperbox><div class = ""center-text"" >Amplitude</div></div><div class = lowerbox><div class = ""stim-text"" style=color:#1F45FC;>8</div>","89,71","1000","test","Amplitude","#1F45FC","8","magnitude","stay","stay","27","true","71","",""
"","","call-function","174","229733","0.0-95.0","pilot-38_ses-01_run2","","","","set_stims","","","","","","","","","","","","","","","",""
"-1","-1","poldrack-single-stim","175","230640","0.0-96.0","pilot-38_ses-01_run2","","900","0","cue","","<div class = upperbox><div class = ""center-text"" >Couleur</div></div><div class = lowerbox><div class = fixation>+</div></div>","none","900","test","Couleur","orange","1","color","switch","stay","28","","","",""
"869","71","poldrack-single-stim","176","232661","0.0-97.0","pilot-38_ses-01_run2","","2000","0","stim","","<div class = upperbox><div class = ""center-text"" >Couleur</div></div><div class = lowerbox><div class = ""stim-text"" style=color:orange;>1</div>","89,71","1000","test","Couleur","orange","1","color","switch","stay","28","true","71","",""
"","","call-function","177","232661","0.0-98.0","pilot-38_ses-01_run2","","","","set_stims","","","","","","","","","","","","","","","",""
"-1","-1","poldrack-single-stim","178","233579","0.0-99.0","pilot-38_ses-01_run2","","900","0","cue","","<div class = upperbox><div class = ""center-text"" >Orange-Bleu</div></div><div class = lowerbox><div class = fixation>+</div></div>","none","900","test","Orange-Bleu","#1F45FC","6","color","stay","switch","29","","","",""
"718","89","poldrack-single-stim","179","235734","0.0-100.0","pilot-38_ses-01_run2","","2136","0","stim","","<div class = upperbox><div class = ""center-text"" >Orange-Bleu</div></div><div class = lowerbox><div class = ""stim-text"" style=color:#1F45FC;>6</div>","89,71","1000","test","Orange-Bleu","#1F45FC","6","color","stay","switch","29","true","89","",""
"","","call-function","180","235734","0.0-101.0","pilot-38_ses-01_run2","","","","set_stims","","","","","","","","","","","","","","","",""
"-1","-1","poldrack-single-stim","181","235866","0.0-102.0","pilot-38_ses-01_run2","","100","0","cue","","<div class = upperbox><div class = ""center-text"" >Couleur</div></div><div class = lowerbox><div class = fixation>+</div></div>","none","100","test","Couleur","#1F45FC","8","color","stay","switch","30","","","",""
"851","89","poldrack-single-stim","182","237880","0.0-103.0","pilot-38_ses-01_run2","","2000","0","stim","","<div class = upperbox><div class = ""center-text"" >Couleur</div></div><div class = lowerbox><div class = ""stim-text"" style=color:#1F45FC;>8</div>","89,71","1000","test","Couleur","#1F45FC","8","color","stay","switch","30","true","89","",""
"","","call-function","183","237881","0.0-104.0","pilot-38_ses-01_run2","","","","set_stims","","","","","","","","","","","","","","","",""
"-1","-1","poldrack-single-stim","184","238797","0.0-105.0","pilot-38_ses-01_run2","","900","0","cue","","<div class = upperbox><div class = ""center-text"" >Haut-Bas</div></div><div class = lowerbox><div class = fixation>+</div></div>","none","900","test","Haut-Bas","orange","9","magnitude","switch","switch","31","","","",""
"757","71","poldrack-single-stim","185","240943","0.0-106.0","pilot-38_ses-01_run2","","2136","0","stim","","<div class = upperbox><div class = ""center-text"" >Haut-Bas</div></div><div class = lowerbox><div class = ""stim-text"" style=color:orange;>9</div>","89,71","1000","test","Haut-Bas","orange","9","magnitude","switch","switch","31","true","71","",""
"","","call-function","186","240943","0.0-107.0","pilot-38_ses-01_run2","","","","set_stims","","","","","","","","","","","","","","","",""
"-1","-1","poldrack-single-stim","187","241864","0.0-108.0","pilot-38_ses-01_run2","","900","0","cue","","<div class = upperbox><div class = ""center-text"" >Orange-Bleu</div></div><div class = lowerbox><div class = fixation>+</div></div>","none","900","test","Orange-Bleu","orange","1","color","switch","switch","32","","","",""
"624","71","poldrack-single-stim","188","244570","0.0-109.0","pilot-38_ses-01_run2","","2680","0","stim","","<div class = upperbox><div class = ""center-text"" >Orange-Bleu</div></div><div class = lowerbox><div class = ""stim-text"" style=color:orange;>1</div>","89,71","1000","test","Orange-Bleu","orange","1","color","switch","switch","32","true","71","",""
"","","call-function","189","244570","0.0-110.0","pilot-38_ses-01_run2","","","","set_stims","","","","","","","","","","","","","","","",""
"-1","-1","poldrack-single-stim","190","244701","0.0-111.0","pilot-38_ses-01_run2","","100","0","cue","","<div class = upperbox><div class = ""center-text"" >Orange-Bleu</div></div><div class = lowerbox><div class = fixation>+</div></div>","none","100","test","Orange-Bleu","orange","1","color","stay","stay","33","","","",""
"804","71","poldrack-single-stim","191","246994","0.0-112.0","pilot-38_ses-01_run2","","2272","0","stim","","<div class = upperbox><div class = ""center-text"" >Orange-Bleu</div></div><div class = lowerbox><div class = ""stim-text"" style=color:orange;>1</div>","89,71","1000","test","Orange-Bleu","orange","1","color","stay","stay","33","true","71","",""
"","","call-function","192","246994","0.0-113.0","pilot-38_ses-01_run2","","","","set_stims","","","","","","","","","","","","","","","",""
"-1","-1","poldrack-single-stim","193","247908","0.0-114.0","pilot-38_ses-01_run2","","900","0","cue","","<div class = upperbox><div class = ""center-text"" >Orange-Bleu</div></div><div class = lowerbox><div class = fixation>+</div></div>","none","900","test","Orange-Bleu","orange","8","color","stay","stay","34","","","",""
"778","71","poldrack-single-stim","194","250070","0.0-115.0","pilot-38_ses-01_run2","","2136","0","stim","","<div class = upperbox><div class = ""center-text"" >Orange-Bleu</div></div><div class = lowerbox><div class = ""stim-text"" style=color:orange;>8</div>","89,71","1000","test","Orange-Bleu","orange","8","color","stay","stay","34","true","71","",""
"","","call-function","195","250070","0.0-116.0","pilot-38_ses-01_run2","","","","set_stims","","","","","","","","","","","","","","","",""
"-1","-1","poldrack-single-stim","196","250990","0.0-117.0","pilot-38_ses-01_run2","","900","0","cue","","<div class = upperbox><div class = ""center-text"" >Haut-Bas</div></div><div class = lowerbox><div class = fixation>+</div></div>","none","900","test","Haut-Bas","#1F45FC","3","magnitude","switch","switch","35","","","",""
"592","89","poldrack-single-stim","197","253010","0.0-118.0","pilot-38_ses-01_run2","","2000","0","stim","","<div class = upperbox><div class = ""center-text"" >Haut-Bas</div></div><div class = lowerbox><div class = ""stim-text"" style=color:#1F45FC;>3</div>","89,71","1000","test","Haut-Bas","#1F45FC","3","magnitude","switch","switch","35","true","89","",""
"","","call-function","198","253011","0.0-119.0","pilot-38_ses-01_run2","","","","set_stims","","","","","","","","","","","","","","","",""
"-1","-1","poldrack-single-stim","199","253143","0.0-120.0","pilot-38_ses-01_run2","","100","0","cue","","<div class = upperbox><div class = ""center-text"" >Orange-Bleu</div></div><div class = lowerbox><div class = fixation>+</div></div>","none","100","test","Orange-Bleu","orange","8","color","switch","stay","36","","","",""
"1439","71","poldrack-single-stim","200","255304","0.0-121.0","pilot-38_ses-01_run2","","2136","0","stim","","<div class = upperbox><div class = ""center-text"" >Orange-Bleu</div></div><div class = lowerbox><div class = ""stim-text"" style=color:orange;>8</div>","89,71","1000","test","Orange-Bleu","orange","8","color","switch","stay","36","true","71","",""
"","","call-function","201","255305","0.0-122.0","pilot-38_ses-01_run2","","","","set_stims","","","","","","","","","","","","","","","",""
"-1","-1","poldrack-single-stim","202","256228","0.0-123.0","pilot-38_ses-01_run2","","900","0","cue","","<div class = upperbox><div class = ""center-text"" >Haut-Bas</div></div><div class = lowerbox><div class = fixation>+</div></div>","none","900","test","Haut-Bas","#1F45FC","6","magnitude","switch","stay","37","","","",""
"688","89","poldrack-single-stim","203","258935","0.0-124.0","pilot-38_ses-01_run2","","2680","0","stim","","<div class = upperbox><div class = ""center-text"" >Haut-Bas</div></div><div class = lowerbox><div class = ""stim-text"" style=color:#1F45FC;>6</div>","89,71","1000","test","Haut-Bas","#1F45FC","6","magnitude","switch","stay","37","false","71","",""
"","","call-function","204","258935","0.0-125.0","pilot-38_ses-01_run2","","","","set_stims","","","","","","","","","","","","","","","",""
"-1","-1","poldrack-single-stim","205","259855","0.0-126.0","pilot-38_ses-01_run2","","900","0","cue","","<div class = upperbox><div class = ""center-text"" >Couleur</div></div><div class = lowerbox><div class = fixation>+</div></div>","none","900","test","Couleur","#1F45FC","1","color","switch","stay","38","","","",""
"791","89","poldrack-single-stim","206","262137","0.0-127.0","pilot-38_ses-01_run2","","2272","0","stim","","<div class = upperbox><div class = ""center-text"" >Couleur</div></div><div class = lowerbox><div class = ""stim-text"" style=color:#1F45FC;>1</div>","89,71","1000","test","Couleur","#1F45FC","1","color","switch","stay","38","true","89","",""
"","","call-function","207","262138","0.0-128.0","pilot-38_ses-01_run2","","","","set_stims","","","","","","","","","","","","","","","",""
"-1","-1","poldrack-single-stim","208","262268","0.0-129.0","pilot-38_ses-01_run2","","100","0","cue","","<div class = upperbox><div class = ""center-text"" >Orange-Bleu</div></div><div class = lowerbox><div class = fixation>+</div></div>","none","100","test","Orange-Bleu","orange","7","color","stay","switch","39","","","",""
"954","71","poldrack-single-stim","209","264274","0.0-130.0","pilot-38_ses-01_run2","","2000","0","stim","","<div class = upperbox><div class = ""center-text"" >Orange-Bleu</div></div><div class = lowerbox><div class = ""stim-text"" style=color:orange;>7</div>","89,71","1000","test","Orange-Bleu","orange","7","color","stay","switch","39","true","71","",""
"","","call-function","210","264275","0.0-131.0","pilot-38_ses-01_run2","","","","set_stims","","","","","","","","","","","","","","","",""
"-1","-1","poldrack-single-stim","211","264406","0.0-132.0","pilot-38_ses-01_run2","","100","0","cue","","<div class = upperbox><div class = ""center-text"" >Amplitude</div></div><div class = lowerbox><div class = fixation>+</div></div>","none","100","test","Amplitude","#1F45FC","4","magnitude","switch","stay","40","","","",""
"1113","89","poldrack-single-stim","212","266429","0.0-133.0","pilot-38_ses-01_run2","","2000","0","stim","","<div class = upperbox><div class = ""center-text"" >Amplitude</div></div><div class = lowerbox><div class = ""stim-text"" style=color:#1F45FC;>4</div>","89,71","1000","test","Amplitude","#1F45FC","4","magnitude","switch","stay","40","true","89","",""
"","","call-function","213","266429","0.0-134.0","pilot-38_ses-01_run2","","","","set_stims","","","","","","","","","","","","","","","",""
"-1","-1","poldrack-single-stim","214","267352","0.0-135.0","pilot-38_ses-01_run2","","900","0","cue","","<div class = upperbox><div class = ""center-text"" >Amplitude</div></div><div class = lowerbox><div class = fixation>+</div></div>","none","900","test","Amplitude","#1F45FC","3","magnitude","stay","stay","41","","","",""
"527","89","poldrack-single-stim","215","269507","0.0-136.0","pilot-38_ses-01_run2","","2136","0","stim","","<div class = upperbox><div class = ""center-text"" >Amplitude</div></div><div class = lowerbox><div class = ""stim-text"" style=color:#1F45FC;>3</div>","89,71","1000","test","Amplitude","#1F45FC","3","magnitude","stay","stay","41","true","89","",""
"","","call-function","216","269507","0.0-137.0","pilot-38_ses-01_run2","","","","set_stims","","","","","","","","","","","","","","","",""
"-1","-1","poldrack-single-stim","217","270423","0.0-138.0","pilot-38_ses-01_run2","","900","0","cue","","<div class = upperbox><div class = ""center-text"" >Amplitude</div></div><div class = lowerbox><div class = fixation>+</div></div>","none","900","test","Amplitude","orange","2","magnitude","stay","stay","42","","","",""
"447","89","poldrack-single-stim","218","272439","0.0-139.0","pilot-38_ses-01_run2","","2000","0","stim","","<div class = upperbox><div class = ""center-text"" >Amplitude</div></div><div class = lowerbox><div class = ""stim-text"" style=color:orange;>2</div>","89,71","1000","test","Amplitude","orange","2","magnitude","stay","stay","42","true","89","",""
"","","call-function","219","272440","0.0-140.0","pilot-38_ses-01_run2","","","","set_stims","","","","","","","","","","","","","","","",""
"-1","-1","poldrack-single-stim","220","273364","0.0-141.0","pilot-38_ses-01_run2","","900","0","cue","","<div class = upperbox><div class = ""center-text"" >Amplitude</div></div><div class = lowerbox><div class = fixation>+</div></div>","none","900","test","Amplitude","orange","6","magnitude","stay","stay","43","","","",""
"640","71","poldrack-single-stim","221","275373","0.0-142.0","pilot-38_ses-01_run2","","2000","0","stim","","<div class = upperbox><div class = ""center-text"" >Amplitude</div></div><div class = lowerbox><div class = ""stim-text"" style=color:orange;>6</div>","89,71","1000","test","Amplitude","orange","6","magnitude","stay","stay","43","true","71","",""
"","","call-function","222","275374","0.0-143.0","pilot-38_ses-01_run2","","","","set_stims","","","","","","","","","","","","","","","",""
"-1","-1","poldrack-single-stim","223","276302","0.0-144.0","pilot-38_ses-01_run2","","900","0","cue","","<div class = upperbox><div class = ""center-text"" >Haut-Bas</div></div><div class = lowerbox><div class = fixation>+</div></div>","none","900","test","Haut-Bas","#1F45FC","8","magnitude","stay","switch","44","","","",""
"1101","71","poldrack-single-stim","224","278308","0.0-145.0","pilot-38_ses-01_run2","","2000","0","stim","","<div class = upperbox><div class = ""center-text"" >Haut-Bas</div></div><div class = lowerbox><div class = ""stim-text"" style=color:#1F45FC;>8</div>","89,71","1000","test","Haut-Bas","#1F45FC","8","magnitude","stay","switch","44","true","71","",""
"","","call-function","225","278308","0.0-146.0","pilot-38_ses-01_run2","","","","set_stims","","","","","","","","","","","","","","","",""
"-1","-1","poldrack-single-stim","226","279225","0.0-147.0","pilot-38_ses-01_run2","","900","0","cue","","<div class = upperbox><div class = ""center-text"" >Couleur</div></div><div class = lowerbox><div class = fixation>+</div></div>","none","900","test","Couleur","orange","8","color","switch","switch","45","","","",""
"580","71","poldrack-single-stim","227","281517","0.0-148.0","pilot-38_ses-01_run2","","2272","0","stim","","<div class = upperbox><div class = ""center-text"" >Couleur</div></div><div class = lowerbox><div class = ""stim-text"" style=color:orange;>8</div>","89,71","1000","test","Couleur","orange","8","color","switch","switch","45","true","71","",""
"","","call-function","228","281517","0.0-149.0","pilot-38_ses-01_run2","","","","set_stims","","","","","","","","","","","","","","","",""
"-1","-1","poldrack-single-stim","229","281634","0.0-150.0","pilot-38_ses-01_run2","","100","0","cue","","<div class = upperbox><div class = ""center-text"" >Amplitude</div></div><div class = lowerbox><div class = fixation>+</div></div>","none","100","test","Amplitude","orange","2","magnitude","switch","switch","46","","","",""
"647","89","poldrack-single-stim","230","284054","0.0-151.0","pilot-38_ses-01_run2","","2408","0","stim","","<div class = upperbox><div class = ""center-text"" >Amplitude</div></div><div class = lowerbox><div class = ""stim-text"" style=color:orange;>2</div>","89,71","1000","test","Amplitude","orange","2","magnitude","switch","switch","46","true","89","",""
"","","call-function","231","284055","0.0-152.0","pilot-38_ses-01_run2","","","","set_stims","","","","","","","","","","","","","","","",""
"-1","-1","poldrack-single-stim","232","284974","0.0-153.0","pilot-38_ses-01_run2","","900","0","cue","","<div class = upperbox><div class = ""center-text"" >Amplitude</div></div><div class = lowerbox><div class = fixation>+</div></div>","none","900","test","Amplitude","#1F45FC","4","magnitude","stay","stay","47","","","",""
"876","89","poldrack-single-stim","233","287005","0.0-154.0","pilot-38_ses-01_run2","","2000","0","stim","","<div class = upperbox><div class = ""center-text"" >Amplitude</div></div><div class = lowerbox><div class = ""stim-text"" style=color:#1F45FC;>4</div>","89,71","1000","test","Amplitude","#1F45FC","4","magnitude","stay","stay","47","true","89","",""
"","","call-function","234","287005","0.0-155.0","pilot-38_ses-01_run2","","","","set_stims","","","","","","","","","","","","","","","",""
"-1","-1","poldrack-single-stim","235","287923","0.0-156.0","pilot-38_ses-01_run2","","900","0","cue","","<div class = upperbox><div class = ""center-text"" >Amplitude</div></div><div class = lowerbox><div class = fixation>+</div></div>","none","900","test","Amplitude","orange","9","magnitude","stay","stay","48","","","",""
"912","71","poldrack-single-stim","236","289950","0.0-157.0","pilot-38_ses-01_run2","","2000","0","stim","","<div class = upperbox><div class = ""center-text"" >Amplitude</div></div><div class = lowerbox><div class = ""stim-text"" style=color:orange;>9</div>","89,71","1000","test","Amplitude","orange","9","magnitude","stay","stay","48","true","71","",""
"","","call-function","237","289951","0.0-158.0","pilot-38_ses-01_run2","","","","set_stims","","","","","","","","","","","","","","","",""
"-1","-1","poldrack-single-stim","238","290875","0.0-159.0","pilot-38_ses-01_run2","","900","0","cue","","<div class = upperbox><div class = ""center-text"" >Couleur</div></div><div class = lowerbox><div class = fixation>+</div></div>","none","900","test","Couleur","#1F45FC","3","color","switch","switch","49","","","",""
"898","89","poldrack-single-stim","239","292892","0.0-160.0","pilot-38_ses-01_run2","","2000","0","stim","","<div class = upperbox><div class = ""center-text"" >Couleur</div></div><div class = lowerbox><div class = ""stim-text"" style=color:#1F45FC;>3</div>","89,71","1000","test","Couleur","#1F45FC","3","color","switch","switch","49","true","89","",""
"","","call-function","240","292893","0.0-161.0","pilot-38_ses-01_run2","","","","set_stims","","","","","","","","","","","","","","","",""
"-1","-1","poldrack-single-stim","241","293007","0.0-162.0","pilot-38_ses-01_run2","","100","0","cue","","<div class = upperbox><div class = ""center-text"" >Haut-Bas</div></div><div class = lowerbox><div class = fixation>+</div></div>","none","100","test","Haut-Bas","orange","6","magnitude","switch","switch","50","","","",""
"900","71","poldrack-single-stim","242","295289","0.0-163.0","pilot-38_ses-01_run2","","2272","0","stim","","<div class = upperbox><div class = ""center-text"" >Haut-Bas</div></div><div class = lowerbox><div class = ""stim-text"" style=color:orange;>6</div>","89,71","1000","test","Haut-Bas","orange","6","magnitude","switch","switch","50","true","71","",""
"","","call-function","243","295290","0.0-164.0","pilot-38_ses-01_run2","","","","set_stims","","","","","","","","","","","","","","","",""
"-1","-1","poldrack-single-stim","244","296209","0.0-165.0","pilot-38_ses-01_run2","","900","0","cue","","<div class = upperbox><div class = ""center-text"" >Haut-Bas</div></div><div class = lowerbox><div class = fixation>+</div></div>","none","900","test","Haut-Bas","orange","8","magnitude","stay","stay","51","","","",""
"485","71","poldrack-single-stim","245","298364","0.0-166.0","pilot-38_ses-01_run2","","2136","0","stim","","<div class = upperbox><div class = ""center-text"" >Haut-Bas</div></div><div class = lowerbox><div class = ""stim-text"" style=color:orange;>8</div>","89,71","1000","test","Haut-Bas","orange","8","magnitude","stay","stay","51","true","71","",""
"","","call-function","246","298364","0.0-167.0","pilot-38_ses-01_run2","","","","set_stims","","","","","","","","","","","","","","","",""
"-1","-1","poldrack-single-stim","247","298487","0.0-168.0","pilot-38_ses-01_run2","","100","0","cue","","<div class = upperbox><div class = ""center-text"" >Couleur</div></div><div class = lowerbox><div class = fixation>+</div></div>","none","100","test","Couleur","#1F45FC","6","color","switch","switch","52","","","",""
"641","89","poldrack-single-stim","248","300510","0.0-169.0","pilot-38_ses-01_run2","","2000","0","stim","","<div class = upperbox><div class = ""center-text"" >Couleur</div></div><div class = lowerbox><div class = ""stim-text"" style=color:#1F45FC;>6</div>","89,71","1000","test","Couleur","#1F45FC","6","color","switch","switch","52","true","89","",""
"","","call-function","249","300510","0.0-170.0","pilot-38_ses-01_run2","","","","set_stims","","","","","","","","","","","","","","","",""
"-1","-1","poldrack-single-stim","250","301429","0.0-171.0","pilot-38_ses-01_run2","","900","0","cue","","<div class = upperbox><div class = ""center-text"" >Orange-Bleu</div></div><div class = lowerbox><div class = fixation>+</div></div>","none","900","test","Orange-Bleu","#1F45FC","4","color","stay","switch","53","","","",""
"815","89","poldrack-single-stim","251","303993","0.0-172.0","pilot-38_ses-01_run2","","2544","0","stim","","<div class = upperbox><div class = ""center-text"" >Orange-Bleu</div></div><div class = lowerbox><div class = ""stim-text"" style=color:#1F45FC;>4</div>","89,71","1000","test","Orange-Bleu","#1F45FC","4","color","stay","switch","53","true","89","",""
"","","call-function","252","303994","0.0-173.0","pilot-38_ses-01_run2","","","","set_stims","","","","","","","","","","","","","","","",""
"-1","-1","poldrack-single-stim","253","304919","0.0-174.0","pilot-38_ses-01_run2","","900","0","cue","","<div class = upperbox><div class = ""center-text"" >Haut-Bas</div></div><div class = lowerbox><div class = fixation>+</div></div>","none","900","test","Haut-Bas","orange","1","magnitude","switch","switch","54","","","",""
"466","89","poldrack-single-stim","254","307225","0.0-175.0","pilot-38_ses-01_run2","","2272","0","stim","","<div class = upperbox><div class = ""center-text"" >Haut-Bas</div></div><div class = lowerbox><div class = ""stim-text"" style=color:orange;>1</div>","89,71","1000","test","Haut-Bas","orange","1","magnitude","switch","switch","54","true","89","",""
"","","call-function","255","307225","0.0-176.0","pilot-38_ses-01_run2","","","","set_stims","","","","","","","","","","","","","","","",""
"-1","-1","poldrack-single-stim","256","307359","0.0-177.0","pilot-38_ses-01_run2","","100","0","cue","","<div class = upperbox><div class = ""center-text"" >Haut-Bas</div></div><div class = lowerbox><div class = fixation>+</div></div>","none","100","test","Haut-Bas","#1F45FC","8","magnitude","stay","stay","55","","","",""
"765","71","poldrack-single-stim","257","309642","0.0-178.0","pilot-38_ses-01_run2","","2272","0","stim","","<div class = upperbox><div class = ""center-text"" >Haut-Bas</div></div><div class = lowerbox><div class = ""stim-text"" style=color:#1F45FC;>8</div>","89,71","1000","test","Haut-Bas","#1F45FC","8","magnitude","stay","stay","55","true","71","",""
"","","call-function","258","309643","0.0-179.0","pilot-38_ses-01_run2","","","","set_stims","","","","","","","","","","","","","","","",""
"-1","-1","poldrack-single-stim","259","310563","0.0-180.0","pilot-38_ses-01_run2","","900","0","cue","","<div class = upperbox><div class = ""center-text"" >Amplitude</div></div><div class = lowerbox><div class = fixation>+</div></div>","none","900","test","Amplitude","#1F45FC","2","magnitude","stay","switch","56","","","",""
"602","89","poldrack-single-stim","260","312572","0.0-181.0","pilot-38_ses-01_run2","","2000","0","stim","","<div class = upperbox><div class = ""center-text"" >Amplitude</div></div><div class = lowerbox><div class = ""stim-text"" style=color:#1F45FC;>2</div>","89,71","1000","test","Amplitude","#1F45FC","2","magnitude","stay","switch","56","true","89","",""
"","","call-function","261","312573","0.0-182.0","pilot-38_ses-01_run2","","","","set_stims","","","","","","","","","","","","","","","",""
"-1","-1","poldrack-single-stim","262","313490","0.0-183.0","pilot-38_ses-01_run2","","900","0","cue","","<div class = upperbox><div class = ""center-text"" >Amplitude</div></div><div class = lowerbox><div class = fixation>+</div></div>","none","900","test","Amplitude","orange","1","magnitude","stay","stay","57","","","",""
"602","89","poldrack-single-stim","263","315498","0.0-184.0","pilot-38_ses-01_run2","","2000","0","stim","","<div class = upperbox><div class = ""center-text"" >Amplitude</div></div><div class = lowerbox><div class = ""stim-text"" style=color:orange;>1</div>","89,71","1000","test","Amplitude","orange","1","magnitude","stay","stay","57","true","89","",""
"","","call-function","264","315499","0.0-185.0","pilot-38_ses-01_run2","","","","set_stims","","","","","","","","","","","","","","","",""
"-1","-1","poldrack-single-stim","265","315631","0.0-186.0","pilot-38_ses-01_run2","","100","0","cue","","<div class = upperbox><div class = ""center-text"" >Orange-Bleu</div></div><div class = lowerbox><div class = fixation>+</div></div>","none","100","test","Orange-Bleu","#1F45FC","2","color","switch","stay","58","","","",""
"1156","89","poldrack-single-stim","266","317793","0.0-187.0","pilot-38_ses-01_run2","","2136","0","stim","","<div class = upperbox><div class = ""center-text"" >Orange-Bleu</div></div><div class = lowerbox><div class = ""stim-text"" style=color:#1F45FC;>2</div>","89,71","1000","test","Orange-Bleu","#1F45FC","2","color","switch","stay","58","true","89","",""
"","","call-function","267","317794","0.0-188.0","pilot-38_ses-01_run2","","","","set_stims","","","","","","","","","","","","","","","",""
"-1","-1","poldrack-single-stim","268","317923","0.0-189.0","pilot-38_ses-01_run2","","100","0","cue","","<div class = upperbox><div class = ""center-text"" >Haut-Bas</div></div><div class = lowerbox><div class = fixation>+</div></div>","none","100","test","Haut-Bas","#1F45FC","4","magnitude","switch","stay","59","","","",""
"1162","71","poldrack-single-stim","269","319945","0.0-190.0","pilot-38_ses-01_run2","","2000","0","stim","","<div class = upperbox><div class = ""center-text"" >Haut-Bas</div></div><div class = lowerbox><div class = ""stim-text"" style=color:#1F45FC;>4</div>","89,71","1000","test","Haut-Bas","#1F45FC","4","magnitude","switch","stay","59","false","89","",""
"","","call-function","270","319946","0.0-191.0","pilot-38_ses-01_run2","","","","set_stims","","","","","","","","","","","","","","","",""
"-1","-1","poldrack-single-stim","271","320076","0.0-192.0","pilot-38_ses-01_run2","","100","0","cue","","<div class = upperbox><div class = ""center-text"" >Amplitude</div></div><div class = lowerbox><div class = fixation>+</div></div>","none","100","test","Amplitude","#1F45FC","8","magnitude","stay","switch","60","","","",""
"799","71","poldrack-single-stim","272","322231","0.0-193.0","pilot-38_ses-01_run2","","2136","0","stim","","<div class = upperbox><div class = ""center-text"" >Amplitude</div></div><div class = lowerbox><div class = ""stim-text"" style=color:#1F45FC;>8</div>","89,71","1000","test","Amplitude","#1F45FC","8","magnitude","stay","switch","60","true","71","",""
"","","call-function","273","322231","0.0-194.0","pilot-38_ses-01_run2","","","","set_stims","","","","","","","","","","","","","","","",""
"-1","-1","poldrack-single-stim","274","323149","0.0-195.0","pilot-38_ses-01_run2","","900","0","cue","","<div class = upperbox><div class = ""center-text"" >Couleur</div></div><div class = lowerbox><div class = fixation>+</div></div>","none","900","test","Couleur","orange","3","color","switch","stay","61","","","",""
"528","71","poldrack-single-stim","275","325428","0.0-196.0","pilot-38_ses-01_run2","","2272","0","stim","","<div class = upperbox><div class = ""center-text"" >Couleur</div></div><div class = lowerbox><div class = ""stim-text"" style=color:orange;>3</div>","89,71","1000","test","Couleur","orange","3","color","switch","stay","61","true","71","",""
"","","call-function","276","325429","0.0-197.0","pilot-38_ses-01_run2","","","","set_stims","","","","","","","","","","","","","","","",""
"-1","-1","poldrack-single-stim","277","325547","0.0-198.0","pilot-38_ses-01_run2","","100","0","cue","","<div class = upperbox><div class = ""center-text"" >Amplitude</div></div><div class = lowerbox><div class = fixation>+</div></div>","none","100","test","Amplitude","orange","7","magnitude","switch","stay","62","","","",""
"653","71","poldrack-single-stim","278","327704","0.0-199.0","pilot-38_ses-01_run2","","2136","0","stim","","<div class = upperbox><div class = ""center-text"" >Amplitude</div></div><div class = lowerbox><div class = ""stim-text"" style=color:orange;>7</div>","89,71","1000","test","Amplitude","orange","7","magnitude","switch","stay","62","true","71","",""
"","","call-function","279","327705","0.0-200.0","pilot-38_ses-01_run2","","","","set_stims","","","","","","","","","","","","","","","",""
"-1","-1","poldrack-single-stim","280","328621","0.0-201.0","pilot-38_ses-01_run2","","900","0","cue","","<div class = upperbox><div class = ""center-text"" >Amplitude</div></div><div class = lowerbox><div class = fixation>+</div></div>","none","900","test","Amplitude","orange","7","magnitude","stay","stay","63","","","",""
"827","71","poldrack-single-stim","281","330917","0.0-202.0","pilot-38_ses-01_run2","","2272","0","stim","","<div class = upperbox><div class = ""center-text"" >Amplitude</div></div><div class = lowerbox><div class = ""stim-text"" style=color:orange;>7</div>","89,71","1000","test","Amplitude","orange","7","magnitude","stay","stay","63","true","71","",""
"","","call-function","282","330918","0.0-203.0","pilot-38_ses-01_run2","","","","set_stims","","","","","","","","","","","","","","","",""
"-1","-1","poldrack-single-stim","283","331048","0.0-204.0","pilot-38_ses-01_run2","","100","0","cue","","<div class = upperbox><div class = ""center-text"" >Couleur</div></div><div class = lowerbox><div class = fixation>+</div></div>","none","100","test","Couleur","orange","9","color","switch","stay","64","","","",""
"1275","71","poldrack-single-stim","284","333084","0.0-205.0","pilot-38_ses-01_run2","","2000","0","stim","","<div class = upperbox><div class = ""center-text"" >Couleur</div></div><div class = lowerbox><div class = ""stim-text"" style=color:orange;>9</div>","89,71","1000","test","Couleur","orange","9","color","switch","stay","64","true","71","",""
"","","call-function","285","333084","0.0-206.0","pilot-38_ses-01_run2","","","","set_stims","","","","","","","","","","","","","","","",""
"-1","-1","poldrack-single-stim","286","333985","0.0-207.0","pilot-38_ses-01_run2","","900","0","cue","","<div class = upperbox><div class = ""center-text"" >Couleur</div></div><div class = lowerbox><div class = fixation>+</div></div>","none","900","test","Couleur","#1F45FC","2","color","stay","stay","65","","","",""
"382","89","poldrack-single-stim","287","336819","0.0-208.0","pilot-38_ses-01_run2","","2816","0","stim","","<div class = upperbox><div class = ""center-text"" >Couleur</div></div><div class = lowerbox><div class = ""stim-text"" style=color:#1F45FC;>2</div>","89,71","1000","test","Couleur","#1F45FC","2","color","stay","stay","65","true","89","",""
"","","call-function","288","336819","0.0-209.0","pilot-38_ses-01_run2","","","","set_stims","","","","","","","","","","","","","","","",""
"-1","-1","poldrack-single-stim","289","336940","0.0-210.0","pilot-38_ses-01_run2","","100","0","cue","","<div class = upperbox><div class = ""center-text"" >Orange-Bleu</div></div><div class = lowerbox><div class = fixation>+</div></div>","none","100","test","Orange-Bleu","#1F45FC","2","color","stay","switch","66","","","",""
"1158","89","poldrack-single-stim","290","339371","0.0-211.0","pilot-38_ses-01_run2","","2408","0","stim","","<div class = upperbox><div class = ""center-text"" >Orange-Bleu</div></div><div class = lowerbox><div class = ""stim-text"" style=color:#1F45FC;>2</div>","89,71","1000","test","Orange-Bleu","#1F45FC","2","color","stay","switch","66","true","89","",""
"","","call-function","291","339371","0.0-212.0","pilot-38_ses-01_run2","","","","set_stims","","","","","","","","","","","","","","","",""
"-1","-1","poldrack-single-stim","292","339501","0.0-213.0","pilot-38_ses-01_run2","","100","0","cue","","<div class = upperbox><div class = ""center-text"" >Orange-Bleu</div></div><div class = lowerbox><div class = fixation>+</div></div>","none","100","test","Orange-Bleu","orange","6","color","stay","stay","67","","","",""
"726","71","poldrack-single-stim","293","341516","0.0-214.0","pilot-38_ses-01_run2","","2000","0","stim","","<div class = upperbox><div class = ""center-text"" >Orange-Bleu</div></div><div class = lowerbox><div class = ""stim-text"" style=color:orange;>6</div>","89,71","1000","test","Orange-Bleu","orange","6","color","stay","stay","67","true","71","",""
"","","call-function","294","341516","0.0-215.0","pilot-38_ses-01_run2","","","","set_stims","","","","","","","","","","","","","","","",""
"-1","-1","poldrack-single-stim","295","342442","0.0-216.0","pilot-38_ses-01_run2","","900","0","cue","","<div class = upperbox><div class = ""center-text"" >Orange-Bleu</div></div><div class = lowerbox><div class = fixation>+</div></div>","none","900","test","Orange-Bleu","orange","1","color","stay","stay","68","","","",""
"1076","71","poldrack-single-stim","296","345012","0.0-217.0","pilot-38_ses-01_run2","","2544","0","stim","","<div class = upperbox><div class = ""center-text"" >Orange-Bleu</div></div><div class = lowerbox><div class = ""stim-text"" style=color:orange;>1</div>","89,71","1000","test","Orange-Bleu","orange","1","color","stay","stay","68","true","71","",""
"","","call-function","297","345012","0.0-218.0","pilot-38_ses-01_run2","","","","set_stims","","","","","","","","","","","","","","","",""
"-1","-1","poldrack-single-stim","298","345920","0.0-219.0","pilot-38_ses-01_run2","","900","0","cue","","<div class = upperbox><div class = ""center-text"" >Amplitude</div></div><div class = lowerbox><div class = fixation>+</div></div>","none","900","test","Amplitude","orange","8","magnitude","switch","switch","69","","","",""
"956","71","poldrack-single-stim","299","348077","0.0-220.0","pilot-38_ses-01_run2","","2136","0","stim","","<div class = upperbox><div class = ""center-text"" >Amplitude</div></div><div class = lowerbox><div class = ""stim-text"" style=color:orange;>8</div>","89,71","1000","test","Amplitude","orange","8","magnitude","switch","switch","69","true","71","",""
"","","call-function","300","348078","0.0-221.0","pilot-38_ses-01_run2","","","","set_stims","","","","","","","","","","","","","","","",""
"-1","-1","poldrack-single-stim","301","349010","0.0-222.0","pilot-38_ses-01_run2","","900","0","cue","","<div class = upperbox><div class = ""center-text"" >Orange-Bleu</div></div><div class = lowerbox><div class = fixation>+</div></div>","none","900","test","Orange-Bleu","#1F45FC","7","color","switch","stay","70","","","",""
"790","89","poldrack-single-stim","302","351016","0.0-223.0","pilot-38_ses-01_run2","","2000","0","stim","","<div class = upperbox><div class = ""center-text"" >Orange-Bleu</div></div><div class = lowerbox><div class = ""stim-text"" style=color:#1F45FC;>7</div>","89,71","1000","test","Orange-Bleu","#1F45FC","7","color","switch","stay","70","true","89","",""
"","","call-function","303","351017","0.0-224.0","pilot-38_ses-01_run2","","","","set_stims","","","","","","","","","","","","","","","",""
"-1","-1","poldrack-single-stim","304","351933","0.0-225.0","pilot-38_ses-01_run2","","900","0","cue","","<div class = upperbox><div class = ""center-text"" >Orange-Bleu</div></div><div class = lowerbox><div class = fixation>+</div></div>","none","900","test","Orange-Bleu","#1F45FC","6","color","stay","stay","71","","","",""
"879","89","poldrack-single-stim","305","353947","0.0-226.0","pilot-38_ses-01_run2","","2000","0","stim","","<div class = upperbox><div class = ""center-text"" >Orange-Bleu</div></div><div class = lowerbox><div class = ""stim-text"" style=color:#1F45FC;>6</div>","89,71","1000","test","Orange-Bleu","#1F45FC","6","color","stay","stay","71","true","89","",""
"","","call-function","306","353947","0.0-227.0","pilot-38_ses-01_run2","","","","set_stims","","","","","","","","","","","","","","","",""
"-1","-1","poldrack-single-stim","307","354063","0.0-228.0","pilot-38_ses-01_run2","","100","0","cue","","<div class = upperbox><div class = ""center-text"" >Couleur</div></div><div class = lowerbox><div class = fixation>+</div></div>","none","100","test","Couleur","#1F45FC","4","color","stay","switch","72","","","",""
"911","89","poldrack-single-stim","308","356208","0.0-229.0","pilot-38_ses-01_run2","","2136","0","stim","","<div class = upperbox><div class = ""center-text"" >Couleur</div></div><div class = lowerbox><div class = ""stim-text"" style=color:#1F45FC;>4</div>","89,71","1000","test","Couleur","#1F45FC","4","color","stay","switch","72","true","89","",""
"","","call-function","309","356209","0.0-230.0","pilot-38_ses-01_run2","","","","set_stims","","","","","","","","","","","","","","","",""
"-1","-1","poldrack-single-stim","310","356323","0.0-231.0","pilot-38_ses-01_run2","","100","0","cue","","<div class = upperbox><div class = ""center-text"" >Couleur</div></div><div class = lowerbox><div class = fixation>+</div></div>","none","100","test","Couleur","#1F45FC","9","color","stay","stay","73","","","",""
"845","89","poldrack-single-stim","311","358475","0.0-232.0","pilot-38_ses-01_run2","","2136","0","stim","","<div class = upperbox><div class = ""center-text"" >Couleur</div></div><div class = lowerbox><div class = ""stim-text"" style=color:#1F45FC;>9</div>","89,71","1000","test","Couleur","#1F45FC","9","color","stay","stay","73","true","89","",""
"","","call-function","312","358476","0.0-233.0","pilot-38_ses-01_run2","","","","set_stims","","","","","","","","","","","","","","","",""
"-1","-1","poldrack-single-stim","313","359400","0.0-234.0","pilot-38_ses-01_run2","","900","0","cue","","<div class = upperbox><div class = ""center-text"" >Haut-Bas</div></div><div class = lowerbox><div class = fixation>+</div></div>","none","900","test","Haut-Bas","#1F45FC","2","magnitude","switch","stay","74","","","",""
"671","89","poldrack-single-stim","314","361684","0.0-235.0","pilot-38_ses-01_run2","","2272","0","stim","","<div class = upperbox><div class = ""center-text"" >Haut-Bas</div></div><div class = lowerbox><div class = ""stim-text"" style=color:#1F45FC;>2</div>","89,71","1000","test","Haut-Bas","#1F45FC","2","magnitude","switch","stay","74","true","89","",""
"","","call-function","315","361685","0.0-236.0","pilot-38_ses-01_run2","","","","set_stims","","","","","","","","","","","","","","","",""
"-1","-1","poldrack-single-stim","316","361808","0.0-237.0","pilot-38_ses-01_run2","","100","0","cue","","<div class = upperbox><div class = ""center-text"" >Amplitude</div></div><div class = lowerbox><div class = fixation>+</div></div>","none","100","test","Amplitude","orange","9","magnitude","stay","switch","75","","","",""
"744","71","poldrack-single-stim","317","365048","0.0-238.0","pilot-38_ses-01_run2","","3224","0","stim","","<div class = upperbox><div class = ""center-text"" >Amplitude</div></div><div class = lowerbox><div class = ""stim-text"" style=color:orange;>9</div>","89,71","1000","test","Amplitude","orange","9","magnitude","stay","switch","75","true","71","",""
"","","call-function","318","365049","0.0-239.0","pilot-38_ses-01_run2","","","","set_stims","","","","","","","","","","","","","","","",""
"-1","-1","poldrack-single-stim","319","365967","0.0-240.0","pilot-38_ses-01_run2","","900","0","cue","","<div class = upperbox><div class = ""center-text"" >Haut-Bas</div></div><div class = lowerbox><div class = fixation>+</div></div>","none","900","test","Haut-Bas","#1F45FC","4","magnitude","stay","switch","76","","","",""
"573","89","poldrack-single-stim","320","367989","0.0-241.0","pilot-38_ses-01_run2","","2000","0","stim","","<div class = upperbox><div class = ""center-text"" >Haut-Bas</div></div><div class = lowerbox><div class = ""stim-text"" style=color:#1F45FC;>4</div>","89,71","1000","test","Haut-Bas","#1F45FC","4","magnitude","stay","switch","76","true","89","",""
"","","call-function","321","367989","0.0-242.0","pilot-38_ses-01_run2","","","","set_stims","","","","","","","","","","","","","","","",""
"-1","-1","poldrack-single-stim","322","368105","0.0-243.0","pilot-38_ses-01_run2","","100","0","cue","","<div class = upperbox><div class = ""center-text"" >Orange-Bleu</div></div><div class = lowerbox><div class = fixation>+</div></div>","none","100","test","Orange-Bleu","orange","9","color","switch","stay","77","","","",""
"829","71","poldrack-single-stim","323","370131","0.0-244.0","pilot-38_ses-01_run2","","2000","0","stim","","<div class = upperbox><div class = ""center-text"" >Orange-Bleu</div></div><div class = lowerbox><div class = ""stim-text"" style=color:orange;>9</div>","89,71","1000","test","Orange-Bleu","orange","9","color","switch","stay","77","true","71","",""
"","","call-function","324","370132","0.0-245.0","pilot-38_ses-01_run2","","","","set_stims","","","","","","","","","","","","","","","",""
"-1","-1","poldrack-single-stim","325","370261","0.0-246.0","pilot-38_ses-01_run2","","100","0","cue","","<div class = upperbox><div class = ""center-text"" >Haut-Bas</div></div><div class = lowerbox><div class = fixation>+</div></div>","none","100","test","Haut-Bas","#1F45FC","4","magnitude","switch","stay","78","","","",""
"631","89","poldrack-single-stim","326","372562","0.0-247.0","pilot-38_ses-01_run2","","2272","0","stim","","<div class = upperbox><div class = ""center-text"" >Haut-Bas</div></div><div class = lowerbox><div class = ""stim-text"" style=color:#1F45FC;>4</div>","89,71","1000","test","Haut-Bas","#1F45FC","4","magnitude","switch","stay","78","true","89","",""
"","","call-function","327","372563","0.0-248.0","pilot-38_ses-01_run2","","","","set_stims","","","","","","","","","","","","","","","",""
"-1","-1","poldrack-single-stim","328","372680","0.0-249.0","pilot-38_ses-01_run2","","100","0","cue","","<div class = upperbox><div class = ""center-text"" >Couleur</div></div><div class = lowerbox><div class = fixation>+</div></div>","none","100","test","Couleur","#1F45FC","4","color","switch","switch","79","","","",""
"683","89","poldrack-single-stim","329","374833","0.0-250.0","pilot-38_ses-01_run2","","2136","0","stim","","<div class = upperbox><div class = ""center-text"" >Couleur</div></div><div class = lowerbox><div class = ""stim-text"" style=color:#1F45FC;>4</div>","89,71","1000","test","Couleur","#1F45FC","4","color","switch","switch","79","true","89","",""
"-1","-1","poldrack-single-stim","330","384846","0.0-251.0","pilot-38_ses-01_run2","","10000","1000","rest_block","","<div class = centerbox><div class = center-text>+</div></div>","none","10000","","","","","","","","","","","",""
"-1","-1","poldrack-single-stim","331","387391","0.0-252.0","pilot-38_ses-01_run2","","1500","500","test_start_block","","<div class = centerbox><div class = center-text>Preparez-vous!</p></div>","none","1500","","","","","","","","","","","",""
"-1","-1","poldrack-single-stim","332","388407","0.0-253.0","pilot-38_ses-01_run2","","500","0","fixation","","<div class = upperbox><div class = fixation>+</div></div><div class = lowerbox><div class = fixation>+</div></div>","none","500","test","","","","","","","","","","",""
"","","call-function","333","388407","0.0-254.0","pilot-38_ses-01_run2","","","","set_stims","","","","","","","","","","","","","","","",""
"-1","-1","poldrack-single-stim","334","388530","0.0-255.0","pilot-38_ses-01_run2","","100","0","cue","","<div class = upperbox><div class = ""center-text"" >Amplitude</div></div><div class = lowerbox><div class = fixation>+</div></div>","none","100","test","Amplitude","#1F45FC","3","magnitude","stay","stay","0","","","",""
"864","89","poldrack-single-stim","335","390547","0.0-256.0","pilot-38_ses-01_run2","","2000","0","stim","","<div class = upperbox><div class = ""center-text"" >Amplitude</div></div><div class = lowerbox><div class = ""stim-text"" style=color:#1F45FC;>3</div>","89,71","1000","test","Amplitude","#1F45FC","3","magnitude","stay","stay","0","true","89","",""
"","","call-function","336","390548","0.0-257.0","pilot-38_ses-01_run2","","","","set_stims","","","","","","","","","","","","","","","",""
"-1","-1","poldrack-single-stim","337","390662","0.0-258.0","pilot-38_ses-01_run2","","100","0","cue","","<div class = upperbox><div class = ""center-text"" >Orange-Bleu</div></div><div class = lowerbox><div class = fixation>+</div></div>","none","100","test","Orange-Bleu","orange","8","color","switch","switch","1","","","",""
"805","71","poldrack-single-stim","338","392686","0.0-259.0","pilot-38_ses-01_run2","","2000","0","stim","","<div class = upperbox><div class = ""center-text"" >Orange-Bleu</div></div><div class = lowerbox><div class = ""stim-text"" style=color:orange;>8</div>","89,71","1000","test","Orange-Bleu","orange","8","color","switch","switch","1","true","71","",""
"","","call-function","339","392686","0.0-260.0","pilot-38_ses-01_run2","","","","set_stims","","","","","","","","","","","","","","","",""
"-1","-1","poldrack-single-stim","340","392815","0.0-261.0","pilot-38_ses-01_run2","","100","0","cue","","<div class = upperbox><div class = ""center-text"" >Amplitude</div></div><div class = lowerbox><div class = fixation>+</div></div>","none","100","test","Amplitude","#1F45FC","7","magnitude","switch","stay","2","","","",""
"839","71","poldrack-single-stim","341","394845","0.0-262.0","pilot-38_ses-01_run2","","2000","0","stim","","<div class = upperbox><div class = ""center-text"" >Amplitude</div></div><div class = lowerbox><div class = ""stim-text"" style=color:#1F45FC;>7</div>","89,71","1000","test","Amplitude","#1F45FC","7","magnitude","switch","stay","2","true","71","",""
"","","call-function","342","394845","0.0-263.0","pilot-38_ses-01_run2","","","","set_stims","","","","","","","","","","","","","","","",""
"-1","-1","poldrack-single-stim","343","394962","0.0-264.0","pilot-38_ses-01_run2","","100","0","cue","","<div class = upperbox><div class = ""center-text"" >Couleur</div></div><div class = lowerbox><div class = fixation>+</div></div>","none","100","test","Couleur","#1F45FC","9","color","switch","stay","3","","","",""
"840","89","poldrack-single-stim","344","397653","0.0-265.0","pilot-38_ses-01_run2","","2680","0","stim","","<div class = upperbox><div class = ""center-text"" >Couleur</div></div><div class = lowerbox><div class = ""stim-text"" style=color:#1F45FC;>9</div>","89,71","1000","test","Couleur","#1F45FC","9","color","switch","stay","3","true","89","",""
"","","call-function","345","397653","0.0-266.0","pilot-38_ses-01_run2","","","","set_stims","","","","","","","","","","","","","","","",""
"-1","-1","poldrack-single-stim","346","398557","0.0-267.0","pilot-38_ses-01_run2","","900","0","cue","","<div class = upperbox><div class = ""center-text"" >Amplitude</div></div><div class = lowerbox><div class = fixation>+</div></div>","none","900","test","Amplitude","#1F45FC","7","magnitude","switch","stay","4","","","",""
"587","71","poldrack-single-stim","347","400579","0.0-268.0","pilot-38_ses-01_run2","","2000","0","stim","","<div class = upperbox><div class = ""center-text"" >Amplitude</div></div><div class = lowerbox><div class = ""stim-text"" style=color:#1F45FC;>7</div>","89,71","1000","test","Amplitude","#1F45FC","7","magnitude","switch","stay","4","true","71","",""
"","","call-function","348","400579","0.0-269.0","pilot-38_ses-01_run2","","","","set_stims","","","","","","","","","","","","","","","",""
"-1","-1","poldrack-single-stim","349","401507","0.0-270.0","pilot-38_ses-01_run2","","900","0","cue","","<div class = upperbox><div class = ""center-text"" >Amplitude</div></div><div class = lowerbox><div class = fixation>+</div></div>","none","900","test","Amplitude","#1F45FC","1","magnitude","stay","stay","5","","","",""
"717","89","poldrack-single-stim","350","403801","0.0-271.0","pilot-38_ses-01_run2","","2272","0","stim","","<div class = upperbox><div class = ""center-text"" >Amplitude</div></div><div class = lowerbox><div class = ""stim-text"" style=color:#1F45FC;>1</div>","89,71","1000","test","Amplitude","#1F45FC","1","magnitude","stay","stay","5","true","89","",""
"","","call-function","351","403801","0.0-272.0","pilot-38_ses-01_run2","","","","set_stims","","","","","","","","","","","","","","","",""
"-1","-1","poldrack-single-stim","352","403933","0.0-273.0","pilot-38_ses-01_run2","","100","0","cue","","<div class = upperbox><div class = ""center-text"" >Haut-Bas</div></div><div class = lowerbox><div class = fixation>+</div></div>","none","100","test","Haut-Bas","#1F45FC","3","magnitude","stay","switch","6","","","",""
"1074","89","poldrack-single-stim","353","405955","0.0-274.0","pilot-38_ses-01_run2","","2000","0","stim","","<div class = upperbox><div class = ""center-text"" >Haut-Bas</div></div><div class = lowerbox><div class = ""stim-text"" style=color:#1F45FC;>3</div>","89,71","1000","test","Haut-Bas","#1F45FC","3","magnitude","stay","switch","6","true","89","",""
"","","call-function","354","405957","0.0-275.0","pilot-38_ses-01_run2","","","","set_stims","","","","","","","","","","","","","","","",""
"-1","-1","poldrack-single-stim","355","406072","0.0-276.0","pilot-38_ses-01_run2","","100","0","cue","","<div class = upperbox><div class = ""center-text"" >Amplitude</div></div><div class = lowerbox><div class = fixation>+</div></div>","none","100","test","Amplitude","#1F45FC","4","magnitude","stay","switch","7","","","",""
"702","89","poldrack-single-stim","356","408368","0.0-277.0","pilot-38_ses-01_run2","","2272","0","stim","","<div class = upperbox><div class = ""center-text"" >Amplitude</div></div><div class = lowerbox><div class = ""stim-text"" style=color:#1F45FC;>4</div>","89,71","1000","test","Amplitude","#1F45FC","4","magnitude","stay","switch","7","true","89","",""
"","","call-function","357","408368","0.0-278.0","pilot-38_ses-01_run2","","","","set_stims","","","","","","","","","","","","","","","",""
"-1","-1","poldrack-single-stim","358","409272","0.0-279.0","pilot-38_ses-01_run2","","900","0","cue","","<div class = upperbox><div class = ""center-text"" >Orange-Bleu</div></div><div class = lowerbox><div class = fixation>+</div></div>","none","900","test","Orange-Bleu","orange","7","color","switch","switch","8","","","",""
"385","71","poldrack-single-stim","359","412240","0.0-280.0","pilot-38_ses-01_run2","","2952","0","stim","","<div class = upperbox><div class = ""center-text"" >Orange-Bleu</div></div><div class = lowerbox><div class = ""stim-text"" style=color:orange;>7</div>","89,71","1000","test","Orange-Bleu","orange","7","color","switch","switch","8","true","71","",""
"","","call-function","360","412241","0.0-281.0","pilot-38_ses-01_run2","","","","set_stims","","","","","","","","","","","","","","","",""
"-1","-1","poldrack-single-stim","361","413173","0.0-282.0","pilot-38_ses-01_run2","","900","0","cue","","<div class = upperbox><div class = ""center-text"" >Amplitude</div></div><div class = lowerbox><div class = fixation>+</div></div>","none","900","test","Amplitude","orange","4","magnitude","switch","stay","9","","","",""
"656","89","poldrack-single-stim","362","415195","0.0-283.0","pilot-38_ses-01_run2","","2000","0","stim","","<div class = upperbox><div class = ""center-text"" >Amplitude</div></div><div class = lowerbox><div class = ""stim-text"" style=color:orange;>4</div>","89,71","1000","test","Amplitude","orange","4","magnitude","switch","stay","9","true","89","",""
"","","call-function","363","415196","0.0-284.0","pilot-38_ses-01_run2","","","","set_stims","","","","","","","","","","","","","","","",""
"-1","-1","poldrack-single-stim","364","416137","0.0-285.0","pilot-38_ses-01_run2","","900","0","cue","","<div class = upperbox><div class = ""center-text"" >Couleur</div></div><div class = lowerbox><div class = fixation>+</div></div>","none","900","test","Couleur","orange","2","color","switch","stay","10","","","",""
"551","71","poldrack-single-stim","365","418157","0.0-286.0","pilot-38_ses-01_run2","","2000","0","stim","","<div class = upperbox><div class = ""center-text"" >Couleur</div></div><div class = lowerbox><div class = ""stim-text"" style=color:orange;>2</div>","89,71","1000","test","Couleur","orange","2","color","switch","stay","10","true","71","",""
"","","call-function","366","418157","0.0-287.0","pilot-38_ses-01_run2","","","","set_stims","","","","","","","","","","","","","","","",""
"-1","-1","poldrack-single-stim","367","419075","0.0-288.0","pilot-38_ses-01_run2","","900","0","cue","","<div class = upperbox><div class = ""center-text"" >Orange-Bleu</div></div><div class = lowerbox><div class = fixation>+</div></div>","none","900","test","Orange-Bleu","#1F45FC","6","color","stay","switch","11","","","",""
"464","89","poldrack-single-stim","368","421098","0.0-289.0","pilot-38_ses-01_run2","","2000","0","stim","","<div class = upperbox><div class = ""center-text"" >Orange-Bleu</div></div><div class = lowerbox><div class = ""stim-text"" style=color:#1F45FC;>6</div>","89,71","1000","test","Orange-Bleu","#1F45FC","6","color","stay","switch","11","true","89","",""
"","","call-function","369","421098","0.0-290.0","pilot-38_ses-01_run2","","","","set_stims","","","","","","","","","","","","","","","",""
