"rt","key_press","trial_type","trial_index","time_elapsed","internal_node_id","subject","text","block_duration","timing_post_trial","trial_id","stimulus","possible_responses","stim_duration","exp_stage","small_amount","large_amount","later_delay","choice","exp_id","bonus"
"3812","13","text","0","3815","0.0-0.0","pilot-39_ses-02_1","","","","","","","","","","","","","",""
"906","89","poldrack-text","1","5737","0.0-1.0","pilot-39_ses-02_1","<div class = centerbox><div style = 'font-size: 50px' class = center-text>Veuillez appuyer avec votre index</p></div>","906","500","fmri_response_test","","","","","","","","","",""
"416","71","poldrack-text","2","6668","0.0-2.0","pilot-39_ses-02_1","<div class = centerbox><div style = 'font-size: 50px' class = center-text>Veuillez appuyer avec votre majeur</p></div>","416","500","fmri_response_test","","","","","","","","","",""
"7022","32","poldrack-single-stim","3","14217","0.0-3.0","pilot-39_ses-02_1","","7022","500","instructions","<div class = centerbox><div class = center-text><font size=""+3"">Choisissez entre <strong>20€ aujourd'hui</strong> ou l'option presentee.<br><strong>Index:</strong> Accepter l'option a l'ecran (rejeter 20€ aujourd'hui). <br><strong>Majeur:</strong> Rejeter l'option a l'ecran (accept 20€ today)<br>Nous commencerons par un essai d'entrainement.</font></div></div>","32","7022","","","","","","",""
"2557","89","poldrack-single-stim","4","17293","0.0-4.0","pilot-39_ses-02_1","","2557","1000","stim","<div class = dd-stim><div class = amtbox style = ""color:white"">53.75€</div><br><br><div class = delbox style = ""color:white"">34 days</div></div>","89,71","2557","practice","","","","","",""
"37677","32","poldrack-text","5","55980","0.0-5.0","pilot-39_ses-02_1","<div class = centerbox><div  class = center-text>Scanner Setup</div></div>","37677","0","fmri_scanner_wait","","","","","","","","","",""
"101381","84","poldrack-text","6","157362","0.0-6.0","pilot-39_ses-02_1","<div class = centerbox><div style='color:red'; class = center-text>+</div></div>","101381","0","fmri_trigger_wait","","","","","","","","","",""
"-1","-1","poldrack-single-stim","7","158385","0.0-7.0","pilot-39_ses-02_1","","1000","0","fmri_buffer","","none","1000","","","","","","",""
"-1","-1","poldrack-single-stim","8","159898","0.0-8.0","pilot-39_ses-02_1","","1500","500","test_start_block","<div class = centerbox><div class = center-text>Preparez-vous!</p></div>","none","1500","","","","","","",""
"1679","71","poldrack-single-stim","9","165746","0.0-9.0","pilot-39_ses-02_1","","5316","0","","<div class = dd-stim><div class = amtbox style = ""color:white"">31€</div><br><br><div class = delbox style = ""color:white"">76 jours</div></div>","89,71","4000","","20","31","76","smaller_sooner","",""
"1538","89","poldrack-single-stim","10","170340","0.0-10.0","pilot-39_ses-02_1","","4568","0","","<div class = dd-stim><div class = amtbox style = ""color:white"">43€</div><br><br><div class = delbox style = ""color:white"">19 jours</div></div>","89,71","4000","","20","43","19","larger_later","",""
"1335","71","poldrack-single-stim","11","174991","0.0-11.0","pilot-39_ses-02_1","","4636","0","","<div class = dd-stim><div class = amtbox style = ""color:white"">60€</div><br><br><div class = delbox style = ""color:white"">124 jours</div></div>","89,71","4000","","20","60","124","smaller_sooner","",""
"1300","71","poldrack-single-stim","12","179933","0.0-12.0","pilot-39_ses-02_1","","4908","0","","<div class = dd-stim><div class = amtbox style = ""color:white"">27€</div><br><br><div class = delbox style = ""color:white"">142 jours</div></div>","89,71","4000","","20","27","142","smaller_sooner","",""
"1218","71","poldrack-single-stim","13","184445","0.0-13.0","pilot-39_ses-02_1","","4500","0","","<div class = dd-stim><div class = amtbox style = ""color:white"">25€</div><br><br><div class = delbox style = ""color:white"">70 jours</div></div>","89,71","4000","","20","25","70","smaller_sooner","",""
"1322","71","poldrack-single-stim","14","189433","0.0-14.0","pilot-39_ses-02_1","","4976","0","","<div class = dd-stim><div class = amtbox style = ""color:white"">44€</div><br><br><div class = delbox style = ""color:white"">92 jours</div></div>","89,71","4000","","20","44","92","smaller_sooner","",""
"910","89","poldrack-single-stim","15","194365","0.0-15.0","pilot-39_ses-02_1","","4908","0","","<div class = dd-stim><div class = amtbox style = ""color:white"">41€</div><br><br><div class = delbox style = ""color:white"">27 jours</div></div>","89,71","4000","","20","41","27","larger_later","",""
"1645","89","poldrack-single-stim","16","198945","0.0-16.0","pilot-39_ses-02_1","","4568","0","","<div class = dd-stim><div class = amtbox style = ""color:white"">64€</div><br><br><div class = delbox style = ""color:white"">89 jours</div></div>","89,71","4000","","20","64","89","larger_later","",""
"1559","89","poldrack-single-stim","17","203460","0.0-17.0","pilot-39_ses-02_1","","4500","0","","<div class = dd-stim><div class = amtbox style = ""color:white"">78€</div><br><br><div class = delbox style = ""color:white"">108 jours</div></div>","89,71","4000","","20","78","108","larger_later","",""
"1746","89","poldrack-single-stim","18","209673","0.0-18.0","pilot-39_ses-02_1","","6200","0","","<div class = dd-stim><div class = amtbox style = ""color:white"">80€</div><br><br><div class = delbox style = ""color:white"">145 jours</div></div>","89,71","4000","","20","80","145","larger_later","",""
"1465","71","poldrack-single-stim","19","214397","0.0-19.0","pilot-39_ses-02_1","","4704","0","","<div class = dd-stim><div class = amtbox style = ""color:white"">41€</div><br><br><div class = delbox style = ""color:white"">174 jours</div></div>","89,71","4000","","20","41","174","smaller_sooner","",""
"1203","71","poldrack-single-stim","20","219468","0.0-20.0","pilot-39_ses-02_1","","5044","0","","<div class = dd-stim><div class = amtbox style = ""color:white"">42€</div><br><br><div class = delbox style = ""color:white"">145 jours</div></div>","89,71","4000","","20","42","145","smaller_sooner","",""
"1396","89","poldrack-single-stim","21","224499","0.0-21.0","pilot-39_ses-02_1","","5044","0","","<div class = dd-stim><div class = amtbox style = ""color:white"">36€</div><br><br><div class = delbox style = ""color:white"">114 jours</div></div>","89,71","4000","","20","36","114","larger_later","",""
"1499","71","poldrack-single-stim","22","229708","0.0-22.0","pilot-39_ses-02_1","","5180","0","","<div class = dd-stim><div class = amtbox style = ""color:white"">58€</div><br><br><div class = delbox style = ""color:white"">55 jours</div></div>","89,71","4000","","20","58","55","smaller_sooner","",""
"1730","89","poldrack-single-stim","23","234714","0.0-23.0","pilot-39_ses-02_1","","4976","0","","<div class = dd-stim><div class = amtbox style = ""color:white"">81€</div><br><br><div class = delbox style = ""color:white"">58 jours</div></div>","89,71","4000","","20","81","58","larger_later","",""
"1150","71","poldrack-single-stim","24","239500","0.0-24.0","pilot-39_ses-02_1","","4772","0","","<div class = dd-stim><div class = amtbox style = ""color:white"">32€</div><br><br><div class = delbox style = ""color:white"">111 jours</div></div>","89,71","4000","","20","32","111","smaller_sooner","",""
"1100","71","poldrack-single-stim","25","244273","0.0-25.0","pilot-39_ses-02_1","","4772","0","","<div class = dd-stim><div class = amtbox style = ""color:white"">25€</div><br><br><div class = delbox style = ""color:white"">141 jours</div></div>","89,71","4000","","20","25","141","smaller_sooner","",""
"1130","89","poldrack-single-stim","26","249465","0.0-26.0","pilot-39_ses-02_1","","5180","0","","<div class = dd-stim><div class = amtbox style = ""color:white"">67€</div><br><br><div class = delbox style = ""color:white"">23 jours</div></div>","89,71","4000","","20","67","23","larger_later","",""
"1533","71","poldrack-single-stim","27","254652","0.0-27.0","pilot-39_ses-02_1","","5180","0","","<div class = dd-stim><div class = amtbox style = ""color:white"">77€</div><br><br><div class = delbox style = ""color:white"">161 jours</div></div>","89,71","4000","","20","77","161","smaller_sooner","",""
"1232","71","poldrack-single-stim","28","259906","0.0-28.0","pilot-39_ses-02_1","","5248","0","","<div class = dd-stim><div class = amtbox style = ""color:white"">55€</div><br><br><div class = delbox style = ""color:white"">163 jours</div></div>","89,71","4000","","20","55","163","smaller_sooner","",""
"1367","71","poldrack-single-stim","29","264493","0.0-29.0","pilot-39_ses-02_1","","4568","0","","<div class = dd-stim><div class = amtbox style = ""color:white"">40€</div><br><br><div class = delbox style = ""color:white"">159 jours</div></div>","89,71","4000","","20","40","159","smaller_sooner","",""
"1548","71","poldrack-single-stim","30","269007","0.0-30.0","pilot-39_ses-02_1","","4500","0","","<div class = dd-stim><div class = amtbox style = ""color:white"">76€</div><br><br><div class = delbox style = ""color:white"">161 jours</div></div>","89,71","4000","","20","76","161","smaller_sooner","",""
"1937","71","poldrack-single-stim","31","273940","0.0-31.0","pilot-39_ses-02_1","","4908","0","","<div class = dd-stim><div class = amtbox style = ""color:white"">48€</div><br><br><div class = delbox style = ""color:white"">128 jours</div></div>","89,71","4000","","20","48","128","smaller_sooner","",""
"1786","71","poldrack-single-stim","32","278518","0.0-32.0","pilot-39_ses-02_1","","4568","0","","<div class = dd-stim><div class = amtbox style = ""color:white"">39€</div><br><br><div class = delbox style = ""color:white"">95 jours</div></div>","89,71","4000","","20","39","95","smaller_sooner","",""
"1857","89","poldrack-single-stim","33","284741","0.0-33.0","pilot-39_ses-02_1","","6200","0","","<div class = dd-stim><div class = amtbox style = ""color:white"">83€</div><br><br><div class = delbox style = ""color:white"">105 jours</div></div>","89,71","4000","","20","83","105","larger_later","",""
"1737","89","poldrack-single-stim","34","289670","0.0-34.0","pilot-39_ses-02_1","","4908","0","","<div class = dd-stim><div class = amtbox style = ""color:white"">67€</div><br><br><div class = delbox style = ""color:white"">41 jours</div></div>","89,71","4000","","20","67","41","larger_later","",""
"1270","71","poldrack-single-stim","35","294947","0.0-35.0","pilot-39_ses-02_1","","5248","0","","<div class = dd-stim><div class = amtbox style = ""color:white"">56€</div><br><br><div class = delbox style = ""color:white"">172 jours</div></div>","89,71","4000","","20","56","172","smaller_sooner","",""
"1895","71","poldrack-single-stim","36","300010","0.0-36.0","pilot-39_ses-02_1","","5044","0","","<div class = dd-stim><div class = amtbox style = ""color:white"">28€</div><br><br><div class = delbox style = ""color:white"">123 jours</div></div>","89,71","4000","","20","28","123","smaller_sooner","",""
"3394","71","poldrack-single-stim","37","304664","0.0-37.0","pilot-39_ses-02_1","","4636","0","","<div class = dd-stim><div class = amtbox style = ""color:white"">50€</div><br><br><div class = delbox style = ""color:white"">129 jours</div></div>","89,71","4000","","20","50","129","smaller_sooner","",""
"1962","71","poldrack-single-stim","38","309384","0.0-38.0","pilot-39_ses-02_1","","4704","0","","<div class = dd-stim><div class = amtbox style = ""color:white"">23€</div><br><br><div class = delbox style = ""color:white"">61 jours</div></div>","89,71","4000","","20","23","61","smaller_sooner","",""
"1544","89","poldrack-single-stim","39","314039","0.0-39.0","pilot-39_ses-02_1","","4636","0","","<div class = dd-stim><div class = amtbox style = ""color:white"">79€</div><br><br><div class = delbox style = ""color:white"">92 jours</div></div>","89,71","4000","","20","79","92","larger_later","",""
"1461","71","poldrack-single-stim","40","318633","0.0-40.0","pilot-39_ses-02_1","","4568","0","","<div class = dd-stim><div class = amtbox style = ""color:white"">61€</div><br><br><div class = delbox style = ""color:white"">141 jours</div></div>","89,71","4000","","20","61","141","smaller_sooner","",""
"2070","89","poldrack-single-stim","41","323200","0.0-41.0","pilot-39_ses-02_1","","4568","0","","<div class = dd-stim><div class = amtbox style = ""color:white"">43€</div><br><br><div class = delbox style = ""color:white"">38 jours</div></div>","89,71","4000","","20","43","38","larger_later","",""
"2727","71","poldrack-single-stim","42","328132","0.0-42.0","pilot-39_ses-02_1","","4908","0","","<div class = dd-stim><div class = amtbox style = ""color:white"">66€</div><br><br><div class = delbox style = ""color:white"">145 jours</div></div>","89,71","4000","","20","66","145","smaller_sooner","",""
"2351","89","poldrack-single-stim","43","332993","0.0-43.0","pilot-39_ses-02_1","","4840","0","","<div class = dd-stim><div class = amtbox style = ""color:white"">30€</div><br><br><div class = delbox style = ""color:white"">23 jours</div></div>","89,71","4000","","20","30","23","larger_later","",""
"1048","71","poldrack-single-stim","44","338262","0.0-44.0","pilot-39_ses-02_1","","5248","0","","<div class = dd-stim><div class = amtbox style = ""color:white"">32€</div><br><br><div class = delbox style = ""color:white"">57 jours</div></div>","89,71","4000","","20","32","57","smaller_sooner","",""
"1536","71","poldrack-single-stim","45","343054","0.0-45.0","pilot-39_ses-02_1","","4772","0","","<div class = dd-stim><div class = amtbox style = ""color:white"">27€</div><br><br><div class = delbox style = ""color:white"">91 jours</div></div>","89,71","4000","","20","27","91","smaller_sooner","",""
"1704","71","poldrack-single-stim","46","349070","0.0-46.0","pilot-39_ses-02_1","","5996","0","","<div class = dd-stim><div class = amtbox style = ""color:white"">43€</div><br><br><div class = delbox style = ""color:white"">120 jours</div></div>","89,71","4000","","20","43","120","smaller_sooner","",""
"1767","89","poldrack-single-stim","47","354681","0.0-47.0","pilot-39_ses-02_1","","5588","0","","<div class = dd-stim><div class = amtbox style = ""color:white"">75€</div><br><br><div class = delbox style = ""color:white"">60 jours</div></div>","89,71","4000","","20","75","60","larger_later","",""
"2473","71","poldrack-single-stim","48","359273","0.0-48.0","pilot-39_ses-02_1","","4568","0","","<div class = dd-stim><div class = amtbox style = ""color:white"">34€</div><br><br><div class = delbox style = ""color:white"">176 jours</div></div>","89,71","4000","","20","34","176","smaller_sooner","",""
"2333","71","poldrack-single-stim","49","364415","0.0-49.0","pilot-39_ses-02_1","","5112","0","","<div class = dd-stim><div class = amtbox style = ""color:white"">24€</div><br><br><div class = delbox style = ""color:white"">38 jours</div></div>","89,71","4000","","20","24","38","smaller_sooner","",""
"1575","89","poldrack-single-stim","50","370089","0.0-50.0","pilot-39_ses-02_1","","5656","0","","<div class = dd-stim><div class = amtbox style = ""color:white"">82€</div><br><br><div class = delbox style = ""color:white"">74 jours</div></div>","89,71","4000","","20","82","74","larger_later","",""
"1803","71","poldrack-single-stim","51","374680","0.0-51.0","pilot-39_ses-02_1","","4568","0","","<div class = dd-stim><div class = amtbox style = ""color:white"">58€</div><br><br><div class = delbox style = ""color:white"">53 jours</div></div>","89,71","4000","","20","58","53","smaller_sooner","",""
"2587","89","poldrack-single-stim","52","379462","0.0-52.0","pilot-39_ses-02_1","","4772","0","","<div class = dd-stim><div class = amtbox style = ""color:white"">54€</div><br><br><div class = delbox style = ""color:white"">23 jours</div></div>","89,71","4000","","20","54","23","larger_later","",""
"1782","71","poldrack-single-stim","53","384523","0.0-53.0","pilot-39_ses-02_1","","5044","0","","<div class = dd-stim><div class = amtbox style = ""color:white"">41€</div><br><br><div class = delbox style = ""color:white"">55 jours</div></div>","89,71","4000","","20","41","55","smaller_sooner","",""
"1968","71","poldrack-single-stim","54","389377","0.0-54.0","pilot-39_ses-02_1","","4840","0","","<div class = dd-stim><div class = amtbox style = ""color:white"">77€</div><br><br><div class = delbox style = ""color:white"">142 jours</div></div>","89,71","4000","","20","77","142","smaller_sooner","",""
"1198","71","poldrack-single-stim","55","394580","0.0-55.0","pilot-39_ses-02_1","","5180","0","","<div class = dd-stim><div class = amtbox style = ""color:white"">25€</div><br><br><div class = delbox style = ""color:white"">108 jours</div></div>","89,71","4000","","20","25","108","smaller_sooner","",""
"2303","71","poldrack-single-stim","56","399643","0.0-56.0","pilot-39_ses-02_1","","5044","0","","<div class = dd-stim><div class = amtbox style = ""color:white"">33€</div><br><br><div class = delbox style = ""color:white"">163 jours</div></div>","89,71","4000","","20","33","163","smaller_sooner","",""
"1328","71","poldrack-single-stim","57","404636","0.0-57.0","pilot-39_ses-02_1","","4976","0","","<div class = dd-stim><div class = amtbox style = ""color:white"">29€</div><br><br><div class = delbox style = ""color:white"">75 jours</div></div>","89,71","4000","","20","29","75","smaller_sooner","",""
"1716","71","poldrack-single-stim","58","409618","0.0-58.0","pilot-39_ses-02_1","","4976","0","","<div class = dd-stim><div class = amtbox style = ""color:white"">45€</div><br><br><div class = delbox style = ""color:white"">157 jours</div></div>","89,71","4000","","20","45","157","smaller_sooner","",""
"1601","71","poldrack-single-stim","59","414955","0.0-59.0","pilot-39_ses-02_1","","5316","0","","<div class = dd-stim><div class = amtbox style = ""color:white"">31€</div><br><br><div class = delbox style = ""color:white"">74 jours</div></div>","89,71","4000","","20","31","74","smaller_sooner","",""
"1257","89","poldrack-single-stim","60","419474","0.0-60.0","pilot-39_ses-02_1","","4500","0","","<div class = dd-stim><div class = amtbox style = ""color:white"">80€</div><br><br><div class = delbox style = ""color:white"">39 jours</div></div>","89,71","4000","","20","80","39","larger_later","",""
"973","71","poldrack-single-stim","61","424527","0.0-61.0","pilot-39_ses-02_1","","5044","0","","<div class = dd-stim><div class = amtbox style = ""color:white"">22€</div><br><br><div class = delbox style = ""color:white"">21 jours</div></div>","89,71","4000","","20","22","21","smaller_sooner","",""
"1882","71","poldrack-single-stim","62","429240","0.0-62.0","pilot-39_ses-02_1","","4704","0","","<div class = dd-stim><div class = amtbox style = ""color:white"">52€</div><br><br><div class = delbox style = ""color:white"">139 jours</div></div>","89,71","4000","","20","52","139","smaller_sooner","",""
"1398","71","poldrack-single-stim","63","434095","0.0-63.0","pilot-39_ses-02_1","","4840","0","","<div class = dd-stim><div class = amtbox style = ""color:white"">54€</div><br><br><div class = delbox style = ""color:white"">126 jours</div></div>","89,71","4000","","20","54","126","smaller_sooner","",""
"1188","71","poldrack-single-stim","64","440867","0.0-64.0","pilot-39_ses-02_1","","6744","0","","<div class = dd-stim><div class = amtbox style = ""color:white"">23€</div><br><br><div class = delbox style = ""color:white"">176 jours</div></div>","89,71","4000","","20","23","176","smaller_sooner","",""
"1102","71","poldrack-single-stim","65","445390","0.0-65.0","pilot-39_ses-02_1","","4500","0","","<div class = dd-stim><div class = amtbox style = ""color:white"">24€</div><br><br><div class = delbox style = ""color:white"">87 jours</div></div>","89,71","4000","","20","24","87","smaller_sooner","",""
"1446","71","poldrack-single-stim","66","449973","0.0-66.0","pilot-39_ses-02_1","","4568","0","","<div class = dd-stim><div class = amtbox style = ""color:white"">36€</div><br><br><div class = delbox style = ""color:white"">140 jours</div></div>","89,71","4000","","20","36","140","smaller_sooner","",""
"1030","71","poldrack-single-stim","67","454694","0.0-67.0","pilot-39_ses-02_1","","4704","0","","<div class = dd-stim><div class = amtbox style = ""color:white"">35€</div><br><br><div class = delbox style = ""color:white"">171 jours</div></div>","89,71","4000","","20","35","171","smaller_sooner","",""
"2275","89","poldrack-single-stim","68","459615","0.0-68.0","pilot-39_ses-02_1","","4908","0","","<div class = dd-stim><div class = amtbox style = ""color:white"">34€</div><br><br><div class = delbox style = ""color:white"">43 jours</div></div>","89,71","4000","","20","34","43","larger_later","",""
"1127","71","poldrack-single-stim","69","464200","0.0-69.0","pilot-39_ses-02_1","","4568","0","","<div class = dd-stim><div class = amtbox style = ""color:white"">74€</div><br><br><div class = delbox style = ""color:white"">121 jours</div></div>","89,71","4000","","20","74","121","smaller_sooner","",""
"-1","-1","poldrack-single-stim","70","471715","0.0-70.0","pilot-39_ses-02_1","","7500","1000","rest_block","<div class = centerbox><div class = center-text>Dans ce bloc suivant<br><strong>Index:</strong> Acepter l'option a l'ecran (rejeter 20€ aujourd'hui). <br><strong>Majeur:</strong> Rejeter l'option a l'ecran (accepter 20€ aujourd'hui)<br>La prochaine session commencera dans un moment.</div></div>","none","7500","","","","","","",""
"1494","71","poldrack-single-stim","71","477528","0.0-71.0","pilot-39_ses-02_1","","4772","0","","<div class = dd-stim><div class = amtbox style = ""color:white"">45€</div><br><br><div class = delbox style = ""color:white"">107 jours</div></div>","89,71","4000","","20","45","107","smaller_sooner","",""
"1431","89","poldrack-single-stim","72","482184","0.0-72.0","pilot-39_ses-02_1","","4636","0","","<div class = dd-stim><div class = amtbox style = ""color:white"">77€</div><br><br><div class = delbox style = ""color:white"">24 jours</div></div>","89,71","4000","","20","77","24","larger_later","",""
"2689","71","poldrack-single-stim","73","486775","0.0-73.0","pilot-39_ses-02_1","","4568","0","","<div class = dd-stim><div class = amtbox style = ""color:white"">39€</div><br><br><div class = delbox style = ""color:white"">161 jours</div></div>","89,71","4000","","20","39","161","smaller_sooner","",""
"1544","71","poldrack-single-stim","74","492242","0.0-74.0","pilot-39_ses-02_1","","5452","0","","<div class = dd-stim><div class = amtbox style = ""color:white"">62€</div><br><br><div class = delbox style = ""color:white"">180 jours</div></div>","89,71","4000","","20","62","180","smaller_sooner","",""
"1712","71","poldrack-single-stim","75","497645","0.0-75.0","pilot-39_ses-02_1","","5384","0","","<div class = dd-stim><div class = amtbox style = ""color:white"">24€</div><br><br><div class = delbox style = ""color:white"">139 jours</div></div>","89,71","4000","","20","24","139","smaller_sooner","",""
"1895","89","poldrack-single-stim","76","502227","0.0-76.0","pilot-39_ses-02_1","","4568","0","","<div class = dd-stim><div class = amtbox style = ""color:white"">58€</div><br><br><div class = delbox style = ""color:white"">72 jours</div></div>","89,71","4000","","20","58","72","larger_later","",""
"1872","89","poldrack-single-stim","77","508505","0.0-77.0","pilot-39_ses-02_1","","6268","0","","<div class = dd-stim><div class = amtbox style = ""color:white"">56€</div><br><br><div class = delbox style = ""color:white"">93 jours</div></div>","89,71","4000","","20","56","93","larger_later","",""
"2421","89","poldrack-single-stim","78","514037","0.0-78.0","pilot-39_ses-02_1","","5520","0","","<div class = dd-stim><div class = amtbox style = ""color:white"">45€</div><br><br><div class = delbox style = ""color:white"">26 jours</div></div>","89,71","4000","","20","45","26","larger_later","",""
"2615","71","poldrack-single-stim","79","518622","0.0-79.0","pilot-39_ses-02_1","","4568","0","","<div class = dd-stim><div class = amtbox style = ""color:white"">23€</div><br><br><div class = delbox style = ""color:white"">42 jours</div></div>","89,71","4000","","20","23","42","smaller_sooner","",""
"-1","-1","poldrack-single-stim","80","523277","0.0-80.0","pilot-39_ses-02_1","","4636","0","","<div class = dd-stim><div class = amtbox style = ""color:white"">50€</div><br><br><div class = delbox style = ""color:white"">41 jours</div></div>","89,71","4000","","20","50","41","false","",""
"1609","71","poldrack-single-stim","81","527924","0.0-81.0","pilot-39_ses-02_1","","4636","0","","<div class = dd-stim><div class = amtbox style = ""color:white"">25€</div><br><br><div class = delbox style = ""color:white"">176 jours</div></div>","89,71","4000","","20","25","176","smaller_sooner","",""
"1645","89","poldrack-single-stim","82","533063","0.0-82.0","pilot-39_ses-02_1","","5112","0","","<div class = dd-stim><div class = amtbox style = ""color:white"">54€</div><br><br><div class = delbox style = ""color:white"">22 jours</div></div>","89,71","4000","","20","54","22","larger_later","",""
"2464","89","poldrack-single-stim","83","538401","0.0-83.0","pilot-39_ses-02_1","","5316","0","","<div class = dd-stim><div class = amtbox style = ""color:white"">29€</div><br><br><div class = delbox style = ""color:white"">44 jours</div></div>","89,71","4000","","20","29","44","larger_later","",""
"986","71","poldrack-single-stim","84","542990","0.0-84.0","pilot-39_ses-02_1","","4568","0","","<div class = dd-stim><div class = amtbox style = ""color:white"">24€</div><br><br><div class = delbox style = ""color:white"">89 jours</div></div>","89,71","4000","","20","24","89","smaller_sooner","",""
"1550","71","poldrack-single-stim","85","547552","0.0-85.0","pilot-39_ses-02_1","","4568","0","","<div class = dd-stim><div class = amtbox style = ""color:white"">23€</div><br><br><div class = delbox style = ""color:white"">77 jours</div></div>","89,71","4000","","20","23","77","smaller_sooner","",""
"1888","71","poldrack-single-stim","86","552108","0.0-86.0","pilot-39_ses-02_1","","4568","0","","<div class = dd-stim><div class = amtbox style = ""color:white"">27€</div><br><br><div class = delbox style = ""color:white"">130 jours</div></div>","89,71","4000","","20","27","130","smaller_sooner","",""
"931","71","poldrack-single-stim","87","556961","0.0-87.0","pilot-39_ses-02_1","","4840","0","","<div class = dd-stim><div class = amtbox style = ""color:white"">23€</div><br><br><div class = delbox style = ""color:white"">134 jours</div></div>","89,71","4000","","20","23","134","smaller_sooner","",""
"2180","89","poldrack-single-stim","88","561475","0.0-88.0","pilot-39_ses-02_1","","4500","0","","<div class = dd-stim><div class = amtbox style = ""color:white"">55€</div><br><br><div class = delbox style = ""color:white"">107 jours</div></div>","89,71","4000","","20","55","107","larger_later","",""
"1107","71","poldrack-single-stim","89","567142","0.0-89.0","pilot-39_ses-02_1","","5656","0","","<div class = dd-stim><div class = amtbox style = ""color:white"">44€</div><br><br><div class = delbox style = ""color:white"">143 jours</div></div>","89,71","4000","","20","44","143","smaller_sooner","",""
"1067","71","poldrack-single-stim","90","572069","0.0-90.0","pilot-39_ses-02_1","","4908","0","","<div class = dd-stim><div class = amtbox style = ""color:white"">23€</div><br><br><div class = delbox style = ""color:white"">110 jours</div></div>","89,71","4000","","20","23","110","smaller_sooner","",""
"1402","71","poldrack-single-stim","91","576726","0.0-91.0","pilot-39_ses-02_1","","4636","0","","<div class = dd-stim><div class = amtbox style = ""color:white"">65€</div><br><br><div class = delbox style = ""color:white"">156 jours</div></div>","89,71","4000","","20","65","156","smaller_sooner","",""
"1937","71","poldrack-single-stim","92","581241","0.0-92.0","pilot-39_ses-02_1","","4500","0","","<div class = dd-stim><div class = amtbox style = ""color:white"">22€</div><br><br><div class = delbox style = ""color:white"">27 jours</div></div>","89,71","4000","","20","22","27","smaller_sooner","",""
"2555","89","poldrack-single-stim","93","585750","0.0-93.0","pilot-39_ses-02_1","","4500","0","","<div class = dd-stim><div class = amtbox style = ""color:white"">50€</div><br><br><div class = delbox style = ""color:white"">59 jours</div></div>","89,71","4000","","20","50","59","larger_later","",""
"2936","89","poldrack-single-stim","94","590877","0.0-94.0","pilot-39_ses-02_1","","5112","0","","<div class = dd-stim><div class = amtbox style = ""color:white"">85€</div><br><br><div class = delbox style = ""color:white"">129 jours</div></div>","89,71","4000","","20","85","129","larger_later","",""
"1421","89","poldrack-single-stim","95","597021","0.0-95.0","pilot-39_ses-02_1","","6132","0","","<div class = dd-stim><div class = amtbox style = ""color:white"">66€</div><br><br><div class = delbox style = ""color:white"">58 jours</div></div>","89,71","4000","","20","66","58","larger_later","",""
"1517","71","poldrack-single-stim","96","601878","0.0-96.0","pilot-39_ses-02_1","","4840","0","","<div class = dd-stim><div class = amtbox style = ""color:white"">49€</div><br><br><div class = delbox style = ""color:white"">172 jours</div></div>","89,71","4000","","20","49","172","smaller_sooner","",""
"3583","89","poldrack-single-stim","97","606455","0.0-97.0","pilot-39_ses-02_1","","4568","0","","<div class = dd-stim><div class = amtbox style = ""color:white"">73€</div><br><br><div class = delbox style = ""color:white"">44 jours</div></div>","89,71","4000","","20","73","44","larger_later","",""
"3463","71","poldrack-single-stim","98","611170","0.0-98.0","pilot-39_ses-02_1","","4704","0","","<div class = dd-stim><div class = amtbox style = ""color:white"">58€</div><br><br><div class = delbox style = ""color:white"">73 jours</div></div>","89,71","4000","","20","58","73","smaller_sooner","",""
"2315","89","poldrack-single-stim","99","617046","0.0-99.0","pilot-39_ses-02_1","","5860","0","","<div class = dd-stim><div class = amtbox style = ""color:white"">71€</div><br><br><div class = delbox style = ""color:white"">76 jours</div></div>","89,71","4000","","20","71","76","larger_later","",""
"1070","89","poldrack-single-stim","100","621694","0.0-100.0","pilot-39_ses-02_1","","4636","0","","<div class = dd-stim><div class = amtbox style = ""color:white"">67€</div><br><br><div class = delbox style = ""color:white"">74 jours</div></div>","89,71","4000","","20","67","74","larger_later","",""
"1343","71","poldrack-single-stim","101","627018","0.0-101.0","pilot-39_ses-02_1","","5316","0","","<div class = dd-stim><div class = amtbox style = ""color:white"">29€</div><br><br><div class = delbox style = ""color:white"">58 jours</div></div>","89,71","4000","","20","29","58","smaller_sooner","",""
"2052","71","poldrack-single-stim","102","632008","0.0-102.0","pilot-39_ses-02_1","","4976","0","","<div class = dd-stim><div class = amtbox style = ""color:white"">39€</div><br><br><div class = delbox style = ""color:white"">104 jours</div></div>","89,71","4000","","20","39","104","smaller_sooner","",""
"1000","71","poldrack-single-stim","103","636590","0.0-103.0","pilot-39_ses-02_1","","4568","0","","<div class = dd-stim><div class = amtbox style = ""color:white"">33€</div><br><br><div class = delbox style = ""color:white"">103 jours</div></div>","89,71","4000","","20","33","103","smaller_sooner","",""
"2031","71","poldrack-single-stim","104","642137","0.0-104.0","pilot-39_ses-02_1","","5520","0","","<div class = dd-stim><div class = amtbox style = ""color:white"">33€</div><br><br><div class = delbox style = ""color:white"">78 jours</div></div>","89,71","4000","","20","33","78","smaller_sooner","",""
"1098","89","poldrack-single-stim","105","647750","0.0-105.0","pilot-39_ses-02_1","","5588","0","","<div class = dd-stim><div class = amtbox style = ""color:white"">74€</div><br><br><div class = delbox style = ""color:white"">52 jours</div></div>","89,71","4000","","20","74","52","larger_later","",""
"1218","71","poldrack-single-stim","106","653556","0.0-106.0","pilot-39_ses-02_1","","5792","0","","<div class = dd-stim><div class = amtbox style = ""color:white"">28€</div><br><br><div class = delbox style = ""color:white"">132 jours</div></div>","89,71","4000","","20","28","132","smaller_sooner","",""
"922","71","poldrack-single-stim","107","658154","0.0-107.0","pilot-39_ses-02_1","","4568","0","","<div class = dd-stim><div class = amtbox style = ""color:white"">28€</div><br><br><div class = delbox style = ""color:white"">59 jours</div></div>","89,71","4000","","20","28","59","smaller_sooner","",""
"931","71","poldrack-single-stim","108","663293","0.0-108.0","pilot-39_ses-02_1","","5112","0","","<div class = dd-stim><div class = amtbox style = ""color:white"">28€</div><br><br><div class = delbox style = ""color:white"">163 jours</div></div>","89,71","4000","","20","28","163","smaller_sooner","",""
"1297","71","poldrack-single-stim","109","667812","0.0-109.0","pilot-39_ses-02_1","","4500","0","","<div class = dd-stim><div class = amtbox style = ""color:white"">32€</div><br><br><div class = delbox style = ""color:white"">74 jours</div></div>","89,71","4000","","20","32","74","smaller_sooner","",""
"1592","89","poldrack-single-stim","110","672668","0.0-110.0","pilot-39_ses-02_1","","4840","0","","<div class = dd-stim><div class = amtbox style = ""color:white"">57€</div><br><br><div class = delbox style = ""color:white"">89 jours</div></div>","89,71","4000","","20","57","89","larger_later","",""
"1196","89","poldrack-single-stim","111","677265","0.0-111.0","pilot-39_ses-02_1","","4568","0","","<div class = dd-stim><div class = amtbox style = ""color:white"">70€</div><br><br><div class = delbox style = ""color:white"">108 jours</div></div>","89,71","4000","","20","70","108","larger_later","",""
"1018","89","poldrack-single-stim","112","682670","0.0-112.0","pilot-39_ses-02_1","","5384","0","","<div class = dd-stim><div class = amtbox style = ""color:white"">72€</div><br><br><div class = delbox style = ""color:white"">95 jours</div></div>","89,71","4000","","20","72","95","larger_later","",""
"955","71","poldrack-single-stim","113","687734","0.0-113.0","pilot-39_ses-02_1","","5044","0","","<div class = dd-stim><div class = amtbox style = ""color:white"">30€</div><br><br><div class = delbox style = ""color:white"">36 jours</div></div>","89,71","4000","","20","30","36","smaller_sooner","",""
"1774","71","poldrack-single-stim","114","692459","0.0-114.0","pilot-39_ses-02_1","","4704","0","","<div class = dd-stim><div class = amtbox style = ""color:white"">41€</div><br><br><div class = delbox style = ""color:white"">129 jours</div></div>","89,71","4000","","20","41","129","smaller_sooner","",""
"1317","89","poldrack-single-stim","115","697383","0.0-115.0","pilot-39_ses-02_1","","4908","0","","<div class = dd-stim><div class = amtbox style = ""color:white"">78€</div><br><br><div class = delbox style = ""color:white"">129 jours</div></div>","89,71","4000","","20","78","129","larger_later","",""
"1862","89","poldrack-single-stim","116","702284","0.0-116.0","pilot-39_ses-02_1","","4908","0","","<div class = dd-stim><div class = amtbox style = ""color:white"">71€</div><br><br><div class = delbox style = ""color:white"">88 jours</div></div>","89,71","4000","","20","71","88","larger_later","",""
"2093","71","poldrack-single-stim","117","707147","0.0-117.0","pilot-39_ses-02_1","","4840","0","","<div class = dd-stim><div class = amtbox style = ""color:white"">65€</div><br><br><div class = delbox style = ""color:white"">159 jours</div></div>","89,71","4000","","20","65","159","smaller_sooner","",""
"1945","71","poldrack-single-stim","118","712273","0.0-118.0","pilot-39_ses-02_1","","5112","0","","<div class = dd-stim><div class = amtbox style = ""color:white"">24€</div><br><br><div class = delbox style = ""color:white"">125 jours</div></div>","89,71","4000","","20","24","125","smaller_sooner","",""
"1420","71","poldrack-single-stim","119","717384","0.0-119.0","pilot-39_ses-02_1","","5112","0","","<div class = dd-stim><div class = amtbox style = ""color:white"">58€</div><br><br><div class = delbox style = ""color:white"">36 jours</div></div>","89,71","4000","","20","58","36","smaller_sooner","",""
"1417","89","poldrack-single-stim","120","722096","0.0-120.0","pilot-39_ses-02_1","","4704","0","","<div class = dd-stim><div class = amtbox style = ""color:white"">63€</div><br><br><div class = delbox style = ""color:white"">37 jours</div></div>","89,71","4000","","20","63","37","larger_later","",""
"1259","89","poldrack-single-stim","121","726958","0.0-121.0","pilot-39_ses-02_1","","4840","0","","<div class = dd-stim><div class = amtbox style = ""color:white"">75€</div><br><br><div class = delbox style = ""color:white"">41 jours</div></div>","89,71","4000","","20","75","41","larger_later","",""
"2442","71","poldrack-single-stim","122","731787","0.0-122.0","pilot-39_ses-02_1","","4840","0","","<div class = dd-stim><div class = amtbox style = ""color:white"">45€</div><br><br><div class = delbox style = ""color:white"">72 jours</div></div>","89,71","4000","","20","45","72","smaller_sooner","",""
"2088","71","poldrack-single-stim","123","738686","0.0-123.0","pilot-39_ses-02_1","","6880","0","","<div class = dd-stim><div class = amtbox style = ""color:white"">25€</div><br><br><div class = delbox style = ""color:white"">74 jours</div></div>","89,71","4000","","20","25","74","smaller_sooner","",""
"1409","71","poldrack-single-stim","124","743272","0.0-124.0","pilot-39_ses-02_1","","4568","0","","<div class = dd-stim><div class = amtbox style = ""color:white"">65€</div><br><br><div class = delbox style = ""color:white"">137 jours</div></div>","89,71","4000","","20","65","137","smaller_sooner","",""
"1228","71","poldrack-single-stim","125","748061","0.0-125.0","pilot-39_ses-02_1","","4772","0","","<div class = dd-stim><div class = amtbox style = ""color:white"">49€</div><br><br><div class = delbox style = ""color:white"">140 jours</div></div>","89,71","4000","","20","49","140","smaller_sooner","",""
"1501","89","poldrack-single-stim","126","755106","0.0-126.0","pilot-39_ses-02_1","","7016","0","","<div class = dd-stim><div class = amtbox style = ""color:white"">67€</div><br><br><div class = delbox style = ""color:white"">103 jours</div></div>","89,71","4000","","20","67","103","larger_later","",""
"1144","71","poldrack-single-stim","127","759823","0.0-127.0","pilot-39_ses-02_1","","4704","0","","<div class = dd-stim><div class = amtbox style = ""color:white"">69€</div><br><br><div class = delbox style = ""color:white"">172 jours</div></div>","89,71","4000","","20","69","172","smaller_sooner","",""
"1319","89","poldrack-single-stim","128","765023","0.0-128.0","pilot-39_ses-02_1","","5180","0","","<div class = dd-stim><div class = amtbox style = ""color:white"">66€</div><br><br><div class = delbox style = ""color:white"">71 jours</div></div>","89,71","4000","","20","66","71","larger_later","",""
"1115","71","poldrack-single-stim","129","770084","0.0-129.0","pilot-39_ses-02_1","","5044","0","","<div class = dd-stim><div class = amtbox style = ""color:white"">71€</div><br><br><div class = delbox style = ""color:white"">176 jours</div></div>","89,71","4000","","20","71","176","smaller_sooner","",""
"15533","32","poldrack-single-stim","130","785619","0.0-130.0","pilot-39_ses-02_1","","15533","0","end","<div class = centerbox><div class = center-text><i>Fin</i></div></div>","32","15533","","","","","","discount_fixed","[object Object]"
"584","13","text","131","786203","0.0-131.0","pilot-39_ses-02_1","","","","","","","","","","","","","",""
