"rt","key_press","trial_type","trial_index","time_elapsed","internal_node_id","subject","text","block_duration","timing_post_trial","trial_id","responses","stimulus","possible_responses","stim_duration","correct","correct_response","feedback_duration","exp_stage","trial_num","SS_stimulus","SS_delay","SS_trial_type","SS_duration","condition","stop_response","exp_id"
"96269","13","text","0","96270","0.0-0.0","pilot-39_ses-02_1","","","","","","","","","","","","","","","","","","","",""
"2472","89","poldrack-text","1","99752","0.0-1.0","pilot-39_ses-02_1","<div class = centerbox><div style = 'font-size: 50px' class = center-text>Veuillez appuyer avec votre index</p></div>","2472","500","fmri_response_test","","","","","","","","","","","","","","","",""
"770","71","poldrack-text","2","101033","0.0-2.0","pilot-39_ses-02_1","<div class = centerbox><div style = 'font-size: 50px' class = center-text>Veuillez appuyer avec votre majeur</p></div>","770","500","fmri_response_test","","","","","","","","","","","","","","","",""
"650517","","survey-text","3","752077","0.0-3.0","pilot-39_ses-02_1","","","","task_setup","{""Q0"":""250""}","","","","","","","","","","","","","","",""
"41587","32","poldrack-single-stim","4","794705","0.0-4.0","pilot-39_ses-02_1","","41587","0","instructions","","<div class = instructbox><p class = instruct-text><font size=""+2"">Une seule cle est correcte pour chaque forme. <strong>Ne repondez pas si vous voyez l'etoile rouge si votre response allait etre votre index!</strong> Les cles correctes son les suivantes:<ul list-text><li><div class = prompt_container><img class = prompt_stim src = /static/experiments/motor_selective_stop_signal/images/circle.png></img>index</div></li></li><li><div class = prompt_container><img class = prompt_stim src = /static/experiments/motor_selective_stop_signal/images/Lshape.png></img>index</div></li> </li><li><div class = prompt_container><img class = prompt_stim src = /static/experiments/motor_selective_stop_signal/images/rhombus.png></img>majeur</div></li> </li><li><div class = prompt_container><img class = prompt_stim src = /static/experiments/motor_selective_stop_signal/images/triangle.png></img>majeur</div></li></ul></font></div>","32","41587","","","","","","","","","","","",""
"1035","71","poldrack-categorize","5","797085","0.0-5.0-0.0-0.0","pilot-39_ses-02_1","","1850","250","stim","","<div class = coverbox></div><div class = shapebox><img class = stim src = /static/experiments/motor_selective_stop_signal/images/triangle.png></img></div>","89,71","850","true","71","500","practice","0","","","","","","",""
"889","89","poldrack-categorize","6","799744","0.0-5.0-0.0-1.0","pilot-39_ses-02_1","","1850","250","stim","","<div class = coverbox></div><div class = shapebox><img class = stim src = /static/experiments/motor_selective_stop_signal/images/circle.png></img></div>","89,71","850","true","89","500","practice","1","","","","","","",""
"611","71","poldrack-categorize","7","802391","0.0-5.0-0.0-2.0","pilot-39_ses-02_1","","1850","250","stim","","<div class = coverbox></div><div class = shapebox><img class = stim src = /static/experiments/motor_selective_stop_signal/images/rhombus.png></img></div>","89,71","850","true","71","500","practice","2","","","","","","",""
"476","89","poldrack-categorize","8","805062","0.0-5.0-0.0-3.0","pilot-39_ses-02_1","","1850","250","stim","","<div class = coverbox></div><div class = shapebox><img class = stim src = /static/experiments/motor_selective_stop_signal/images/Lshape.png></img></div>","89,71","850","true","89","500","practice","3","","","","","","",""
"568","71","poldrack-categorize","9","807728","0.0-5.0-0.0-4.0","pilot-39_ses-02_1","","1850","250","stim","","<div class = coverbox></div><div class = shapebox><img class = stim src = /static/experiments/motor_selective_stop_signal/images/triangle.png></img></div>","89,71","850","true","71","500","practice","4","","","","","","",""
"563","89","poldrack-categorize","10","810397","0.0-5.0-0.0-5.0","pilot-39_ses-02_1","","1850","250","stim","","<div class = coverbox></div><div class = shapebox><img class = stim src = /static/experiments/motor_selective_stop_signal/images/circle.png></img></div>","89,71","850","true","89","500","practice","5","","","","","","",""
"880","89","poldrack-categorize","11","813059","0.0-5.0-0.0-6.0","pilot-39_ses-02_1","","1850","250","stim","","<div class = coverbox></div><div class = shapebox><img class = stim src = /static/experiments/motor_selective_stop_signal/images/Lshape.png></img></div>","89,71","850","true","89","500","practice","6","","","","","","",""
"688","71","poldrack-categorize","12","815702","0.0-5.0-0.0-7.0","pilot-39_ses-02_1","","1850","250","stim","","<div class = coverbox></div><div class = shapebox><img class = stim src = /static/experiments/motor_selective_stop_signal/images/rhombus.png></img></div>","89,71","850","true","71","500","practice","7","","","","","","",""
"633","89","poldrack-categorize","13","818349","0.0-5.0-0.0-8.0","pilot-39_ses-02_1","","1850","250","stim","","<div class = coverbox></div><div class = shapebox><img class = stim src = /static/experiments/motor_selective_stop_signal/images/Lshape.png></img></div>","89,71","850","true","89","500","practice","8","","","","","","",""
"586","89","poldrack-categorize","14","821001","0.0-5.0-0.0-9.0","pilot-39_ses-02_1","","1850","250","stim","","<div class = coverbox></div><div class = shapebox><img class = stim src = /static/experiments/motor_selective_stop_signal/images/circle.png></img></div>","89,71","850","true","89","500","practice","9","","","","","","",""
"624","71","poldrack-categorize","15","823657","0.0-5.0-0.0-10.0","pilot-39_ses-02_1","","1850","250","stim","","<div class = coverbox></div><div class = shapebox><img class = stim src = /static/experiments/motor_selective_stop_signal/images/rhombus.png></img></div>","89,71","850","true","71","500","practice","10","","","","","","",""
"758","71","poldrack-categorize","16","826321","0.0-5.0-0.0-11.0","pilot-39_ses-02_1","","1850","250","stim","","<div class = coverbox></div><div class = shapebox><img class = stim src = /static/experiments/motor_selective_stop_signal/images/triangle.png></img></div>","89,71","850","true","71","500","practice","11","","","","","","",""
"106657","32","poldrack-text","17","933247","0.0-6.0","pilot-39_ses-02_1","<div class = centerbox><div  class = center-text>Scanner Setup</div></div>","106657","0","fmri_scanner_wait","","","","","","","","","","","","","","","",""
"94054","84","poldrack-text","18","1027303","0.0-7.0","pilot-39_ses-02_1","<div class = centerbox><div style='color:red'; class = center-text>+</div></div>","94054","0","fmri_trigger_wait","","","","","","","","","","","","","","","",""
"-1","-1","poldrack-single-stim","19","1028318","0.0-8.0","pilot-39_ses-02_1","","1000","0","fmri_buffer","","","none","1000","","","","","","","","","","","",""
"-1","-1","poldrack-single-stim","20","1029825","0.0-9.0","pilot-39_ses-02_1","","1500","500","test_start_block","","<div class = centerbox><div class = center-text>Preparez-vous!</p></div>","none","1500","","","","","","","","","","","",""
"1111","71","stop-signal","21","1032607","0.0-10.0","pilot-39_ses-02_1","","2250","0","stim","","<div class = coverbox></div><div class = shapebox><img class = stim src = /static/experiments/motor_selective_stop_signal/images/rhombus.png></img></div>","89,71","850","","71","","test","0","<div class = coverbox></div><div class = stopbox><div class = centered-shape id = stop-signal></div><div class = centered-shape id = stop-signal-inner></div></div>","250","go","500","go","89",""
"666","89","stop-signal","22","1034852","0.0-11.0","pilot-39_ses-02_1","","2250","0","stim","","<div class = coverbox></div><div class = shapebox><img class = stim src = /static/experiments/motor_selective_stop_signal/images/circle.png></img></div>","89,71","850","","89","","test","1","<div class = coverbox></div><div class = stopbox><div class = centered-shape id = stop-signal></div><div class = centered-shape id = stop-signal-inner></div></div>","250","go","500","go","89",""
"607","71","stop-signal","23","1037221","0.0-12.0","pilot-39_ses-02_1","","2350","0","stim","","<div class = coverbox></div><div class = shapebox><img class = stim src = /static/experiments/motor_selective_stop_signal/images/rhombus.png></img></div>","89,71","850","","71","","test","2","<div class = coverbox></div><div class = stopbox><div class = centered-shape id = stop-signal></div><div class = centered-shape id = stop-signal-inner></div></div>","250","stop","500","ignore","89",""
"-1","-1","stop-signal","24","1039782","0.0-13.0","pilot-39_ses-02_1","","2550","0","stim","","<div class = coverbox></div><div class = shapebox><img class = stim src = /static/experiments/motor_selective_stop_signal/images/circle.png></img></div>","89,71","850","","89","","test","3","<div class = coverbox></div><div class = stopbox><div class = centered-shape id = stop-signal></div><div class = centered-shape id = stop-signal-inner></div></div>","250","stop","500","stop","89",""
"719","71","stop-signal","25","1042755","0.0-14.0","pilot-39_ses-02_1","","2950","0","stim","","<div class = coverbox></div><div class = shapebox><img class = stim src = /static/experiments/motor_selective_stop_signal/images/triangle.png></img></div>","89,71","850","","71","","test","4","<div class = coverbox></div><div class = stopbox><div class = centered-shape id = stop-signal></div><div class = centered-shape id = stop-signal-inner></div></div>","300","go","500","go","89",""
"642","89","stop-signal","26","1045026","0.0-15.0","pilot-39_ses-02_1","","2250","0","stim","","<div class = coverbox></div><div class = shapebox><img class = stim src = /static/experiments/motor_selective_stop_signal/images/Lshape.png></img></div>","89,71","850","","89","","test","5","<div class = coverbox></div><div class = stopbox><div class = centered-shape id = stop-signal></div><div class = centered-shape id = stop-signal-inner></div></div>","300","stop","500","stop","89",""
"940","89","stop-signal","27","1047392","0.0-16.0","pilot-39_ses-02_1","","2350","0","stim","","<div class = coverbox></div><div class = shapebox><img class = stim src = /static/experiments/motor_selective_stop_signal/images/Lshape.png></img></div>","89,71","850","","89","","test","6","<div class = coverbox></div><div class = stopbox><div class = centered-shape id = stop-signal></div><div class = centered-shape id = stop-signal-inner></div></div>","250","go","500","go","89",""
"736","71","stop-signal","28","1049960","0.0-17.0","pilot-39_ses-02_1","","2550","0","stim","","<div class = coverbox></div><div class = shapebox><img class = stim src = /static/experiments/motor_selective_stop_signal/images/triangle.png></img></div>","89,71","850","","71","","test","7","<div class = coverbox></div><div class = stopbox><div class = centered-shape id = stop-signal></div><div class = centered-shape id = stop-signal-inner></div></div>","250","go","500","go","89",""
"472","71","stop-signal","29","1052230","0.0-18.0","pilot-39_ses-02_1","","2250","0","stim","","<div class = coverbox></div><div class = shapebox><img class = stim src = /static/experiments/motor_selective_stop_signal/images/rhombus.png></img></div>","89,71","850","","71","","test","8","<div class = coverbox></div><div class = stopbox><div class = centered-shape id = stop-signal></div><div class = centered-shape id = stop-signal-inner></div></div>","250","stop","500","ignore","89",""
"768","71","stop-signal","30","1054592","0.0-19.0","pilot-39_ses-02_1","","2350","0","stim","","<div class = coverbox></div><div class = shapebox><img class = stim src = /static/experiments/motor_selective_stop_signal/images/rhombus.png></img></div>","89,71","850","","71","","test","9","<div class = coverbox></div><div class = stopbox><div class = centered-shape id = stop-signal></div><div class = centered-shape id = stop-signal-inner></div></div>","250","stop","500","ignore","89",""
"1365","71","stop-signal","31","1057178","0.0-20.0","pilot-39_ses-02_1","","2550","0","stim","","<div class = coverbox></div><div class = shapebox><img class = stim src = /static/experiments/motor_selective_stop_signal/images/triangle.png></img></div>","89,71","850","","71","","test","10","<div class = coverbox></div><div class = stopbox><div class = centered-shape id = stop-signal></div><div class = centered-shape id = stop-signal-inner></div></div>","250","stop","500","ignore","89",""
"954","71","stop-signal","32","1059642","0.0-21.0","pilot-39_ses-02_1","","2450","0","stim","","<div class = coverbox></div><div class = shapebox><img class = stim src = /static/experiments/motor_selective_stop_signal/images/rhombus.png></img></div>","89,71","850","","71","","test","11","<div class = coverbox></div><div class = stopbox><div class = centered-shape id = stop-signal></div><div class = centered-shape id = stop-signal-inner></div></div>","250","stop","500","ignore","89",""
"616","89","stop-signal","33","1062014","0.0-22.0","pilot-39_ses-02_1","","2350","0","stim","","<div class = coverbox></div><div class = shapebox><img class = stim src = /static/experiments/motor_selective_stop_signal/images/circle.png></img></div>","89,71","850","","89","","test","12","<div class = coverbox></div><div class = stopbox><div class = centered-shape id = stop-signal></div><div class = centered-shape id = stop-signal-inner></div></div>","250","go","500","go","89",""
"752","71","stop-signal","34","1064675","0.0-23.0","pilot-39_ses-02_1","","2650","0","stim","","<div class = coverbox></div><div class = shapebox><img class = stim src = /static/experiments/motor_selective_stop_signal/images/triangle.png></img></div>","89,71","850","","71","","test","13","<div class = coverbox></div><div class = stopbox><div class = centered-shape id = stop-signal></div><div class = centered-shape id = stop-signal-inner></div></div>","250","go","500","go","89",""
"949","89","stop-signal","35","1067250","0.0-24.0","pilot-39_ses-02_1","","2550","0","stim","","<div class = coverbox></div><div class = shapebox><img class = stim src = /static/experiments/motor_selective_stop_signal/images/Lshape.png></img></div>","89,71","850","","89","","test","14","<div class = coverbox></div><div class = stopbox><div class = centered-shape id = stop-signal></div><div class = centered-shape id = stop-signal-inner></div></div>","250","go","500","go","89",""
"-1","-1","stop-signal","36","1070015","0.0-25.0","pilot-39_ses-02_1","","2750","0","stim","","<div class = coverbox></div><div class = shapebox><img class = stim src = /static/experiments/motor_selective_stop_signal/images/circle.png></img></div>","89,71","850","","89","","test","15","<div class = coverbox></div><div class = stopbox><div class = centered-shape id = stop-signal></div><div class = centered-shape id = stop-signal-inner></div></div>","250","stop","500","stop","89",""
"-1","-1","stop-signal","37","1072583","0.0-26.0","pilot-39_ses-02_1","","2550","0","stim","","<div class = coverbox></div><div class = shapebox><img class = stim src = /static/experiments/motor_selective_stop_signal/images/circle.png></img></div>","89,71","850","","89","","test","16","<div class = coverbox></div><div class = stopbox><div class = centered-shape id = stop-signal></div><div class = centered-shape id = stop-signal-inner></div></div>","300","stop","500","stop","89",""
"1133","71","stop-signal","38","1075053","0.0-27.0","pilot-39_ses-02_1","","2450","0","stim","","<div class = coverbox></div><div class = shapebox><img class = stim src = /static/experiments/motor_selective_stop_signal/images/rhombus.png></img></div>","89,71","850","","71","","test","17","<div class = coverbox></div><div class = stopbox><div class = centered-shape id = stop-signal></div><div class = centered-shape id = stop-signal-inner></div></div>","350","stop","500","ignore","89",""
"793","89","stop-signal","39","1077834","0.0-28.0","pilot-39_ses-02_1","","2750","0","stim","","<div class = coverbox></div><div class = shapebox><img class = stim src = /static/experiments/motor_selective_stop_signal/images/circle.png></img></div>","89,71","850","","89","","test","18","<div class = coverbox></div><div class = stopbox><div class = centered-shape id = stop-signal></div><div class = centered-shape id = stop-signal-inner></div></div>","350","go","500","go","89",""
"916","89","stop-signal","40","1080391","0.0-29.0","pilot-39_ses-02_1","","2550","0","stim","","<div class = coverbox></div><div class = shapebox><img class = stim src = /static/experiments/motor_selective_stop_signal/images/circle.png></img></div>","89,71","850","","89","","test","19","<div class = coverbox></div><div class = stopbox><div class = centered-shape id = stop-signal></div><div class = centered-shape id = stop-signal-inner></div></div>","350","go","500","go","89",""
"-1","-1","stop-signal","41","1082762","0.0-30.0","pilot-39_ses-02_1","","2350","0","stim","","<div class = coverbox></div><div class = shapebox><img class = stim src = /static/experiments/motor_selective_stop_signal/images/Lshape.png></img></div>","89,71","850","","89","","test","20","<div class = coverbox></div><div class = stopbox><div class = centered-shape id = stop-signal></div><div class = centered-shape id = stop-signal-inner></div></div>","350","stop","500","stop","89",""
"1354","71","stop-signal","42","1085018","0.0-31.0","pilot-39_ses-02_1","","2250","0","stim","","<div class = coverbox></div><div class = shapebox><img class = stim src = /static/experiments/motor_selective_stop_signal/images/triangle.png></img></div>","89,71","850","","71","","test","21","<div class = coverbox></div><div class = stopbox><div class = centered-shape id = stop-signal></div><div class = centered-shape id = stop-signal-inner></div></div>","400","go","500","go","89",""
"986","71","stop-signal","43","1087687","0.0-32.0","pilot-39_ses-02_1","","2650","0","stim","","<div class = coverbox></div><div class = shapebox><img class = stim src = /static/experiments/motor_selective_stop_signal/images/rhombus.png></img></div>","89,71","850","","71","","test","22","<div class = coverbox></div><div class = stopbox><div class = centered-shape id = stop-signal></div><div class = centered-shape id = stop-signal-inner></div></div>","400","go","500","go","89",""
"-1","-1","stop-signal","44","1089960","0.0-33.0","pilot-39_ses-02_1","","2250","0","stim","","<div class = coverbox></div><div class = shapebox><img class = stim src = /static/experiments/motor_selective_stop_signal/images/Lshape.png></img></div>","89,71","850","","89","","test","23","<div class = coverbox></div><div class = stopbox><div class = centered-shape id = stop-signal></div><div class = centered-shape id = stop-signal-inner></div></div>","400","stop","500","stop","89",""
"1042","89","stop-signal","45","1092332","0.0-34.0","pilot-39_ses-02_1","","2350","0","stim","","<div class = coverbox></div><div class = shapebox><img class = stim src = /static/experiments/motor_selective_stop_signal/images/circle.png></img></div>","89,71","850","","89","","test","24","<div class = coverbox></div><div class = stopbox><div class = centered-shape id = stop-signal></div><div class = centered-shape id = stop-signal-inner></div></div>","450","go","500","go","89",""
"1053","71","stop-signal","46","1094596","0.0-35.0","pilot-39_ses-02_1","","2250","0","stim","","<div class = coverbox></div><div class = shapebox><img class = stim src = /static/experiments/motor_selective_stop_signal/images/rhombus.png></img></div>","89,71","850","","71","","test","25","<div class = coverbox></div><div class = stopbox><div class = centered-shape id = stop-signal></div><div class = centered-shape id = stop-signal-inner></div></div>","450","go","500","go","89",""
"1153","89","stop-signal","47","1096972","0.0-36.0","pilot-39_ses-02_1","","2350","0","stim","","<div class = coverbox></div><div class = shapebox><img class = stim src = /static/experiments/motor_selective_stop_signal/images/circle.png></img></div>","89,71","850","","89","","test","26","<div class = coverbox></div><div class = stopbox><div class = centered-shape id = stop-signal></div><div class = centered-shape id = stop-signal-inner></div></div>","450","go","500","go","89",""
"807","71","stop-signal","48","1099314","0.0-37.0","pilot-39_ses-02_1","","2350","0","stim","","<div class = coverbox></div><div class = shapebox><img class = stim src = /static/experiments/motor_selective_stop_signal/images/rhombus.png></img></div>","89,71","850","","71","","test","27","<div class = coverbox></div><div class = stopbox><div class = centered-shape id = stop-signal></div><div class = centered-shape id = stop-signal-inner></div></div>","450","go","500","go","89",""
"738","71","stop-signal","49","1101596","0.0-38.0","pilot-39_ses-02_1","","2250","0","stim","","<div class = coverbox></div><div class = shapebox><img class = stim src = /static/experiments/motor_selective_stop_signal/images/triangle.png></img></div>","89,71","850","","71","","test","28","<div class = coverbox></div><div class = stopbox><div class = centered-shape id = stop-signal></div><div class = centered-shape id = stop-signal-inner></div></div>","450","go","500","go","89",""
"674","71","stop-signal","50","1104453","0.0-39.0","pilot-39_ses-02_1","","2850","0","stim","","<div class = coverbox></div><div class = shapebox><img class = stim src = /static/experiments/motor_selective_stop_signal/images/rhombus.png></img></div>","89,71","850","","71","","test","29","<div class = coverbox></div><div class = stopbox><div class = centered-shape id = stop-signal></div><div class = centered-shape id = stop-signal-inner></div></div>","450","stop","500","ignore","89",""
"1210","71","stop-signal","51","1106807","0.0-40.0","pilot-39_ses-02_1","","2350","0","stim","","<div class = coverbox></div><div class = shapebox><img class = stim src = /static/experiments/motor_selective_stop_signal/images/rhombus.png></img></div>","89,71","850","","71","","test","30","<div class = coverbox></div><div class = stopbox><div class = centered-shape id = stop-signal></div><div class = centered-shape id = stop-signal-inner></div></div>","450","go","500","go","89",""
"1293","89","stop-signal","52","1109073","0.0-41.0","pilot-39_ses-02_1","","2250","0","stim","","<div class = coverbox></div><div class = shapebox><img class = stim src = /static/experiments/motor_selective_stop_signal/images/Lshape.png></img></div>","89,71","850","","89","","test","31","<div class = coverbox></div><div class = stopbox><div class = centered-shape id = stop-signal></div><div class = centered-shape id = stop-signal-inner></div></div>","450","go","500","go","89",""
"1263","89","stop-signal","53","1111441","0.0-42.0","pilot-39_ses-02_1","","2350","0","stim","","<div class = coverbox></div><div class = shapebox><img class = stim src = /static/experiments/motor_selective_stop_signal/images/Lshape.png></img></div>","89,71","850","","89","","test","32","<div class = coverbox></div><div class = stopbox><div class = centered-shape id = stop-signal></div><div class = centered-shape id = stop-signal-inner></div></div>","450","go","500","go","89",""
"1206","89","stop-signal","54","1113910","0.0-43.0","pilot-39_ses-02_1","","2450","0","stim","","<div class = coverbox></div><div class = shapebox><img class = stim src = /static/experiments/motor_selective_stop_signal/images/Lshape.png></img></div>","89,71","850","","89","","test","33","<div class = coverbox></div><div class = stopbox><div class = centered-shape id = stop-signal></div><div class = centered-shape id = stop-signal-inner></div></div>","450","go","500","go","89",""
"-1","-1","stop-signal","55","1116176","0.0-44.0","pilot-39_ses-02_1","","2250","0","stim","","<div class = coverbox></div><div class = shapebox><img class = stim src = /static/experiments/motor_selective_stop_signal/images/Lshape.png></img></div>","89,71","850","","89","","test","34","<div class = coverbox></div><div class = stopbox><div class = centered-shape id = stop-signal></div><div class = centered-shape id = stop-signal-inner></div></div>","450","stop","500","stop","89",""
"763","71","stop-signal","56","1118423","0.0-45.0","pilot-39_ses-02_1","","2250","0","stim","","<div class = coverbox></div><div class = shapebox><img class = stim src = /static/experiments/motor_selective_stop_signal/images/triangle.png></img></div>","89,71","850","","71","","test","35","<div class = coverbox></div><div class = stopbox><div class = centered-shape id = stop-signal></div><div class = centered-shape id = stop-signal-inner></div></div>","500","stop","500","ignore","89",""
"770","71","stop-signal","57","1121197","0.0-46.0","pilot-39_ses-02_1","","2750","0","stim","","<div class = coverbox></div><div class = shapebox><img class = stim src = /static/experiments/motor_selective_stop_signal/images/rhombus.png></img></div>","89,71","850","","71","","test","36","<div class = coverbox></div><div class = stopbox><div class = centered-shape id = stop-signal></div><div class = centered-shape id = stop-signal-inner></div></div>","500","go","500","go","89",""
"934","71","stop-signal","58","1123580","0.0-47.0","pilot-39_ses-02_1","","2350","0","stim","","<div class = coverbox></div><div class = shapebox><img class = stim src = /static/experiments/motor_selective_stop_signal/images/rhombus.png></img></div>","89,71","850","","71","","test","37","<div class = coverbox></div><div class = stopbox><div class = centered-shape id = stop-signal></div><div class = centered-shape id = stop-signal-inner></div></div>","500","stop","500","ignore","89",""
"1553","71","stop-signal","59","1126347","0.0-48.0","pilot-39_ses-02_1","","2750","0","stim","","<div class = coverbox></div><div class = shapebox><img class = stim src = /static/experiments/motor_selective_stop_signal/images/triangle.png></img></div>","89,71","850","","71","","test","38","<div class = coverbox></div><div class = stopbox><div class = centered-shape id = stop-signal></div><div class = centered-shape id = stop-signal-inner></div></div>","500","go","500","go","89",""
"1192","89","stop-signal","60","1128809","0.0-49.0","pilot-39_ses-02_1","","2450","0","stim","","<div class = coverbox></div><div class = shapebox><img class = stim src = /static/experiments/motor_selective_stop_signal/images/Lshape.png></img></div>","89,71","850","","89","","test","39","<div class = coverbox></div><div class = stopbox><div class = centered-shape id = stop-signal></div><div class = centered-shape id = stop-signal-inner></div></div>","500","go","500","go","89",""
"750","71","stop-signal","61","1131091","0.0-50.0","pilot-39_ses-02_1","","2250","0","stim","","<div class = coverbox></div><div class = shapebox><img class = stim src = /static/experiments/motor_selective_stop_signal/images/triangle.png></img></div>","89,71","850","","71","","test","40","<div class = coverbox></div><div class = stopbox><div class = centered-shape id = stop-signal></div><div class = centered-shape id = stop-signal-inner></div></div>","500","go","500","go","89",""
"769","89","stop-signal","62","1133452","0.0-51.0","pilot-39_ses-02_1","","2350","0","stim","","<div class = coverbox></div><div class = shapebox><img class = stim src = /static/experiments/motor_selective_stop_signal/images/Lshape.png></img></div>","89,71","850","","89","","test","41","<div class = coverbox></div><div class = stopbox><div class = centered-shape id = stop-signal></div><div class = centered-shape id = stop-signal-inner></div></div>","500","stop","500","stop","89",""
"1219","89","stop-signal","63","1136135","0.0-52.0","pilot-39_ses-02_1","","2650","0","stim","","<div class = coverbox></div><div class = shapebox><img class = stim src = /static/experiments/motor_selective_stop_signal/images/Lshape.png></img></div>","89,71","850","","89","","test","42","<div class = coverbox></div><div class = stopbox><div class = centered-shape id = stop-signal></div><div class = centered-shape id = stop-signal-inner></div></div>","450","go","500","go","89",""
"-1","-1","stop-signal","64","1138609","0.0-53.0","pilot-39_ses-02_1","","2450","0","stim","","<div class = coverbox></div><div class = shapebox><img class = stim src = /static/experiments/motor_selective_stop_signal/images/circle.png></img></div>","89,71","850","","89","","test","43","<div class = coverbox></div><div class = stopbox><div class = centered-shape id = stop-signal></div><div class = centered-shape id = stop-signal-inner></div></div>","450","stop","500","stop","89",""
"1002","71","stop-signal","65","1140867","0.0-54.0","pilot-39_ses-02_1","","2250","0","stim","","<div class = coverbox></div><div class = shapebox><img class = stim src = /static/experiments/motor_selective_stop_signal/images/triangle.png></img></div>","89,71","850","","71","","test","44","<div class = coverbox></div><div class = stopbox><div class = centered-shape id = stop-signal></div><div class = centered-shape id = stop-signal-inner></div></div>","500","go","500","go","89",""
"1086","71","stop-signal","66","1143239","0.0-55.0","pilot-39_ses-02_1","","2350","0","stim","","<div class = coverbox></div><div class = shapebox><img class = stim src = /static/experiments/motor_selective_stop_signal/images/triangle.png></img></div>","89,71","850","","71","","test","45","<div class = coverbox></div><div class = stopbox><div class = centered-shape id = stop-signal></div><div class = centered-shape id = stop-signal-inner></div></div>","500","stop","500","ignore","89",""
"766","71","stop-signal","67","1146213","0.0-56.0","pilot-39_ses-02_1","","2950","0","stim","","<div class = coverbox></div><div class = shapebox><img class = stim src = /static/experiments/motor_selective_stop_signal/images/rhombus.png></img></div>","89,71","850","","71","","test","46","<div class = coverbox></div><div class = stopbox><div class = centered-shape id = stop-signal></div><div class = centered-shape id = stop-signal-inner></div></div>","500","stop","500","ignore","89",""
"1181","89","stop-signal","68","1148473","0.0-57.0","pilot-39_ses-02_1","","2250","0","stim","","<div class = coverbox></div><div class = shapebox><img class = stim src = /static/experiments/motor_selective_stop_signal/images/circle.png></img></div>","89,71","850","","89","","test","47","<div class = coverbox></div><div class = stopbox><div class = centered-shape id = stop-signal></div><div class = centered-shape id = stop-signal-inner></div></div>","500","go","500","go","89",""
"1134","71","stop-signal","69","1151439","0.0-58.0","pilot-39_ses-02_1","","2950","0","stim","","<div class = coverbox></div><div class = shapebox><img class = stim src = /static/experiments/motor_selective_stop_signal/images/triangle.png></img></div>","89,71","850","","71","","test","48","<div class = coverbox></div><div class = stopbox><div class = centered-shape id = stop-signal></div><div class = centered-shape id = stop-signal-inner></div></div>","500","go","500","go","89",""
"1216","71","stop-signal","70","1153907","0.0-59.0","pilot-39_ses-02_1","","2450","0","stim","","<div class = coverbox></div><div class = shapebox><img class = stim src = /static/experiments/motor_selective_stop_signal/images/triangle.png></img></div>","89,71","850","","71","","test","49","<div class = coverbox></div><div class = stopbox><div class = centered-shape id = stop-signal></div><div class = centered-shape id = stop-signal-inner></div></div>","500","stop","500","ignore","89",""
"-1","-1","poldrack-single-stim","71","1161422","0.0-60.0","pilot-39_ses-02_1","","7500","1000","rest_block","","<div class = centerbox><div class = center-text>+</div></div>","none","7500","","","","","","","","","","","",""
"-1","-1","poldrack-single-stim","72","1163970","0.0-61.0","pilot-39_ses-02_1","","1500","500","test_start_block","","<div class = centerbox><div class = center-text>Preparez-vous!</p></div>","none","1500","","","","","","","","","","","",""
"-1","-1","stop-signal","73","1166761","0.0-62.0","pilot-39_ses-02_1","","2250","0","stim","","<div class = coverbox></div><div class = shapebox><img class = stim src = /static/experiments/motor_selective_stop_signal/images/circle.png></img></div>","89,71","850","","89","","test","50","<div class = coverbox></div><div class = stopbox><div class = centered-shape id = stop-signal></div><div class = centered-shape id = stop-signal-inner></div></div>","500","stop","500","stop","89",""
"1143","89","stop-signal","74","1169141","0.0-63.0","pilot-39_ses-02_1","","2350","0","stim","","<div class = coverbox></div><div class = shapebox><img class = stim src = /static/experiments/motor_selective_stop_signal/images/circle.png></img></div>","89,71","850","","89","","test","51","<div class = coverbox></div><div class = stopbox><div class = centered-shape id = stop-signal></div><div class = centered-shape id = stop-signal-inner></div></div>","550","go","500","go","89",""
"1529","89","stop-signal","75","1171610","0.0-64.0","pilot-39_ses-02_1","","2450","0","stim","","<div class = coverbox></div><div class = shapebox><img class = stim src = /static/experiments/motor_selective_stop_signal/images/circle.png></img></div>","89,71","850","","89","","test","52","<div class = coverbox></div><div class = stopbox><div class = centered-shape id = stop-signal></div><div class = centered-shape id = stop-signal-inner></div></div>","550","go","500","go","89",""
"-1","-1","stop-signal","76","1173866","0.0-65.0","pilot-39_ses-02_1","","2250","0","stim","","<div class = coverbox></div><div class = shapebox><img class = stim src = /static/experiments/motor_selective_stop_signal/images/Lshape.png></img></div>","89,71","850","","89","","test","53","<div class = coverbox></div><div class = stopbox><div class = centered-shape id = stop-signal></div><div class = centered-shape id = stop-signal-inner></div></div>","550","stop","500","stop","89",""
"660","71","stop-signal","77","1176336","0.0-66.0","pilot-39_ses-02_1","","2450","0","stim","","<div class = coverbox></div><div class = shapebox><img class = stim src = /static/experiments/motor_selective_stop_signal/images/rhombus.png></img></div>","89,71","850","","71","","test","54","<div class = coverbox></div><div class = stopbox><div class = centered-shape id = stop-signal></div><div class = centered-shape id = stop-signal-inner></div></div>","600","stop","500","ignore","89",""
"1359","89","stop-signal","78","1179100","0.0-67.0","pilot-39_ses-02_1","","2750","0","stim","","<div class = coverbox></div><div class = shapebox><img class = stim src = /static/experiments/motor_selective_stop_signal/images/Lshape.png></img></div>","89,71","850","","89","","test","55","<div class = coverbox></div><div class = stopbox><div class = centered-shape id = stop-signal></div><div class = centered-shape id = stop-signal-inner></div></div>","600","go","500","go","89",""
"1245","71","stop-signal","79","1181372","0.0-68.0","pilot-39_ses-02_1","","2250","0","stim","","<div class = coverbox></div><div class = shapebox><img class = stim src = /static/experiments/motor_selective_stop_signal/images/rhombus.png></img></div>","89,71","850","","71","","test","56","<div class = coverbox></div><div class = stopbox><div class = centered-shape id = stop-signal></div><div class = centered-shape id = stop-signal-inner></div></div>","600","stop","500","ignore","89",""
"1323","71","stop-signal","80","1183730","0.0-69.0","pilot-39_ses-02_1","","2350","0","stim","","<div class = coverbox></div><div class = shapebox><img class = stim src = /static/experiments/motor_selective_stop_signal/images/triangle.png></img></div>","89,71","850","","71","","test","57","<div class = coverbox></div><div class = stopbox><div class = centered-shape id = stop-signal></div><div class = centered-shape id = stop-signal-inner></div></div>","600","go","500","go","89",""
"1389","71","stop-signal","81","1186195","0.0-70.0","pilot-39_ses-02_1","","2450","0","stim","","<div class = coverbox></div><div class = shapebox><img class = stim src = /static/experiments/motor_selective_stop_signal/images/triangle.png></img></div>","89,71","850","","71","","test","58","<div class = coverbox></div><div class = stopbox><div class = centered-shape id = stop-signal></div><div class = centered-shape id = stop-signal-inner></div></div>","600","stop","500","ignore","89",""
"1313","89","stop-signal","82","1188557","0.0-71.0","pilot-39_ses-02_1","","2350","0","stim","","<div class = coverbox></div><div class = shapebox><img class = stim src = /static/experiments/motor_selective_stop_signal/images/circle.png></img></div>","89,71","850","","89","","test","59","<div class = coverbox></div><div class = stopbox><div class = centered-shape id = stop-signal></div><div class = centered-shape id = stop-signal-inner></div></div>","600","go","500","go","89",""
"732","71","stop-signal","83","1190838","0.0-72.0","pilot-39_ses-02_1","","2250","0","stim","","<div class = coverbox></div><div class = shapebox><img class = stim src = /static/experiments/motor_selective_stop_signal/images/rhombus.png></img></div>","89,71","850","","71","","test","60","<div class = coverbox></div><div class = stopbox><div class = centered-shape id = stop-signal></div><div class = centered-shape id = stop-signal-inner></div></div>","600","stop","500","ignore","89",""
"1213","71","stop-signal","84","1193402","0.0-73.0","pilot-39_ses-02_1","","2550","0","stim","","<div class = coverbox></div><div class = shapebox><img class = stim src = /static/experiments/motor_selective_stop_signal/images/triangle.png></img></div>","89,71","850","","71","","test","61","<div class = coverbox></div><div class = stopbox><div class = centered-shape id = stop-signal></div><div class = centered-shape id = stop-signal-inner></div></div>","600","go","500","go","89",""
"1613","71","stop-signal","85","1195860","0.0-74.0","pilot-39_ses-02_1","","2450","0","stim","","<div class = coverbox></div><div class = shapebox><img class = stim src = /static/experiments/motor_selective_stop_signal/images/rhombus.png></img></div>","89,71","850","","71","","test","62","<div class = coverbox></div><div class = stopbox><div class = centered-shape id = stop-signal></div><div class = centered-shape id = stop-signal-inner></div></div>","600","go","500","go","89",""
"1230","89","stop-signal","86","1198516","0.0-75.0","pilot-39_ses-02_1","","2650","0","stim","","<div class = coverbox></div><div class = shapebox><img class = stim src = /static/experiments/motor_selective_stop_signal/images/Lshape.png></img></div>","89,71","850","","89","","test","63","<div class = coverbox></div><div class = stopbox><div class = centered-shape id = stop-signal></div><div class = centered-shape id = stop-signal-inner></div></div>","600","go","500","go","89",""
"-1","-1","stop-signal","87","1200796","0.0-76.0","pilot-39_ses-02_1","","2250","0","stim","","<div class = coverbox></div><div class = shapebox><img class = stim src = /static/experiments/motor_selective_stop_signal/images/Lshape.png></img></div>","89,71","850","","89","","test","64","<div class = coverbox></div><div class = stopbox><div class = centered-shape id = stop-signal></div><div class = centered-shape id = stop-signal-inner></div></div>","600","stop","500","stop","89",""
"774","71","stop-signal","88","1203465","0.0-77.0","pilot-39_ses-02_1","","2650","0","stim","","<div class = coverbox></div><div class = shapebox><img class = stim src = /static/experiments/motor_selective_stop_signal/images/triangle.png></img></div>","89,71","850","","71","","test","65","<div class = coverbox></div><div class = stopbox><div class = centered-shape id = stop-signal></div><div class = centered-shape id = stop-signal-inner></div></div>","650","stop","500","ignore","89",""
"2152","89","stop-signal","89","1205838","0.0-78.0","pilot-39_ses-02_1","","2350","0","stim","","<div class = coverbox></div><div class = shapebox><img class = stim src = /static/experiments/motor_selective_stop_signal/images/Lshape.png></img></div>","89,71","850","","89","","test","66","<div class = coverbox></div><div class = stopbox><div class = centered-shape id = stop-signal></div><div class = centered-shape id = stop-signal-inner></div></div>","650","go","500","go","89",""
"861","71","stop-signal","90","1208117","0.0-79.0","pilot-39_ses-02_1","","2250","0","stim","","<div class = coverbox></div><div class = shapebox><img class = stim src = /static/experiments/motor_selective_stop_signal/images/triangle.png></img></div>","89,71","850","","71","","test","67","<div class = coverbox></div><div class = stopbox><div class = centered-shape id = stop-signal></div><div class = centered-shape id = stop-signal-inner></div></div>","650","go","500","go","89",""
"1017","89","stop-signal","91","1210345","0.0-80.0","pilot-39_ses-02_1","","2250","0","stim","","<div class = coverbox></div><div class = shapebox><img class = stim src = /static/experiments/motor_selective_stop_signal/images/Lshape.png></img></div>","89,71","850","","89","","test","68","<div class = coverbox></div><div class = stopbox><div class = centered-shape id = stop-signal></div><div class = centered-shape id = stop-signal-inner></div></div>","650","go","500","go","89",""
"1237","89","stop-signal","92","1212600","0.0-81.0","pilot-39_ses-02_1","","2250","0","stim","","<div class = coverbox></div><div class = shapebox><img class = stim src = /static/experiments/motor_selective_stop_signal/images/circle.png></img></div>","89,71","850","","89","","test","69","<div class = coverbox></div><div class = stopbox><div class = centered-shape id = stop-signal></div><div class = centered-shape id = stop-signal-inner></div></div>","650","go","500","go","89",""
"934","71","stop-signal","93","1214954","0.0-82.0","pilot-39_ses-02_1","","2350","0","stim","","<div class = coverbox></div><div class = shapebox><img class = stim src = /static/experiments/motor_selective_stop_signal/images/rhombus.png></img></div>","89,71","850","","71","","test","70","<div class = coverbox></div><div class = stopbox><div class = centered-shape id = stop-signal></div><div class = centered-shape id = stop-signal-inner></div></div>","650","go","500","go","89",""
"803","71","stop-signal","94","1217520","0.0-83.0","pilot-39_ses-02_1","","2550","0","stim","","<div class = coverbox></div><div class = shapebox><img class = stim src = /static/experiments/motor_selective_stop_signal/images/rhombus.png></img></div>","89,71","850","","71","","test","71","<div class = coverbox></div><div class = stopbox><div class = centered-shape id = stop-signal></div><div class = centered-shape id = stop-signal-inner></div></div>","650","stop","500","ignore","89",""
"742","71","stop-signal","95","1219895","0.0-84.0","pilot-39_ses-02_1","","2350","0","stim","","<div class = coverbox></div><div class = shapebox><img class = stim src = /static/experiments/motor_selective_stop_signal/images/rhombus.png></img></div>","89,71","850","","71","","test","72","<div class = coverbox></div><div class = stopbox><div class = centered-shape id = stop-signal></div><div class = centered-shape id = stop-signal-inner></div></div>","650","go","500","go","89",""
"-1","-1","stop-signal","96","1222352","0.0-85.0","pilot-39_ses-02_1","","2450","0","stim","","<div class = coverbox></div><div class = shapebox><img class = stim src = /static/experiments/motor_selective_stop_signal/images/circle.png></img></div>","89,71","850","","89","","test","73","<div class = coverbox></div><div class = stopbox><div class = centered-shape id = stop-signal></div><div class = centered-shape id = stop-signal-inner></div></div>","650","stop","500","stop","89",""
"1098","89","stop-signal","97","1224817","0.0-86.0","pilot-39_ses-02_1","","2450","0","stim","","<div class = coverbox></div><div class = shapebox><img class = stim src = /static/experiments/motor_selective_stop_signal/images/circle.png></img></div>","89,71","850","","89","","test","74","<div class = coverbox></div><div class = stopbox><div class = centered-shape id = stop-signal></div><div class = centered-shape id = stop-signal-inner></div></div>","700","go","500","go","89",""
"-1","-1","stop-signal","98","1227176","0.0-87.0","pilot-39_ses-02_1","","2350","0","stim","","<div class = coverbox></div><div class = shapebox><img class = stim src = /static/experiments/motor_selective_stop_signal/images/Lshape.png></img></div>","89,71","850","","89","","test","75","<div class = coverbox></div><div class = stopbox><div class = centered-shape id = stop-signal></div><div class = centered-shape id = stop-signal-inner></div></div>","700","stop","500","stop","89",""
"1112","71","stop-signal","99","1229446","0.0-88.0","pilot-39_ses-02_1","","2250","0","stim","","<div class = coverbox></div><div class = shapebox><img class = stim src = /static/experiments/motor_selective_stop_signal/images/rhombus.png></img></div>","89,71","850","","71","","test","76","<div class = coverbox></div><div class = stopbox><div class = centered-shape id = stop-signal></div><div class = centered-shape id = stop-signal-inner></div></div>","750","stop","500","ignore","89",""
"1607","89","stop-signal","100","1232015","0.0-89.0","pilot-39_ses-02_1","","2550","0","stim","","<div class = coverbox></div><div class = shapebox><img class = stim src = /static/experiments/motor_selective_stop_signal/images/Lshape.png></img></div>","89,71","850","","89","","test","77","<div class = coverbox></div><div class = stopbox><div class = centered-shape id = stop-signal></div><div class = centered-shape id = stop-signal-inner></div></div>","750","go","500","go","89",""
"1224","89","stop-signal","101","1234560","0.0-90.0","pilot-39_ses-02_1","","2550","0","stim","","<div class = coverbox></div><div class = shapebox><img class = stim src = /static/experiments/motor_selective_stop_signal/images/Lshape.png></img></div>","89,71","850","","89","","test","78","<div class = coverbox></div><div class = stopbox><div class = centered-shape id = stop-signal></div><div class = centered-shape id = stop-signal-inner></div></div>","750","go","500","go","89",""
"933","71","stop-signal","102","1236841","0.0-91.0","pilot-39_ses-02_1","","2250","0","stim","","<div class = coverbox></div><div class = shapebox><img class = stim src = /static/experiments/motor_selective_stop_signal/images/rhombus.png></img></div>","89,71","850","","71","","test","79","<div class = coverbox></div><div class = stopbox><div class = centered-shape id = stop-signal></div><div class = centered-shape id = stop-signal-inner></div></div>","750","stop","500","ignore","89",""
"1308","71","stop-signal","103","1239080","0.0-92.0","pilot-39_ses-02_1","","2250","0","stim","","<div class = coverbox></div><div class = shapebox><img class = stim src = /static/experiments/motor_selective_stop_signal/images/rhombus.png></img></div>","89,71","850","","71","","test","80","<div class = coverbox></div><div class = stopbox><div class = centered-shape id = stop-signal></div><div class = centered-shape id = stop-signal-inner></div></div>","750","go","500","go","89",""
"1025","89","stop-signal","104","1241539","0.0-93.0","pilot-39_ses-02_1","","2450","0","stim","","<div class = coverbox></div><div class = shapebox><img class = stim src = /static/experiments/motor_selective_stop_signal/images/Lshape.png></img></div>","89,71","850","","89","","test","81","<div class = coverbox></div><div class = stopbox><div class = centered-shape id = stop-signal></div><div class = centered-shape id = stop-signal-inner></div></div>","750","stop","500","stop","89",""
"1558","89","stop-signal","105","1243907","0.0-94.0","pilot-39_ses-02_1","","2350","0","stim","","<div class = coverbox></div><div class = shapebox><img class = stim src = /static/experiments/motor_selective_stop_signal/images/circle.png></img></div>","89,71","850","","89","","test","82","<div class = coverbox></div><div class = stopbox><div class = centered-shape id = stop-signal></div><div class = centered-shape id = stop-signal-inner></div></div>","700","go","500","go","89",""
"1201","71","stop-signal","106","1246188","0.0-95.0","pilot-39_ses-02_1","","2250","0","stim","","<div class = coverbox></div><div class = shapebox><img class = stim src = /static/experiments/motor_selective_stop_signal/images/triangle.png></img></div>","89,71","850","","71","","test","83","<div class = coverbox></div><div class = stopbox><div class = centered-shape id = stop-signal></div><div class = centered-shape id = stop-signal-inner></div></div>","700","go","500","go","89",""
"1798","71","stop-signal","107","1249348","0.0-96.0","pilot-39_ses-02_1","","3150","0","stim","","<div class = coverbox></div><div class = shapebox><img class = stim src = /static/experiments/motor_selective_stop_signal/images/triangle.png></img></div>","89,71","850","","71","","test","84","<div class = coverbox></div><div class = stopbox><div class = centered-shape id = stop-signal></div><div class = centered-shape id = stop-signal-inner></div></div>","700","go","500","go","89",""
"646","89","stop-signal","108","1252026","0.0-97.0","pilot-39_ses-02_1","","2650","0","stim","","<div class = coverbox></div><div class = shapebox><img class = stim src = /static/experiments/motor_selective_stop_signal/images/Lshape.png></img></div>","89,71","850","","89","","test","85","<div class = coverbox></div><div class = stopbox><div class = centered-shape id = stop-signal></div><div class = centered-shape id = stop-signal-inner></div></div>","700","go","500","go","89",""
"1448","71","stop-signal","109","1254299","0.0-98.0","pilot-39_ses-02_1","","2250","0","stim","","<div class = coverbox></div><div class = shapebox><img class = stim src = /static/experiments/motor_selective_stop_signal/images/triangle.png></img></div>","89,71","850","","71","","test","86","<div class = coverbox></div><div class = stopbox><div class = centered-shape id = stop-signal></div><div class = centered-shape id = stop-signal-inner></div></div>","700","stop","500","ignore","89",""
"-1","-1","stop-signal","110","1256753","0.0-99.0","pilot-39_ses-02_1","","2450","0","stim","","<div class = coverbox></div><div class = shapebox><img class = stim src = /static/experiments/motor_selective_stop_signal/images/circle.png></img></div>","89,71","850","","89","","test","87","<div class = coverbox></div><div class = stopbox><div class = centered-shape id = stop-signal></div><div class = centered-shape id = stop-signal-inner></div></div>","700","stop","500","stop","89",""
"1469","71","stop-signal","111","1259619","0.0-100.0","pilot-39_ses-02_1","","2850","0","stim","","<div class = coverbox></div><div class = shapebox><img class = stim src = /static/experiments/motor_selective_stop_signal/images/rhombus.png></img></div>","89,71","850","","71","","test","88","<div class = coverbox></div><div class = stopbox><div class = centered-shape id = stop-signal></div><div class = centered-shape id = stop-signal-inner></div></div>","750","stop","500","ignore","89",""
"1137","71","stop-signal","112","1262078","0.0-101.0","pilot-39_ses-02_1","","2450","0","stim","","<div class = coverbox></div><div class = shapebox><img class = stim src = /static/experiments/motor_selective_stop_signal/images/triangle.png></img></div>","89,71","850","","71","","test","89","<div class = coverbox></div><div class = stopbox><div class = centered-shape id = stop-signal></div><div class = centered-shape id = stop-signal-inner></div></div>","750","go","500","go","89",""
"1173","89","stop-signal","113","1264358","0.0-102.0","pilot-39_ses-02_1","","2250","0","stim","","<div class = coverbox></div><div class = shapebox><img class = stim src = /static/experiments/motor_selective_stop_signal/images/circle.png></img></div>","89,71","850","","89","","test","90","<div class = coverbox></div><div class = stopbox><div class = centered-shape id = stop-signal></div><div class = centered-shape id = stop-signal-inner></div></div>","750","go","500","go","89",""
"1119","89","stop-signal","114","1266597","0.0-103.0","pilot-39_ses-02_1","","2250","0","stim","","<div class = coverbox></div><div class = shapebox><img class = stim src = /static/experiments/motor_selective_stop_signal/images/circle.png></img></div>","89,71","850","","89","","test","91","<div class = coverbox></div><div class = stopbox><div class = centered-shape id = stop-signal></div><div class = centered-shape id = stop-signal-inner></div></div>","750","go","500","go","89",""
"1327","71","stop-signal","115","1269159","0.0-104.0","pilot-39_ses-02_1","","2550","0","stim","","<div class = coverbox></div><div class = shapebox><img class = stim src = /static/experiments/motor_selective_stop_signal/images/rhombus.png></img></div>","89,71","850","","71","","test","92","<div class = coverbox></div><div class = stopbox><div class = centered-shape id = stop-signal></div><div class = centered-shape id = stop-signal-inner></div></div>","750","stop","500","ignore","89",""
"-1","-1","stop-signal","116","1271414","0.0-105.0","pilot-39_ses-02_1","","2250","0","stim","","<div class = coverbox></div><div class = shapebox><img class = stim src = /static/experiments/motor_selective_stop_signal/images/circle.png></img></div>","89,71","850","","89","","test","93","<div class = coverbox></div><div class = stopbox><div class = centered-shape id = stop-signal></div><div class = centered-shape id = stop-signal-inner></div></div>","750","stop","500","stop","89",""
"761","71","stop-signal","117","1273781","0.0-106.0","pilot-39_ses-02_1","","2350","0","stim","","<div class = coverbox></div><div class = shapebox><img class = stim src = /static/experiments/motor_selective_stop_signal/images/triangle.png></img></div>","89,71","850","","71","","test","94","<div class = coverbox></div><div class = stopbox><div class = centered-shape id = stop-signal></div><div class = centered-shape id = stop-signal-inner></div></div>","800","go","500","go","89",""
"-1","-1","stop-signal","118","1276129","0.0-107.0","pilot-39_ses-02_1","","2350","0","stim","","<div class = coverbox></div><div class = shapebox><img class = stim src = /static/experiments/motor_selective_stop_signal/images/circle.png></img></div>","89,71","850","","89","","test","95","<div class = coverbox></div><div class = stopbox><div class = centered-shape id = stop-signal></div><div class = centered-shape id = stop-signal-inner></div></div>","800","stop","500","stop","89",""
"1035","89","stop-signal","119","1278382","0.0-108.0","pilot-39_ses-02_1","","2250","0","stim","","<div class = coverbox></div><div class = shapebox><img class = stim src = /static/experiments/motor_selective_stop_signal/images/Lshape.png></img></div>","89,71","850","","89","","test","96","<div class = coverbox></div><div class = stopbox><div class = centered-shape id = stop-signal></div><div class = centered-shape id = stop-signal-inner></div></div>","850","go","500","go","89",""
"1175","71","stop-signal","120","1280751","0.0-109.0","pilot-39_ses-02_1","","2350","0","stim","","<div class = coverbox></div><div class = shapebox><img class = stim src = /static/experiments/motor_selective_stop_signal/images/triangle.png></img></div>","89,71","850","","71","","test","97","<div class = coverbox></div><div class = stopbox><div class = centered-shape id = stop-signal></div><div class = centered-shape id = stop-signal-inner></div></div>","850","stop","500","ignore","89",""
"-1","-1","stop-signal","121","1283027","0.0-110.0","pilot-39_ses-02_1","","2250","0","stim","","<div class = coverbox></div><div class = shapebox><img class = stim src = /static/experiments/motor_selective_stop_signal/images/rhombus.png></img></div>","89,71","850","","71","","test","98","<div class = coverbox></div><div class = stopbox><div class = centered-shape id = stop-signal></div><div class = centered-shape id = stop-signal-inner></div></div>","850","go","500","go","89",""
"694","71","stop-signal","122","1285488","0.0-111.0","pilot-39_ses-02_1","","2450","0","stim","","<div class = coverbox></div><div class = shapebox><img class = stim src = /static/experiments/motor_selective_stop_signal/images/triangle.png></img></div>","89,71","850","","71","","test","99","<div class = coverbox></div><div class = stopbox><div class = centered-shape id = stop-signal></div><div class = centered-shape id = stop-signal-inner></div></div>","850","go","500","go","89",""
"-1","-1","poldrack-single-stim","123","1293010","0.0-112.0","pilot-39_ses-02_1","","7500","1000","rest_block","","<div class = centerbox><div class = center-text>+</div></div>","none","7500","","","","","","","","","","","",""
"-1","-1","poldrack-single-stim","124","1295539","0.0-113.0","pilot-39_ses-02_1","","1500","500","test_start_block","","<div class = centerbox><div class = center-text>Preparez-vous!</p></div>","none","1500","","","","","","","","","","","",""
"1146","89","stop-signal","125","1298316","0.0-114.0","pilot-39_ses-02_1","","2250","0","stim","","<div class = coverbox></div><div class = shapebox><img class = stim src = /static/experiments/motor_selective_stop_signal/images/circle.png></img></div>","89,71","850","","89","","test","100","<div class = coverbox></div><div class = stopbox><div class = centered-shape id = stop-signal></div><div class = centered-shape id = stop-signal-inner></div></div>","850","go","500","go","89",""
"1122","89","stop-signal","126","1300699","0.0-115.0","pilot-39_ses-02_1","","2350","0","stim","","<div class = coverbox></div><div class = shapebox><img class = stim src = /static/experiments/motor_selective_stop_signal/images/circle.png></img></div>","89,71","850","","89","","test","101","<div class = coverbox></div><div class = stopbox><div class = centered-shape id = stop-signal></div><div class = centered-shape id = stop-signal-inner></div></div>","850","go","500","go","89",""
"1035","71","stop-signal","127","1303160","0.0-116.0","pilot-39_ses-02_1","","2450","0","stim","","<div class = coverbox></div><div class = shapebox><img class = stim src = /static/experiments/motor_selective_stop_signal/images/triangle.png></img></div>","89,71","850","","71","","test","102","<div class = coverbox></div><div class = stopbox><div class = centered-shape id = stop-signal></div><div class = centered-shape id = stop-signal-inner></div></div>","850","stop","500","ignore","89",""
"-1","-1","stop-signal","128","1305420","0.0-117.0","pilot-39_ses-02_1","","2250","0","stim","","<div class = coverbox></div><div class = shapebox><img class = stim src = /static/experiments/motor_selective_stop_signal/images/Lshape.png></img></div>","89,71","850","","89","","test","103","<div class = coverbox></div><div class = stopbox><div class = centered-shape id = stop-signal></div><div class = centered-shape id = stop-signal-inner></div></div>","850","stop","500","stop","89",""
"1073","71","stop-signal","129","1307667","0.0-118.0","pilot-39_ses-02_1","","2250","0","stim","","<div class = coverbox></div><div class = shapebox><img class = stim src = /static/experiments/motor_selective_stop_signal/images/rhombus.png></img></div>","89,71","850","","71","","test","104","<div class = coverbox></div><div class = stopbox><div class = centered-shape id = stop-signal></div><div class = centered-shape id = stop-signal-inner></div></div>","900","go","500","go","89",""
"528","71","stop-signal","130","1310525","0.0-119.0","pilot-39_ses-02_1","","2850","0","stim","","<div class = coverbox></div><div class = shapebox><img class = stim src = /static/experiments/motor_selective_stop_signal/images/rhombus.png></img></div>","89,71","850","","71","","test","105","<div class = coverbox></div><div class = stopbox><div class = centered-shape id = stop-signal></div><div class = centered-shape id = stop-signal-inner></div></div>","900","go","500","go","89",""
"1324","89","stop-signal","131","1312798","0.0-120.0","pilot-39_ses-02_1","","2250","0","stim","","<div class = coverbox></div><div class = shapebox><img class = stim src = /static/experiments/motor_selective_stop_signal/images/circle.png></img></div>","89,71","850","","89","","test","106","<div class = coverbox></div><div class = stopbox><div class = centered-shape id = stop-signal></div><div class = centered-shape id = stop-signal-inner></div></div>","900","go","500","go","89",""
"813","71","stop-signal","132","1316256","0.0-121.0","pilot-39_ses-02_1","","3450","0","stim","","<div class = coverbox></div><div class = shapebox><img class = stim src = /static/experiments/motor_selective_stop_signal/images/rhombus.png></img></div>","89,71","850","","71","","test","107","<div class = coverbox></div><div class = stopbox><div class = centered-shape id = stop-signal></div><div class = centered-shape id = stop-signal-inner></div></div>","900","go","500","go","89",""
"473","71","stop-signal","133","1318620","0.0-122.0","pilot-39_ses-02_1","","2350","0","stim","","<div class = coverbox></div><div class = shapebox><img class = stim src = /static/experiments/motor_selective_stop_signal/images/triangle.png></img></div>","89,71","850","","71","","test","108","<div class = coverbox></div><div class = stopbox><div class = centered-shape id = stop-signal></div><div class = centered-shape id = stop-signal-inner></div></div>","900","stop","500","ignore","89",""
"582","71","stop-signal","134","1320974","0.0-123.0","pilot-39_ses-02_1","","2350","0","stim","","<div class = coverbox></div><div class = shapebox><img class = stim src = /static/experiments/motor_selective_stop_signal/images/rhombus.png></img></div>","89,71","850","","71","","test","109","<div class = coverbox></div><div class = stopbox><div class = centered-shape id = stop-signal></div><div class = centered-shape id = stop-signal-inner></div></div>","900","stop","500","ignore","89",""
"1260","89","stop-signal","135","1323320","0.0-124.0","pilot-39_ses-02_1","","2350","0","stim","","<div class = coverbox></div><div class = shapebox><img class = stim src = /static/experiments/motor_selective_stop_signal/images/Lshape.png></img></div>","89,71","850","","89","","test","110","<div class = coverbox></div><div class = stopbox><div class = centered-shape id = stop-signal></div><div class = centered-shape id = stop-signal-inner></div></div>","900","go","500","go","89",""
"-1","-1","stop-signal","136","1325803","0.0-125.0","pilot-39_ses-02_1","","2450","0","stim","","<div class = coverbox></div><div class = shapebox><img class = stim src = /static/experiments/motor_selective_stop_signal/images/circle.png></img></div>","89,71","850","","89","","test","111","<div class = coverbox></div><div class = stopbox><div class = centered-shape id = stop-signal></div><div class = centered-shape id = stop-signal-inner></div></div>","900","stop","500","stop","89",""
"1278","71","stop-signal","137","1328381","0.0-126.0","pilot-39_ses-02_1","","2550","0","stim","","<div class = coverbox></div><div class = shapebox><img class = stim src = /static/experiments/motor_selective_stop_signal/images/triangle.png></img></div>","89,71","850","","71","","test","112","<div class = coverbox></div><div class = stopbox><div class = centered-shape id = stop-signal></div><div class = centered-shape id = stop-signal-inner></div></div>","950","stop","500","ignore","89",""
"-1","-1","stop-signal","138","1330741","0.0-127.0","pilot-39_ses-02_1","","2350","0","stim","","<div class = coverbox></div><div class = shapebox><img class = stim src = /static/experiments/motor_selective_stop_signal/images/circle.png></img></div>","89,71","850","","89","","test","113","<div class = coverbox></div><div class = stopbox><div class = centered-shape id = stop-signal></div><div class = centered-shape id = stop-signal-inner></div></div>","950","go","500","go","89",""
"975","89","stop-signal","139","1333015","0.0-128.0","pilot-39_ses-02_1","","2250","0","stim","","<div class = coverbox></div><div class = shapebox><img class = stim src = /static/experiments/motor_selective_stop_signal/images/circle.png></img></div>","89,71","850","","89","","test","114","<div class = coverbox></div><div class = stopbox><div class = centered-shape id = stop-signal></div><div class = centered-shape id = stop-signal-inner></div></div>","950","stop","500","stop","89",""
"936","71","stop-signal","140","1335261","0.0-129.0","pilot-39_ses-02_1","","2250","0","stim","","<div class = coverbox></div><div class = shapebox><img class = stim src = /static/experiments/motor_selective_stop_signal/images/triangle.png></img></div>","89,71","850","","71","","test","115","<div class = coverbox></div><div class = stopbox><div class = centered-shape id = stop-signal></div><div class = centered-shape id = stop-signal-inner></div></div>","900","go","500","go","89",""
"1243","89","stop-signal","141","1338314","0.0-130.0","pilot-39_ses-02_1","","3050","0","stim","","<div class = coverbox></div><div class = shapebox><img class = stim src = /static/experiments/motor_selective_stop_signal/images/Lshape.png></img></div>","89,71","850","","89","","test","116","<div class = coverbox></div><div class = stopbox><div class = centered-shape id = stop-signal></div><div class = centered-shape id = stop-signal-inner></div></div>","900","go","500","go","89",""
"1261","71","stop-signal","142","1340791","0.0-131.0","pilot-39_ses-02_1","","2450","0","stim","","<div class = coverbox></div><div class = shapebox><img class = stim src = /static/experiments/motor_selective_stop_signal/images/rhombus.png></img></div>","89,71","850","","71","","test","117","<div class = coverbox></div><div class = stopbox><div class = centered-shape id = stop-signal></div><div class = centered-shape id = stop-signal-inner></div></div>","900","go","500","go","89",""
"1447","89","stop-signal","143","1343149","0.0-132.0","pilot-39_ses-02_1","","2350","0","stim","","<div class = coverbox></div><div class = shapebox><img class = stim src = /static/experiments/motor_selective_stop_signal/images/circle.png></img></div>","89,71","850","","89","","test","118","<div class = coverbox></div><div class = stopbox><div class = centered-shape id = stop-signal></div><div class = centered-shape id = stop-signal-inner></div></div>","900","go","500","go","89",""
"-1","-1","stop-signal","144","1345423","0.0-133.0","pilot-39_ses-02_1","","2250","0","stim","","<div class = coverbox></div><div class = shapebox><img class = stim src = /static/experiments/motor_selective_stop_signal/images/circle.png></img></div>","89,71","850","","89","","test","119","<div class = coverbox></div><div class = stopbox><div class = centered-shape id = stop-signal></div><div class = centered-shape id = stop-signal-inner></div></div>","900","stop","500","stop","89",""
"-1","-1","stop-signal","145","1348695","0.0-134.0","pilot-39_ses-02_1","","3250","0","stim","","<div class = coverbox></div><div class = shapebox><img class = stim src = /static/experiments/motor_selective_stop_signal/images/circle.png></img></div>","89,71","850","","89","","test","120","<div class = coverbox></div><div class = stopbox><div class = centered-shape id = stop-signal></div><div class = centered-shape id = stop-signal-inner></div></div>","950","stop","500","stop","89",""
"1374","89","stop-signal","146","1351669","0.0-135.0","pilot-39_ses-02_1","","2950","0","stim","","<div class = coverbox></div><div class = shapebox><img class = stim src = /static/experiments/motor_selective_stop_signal/images/circle.png></img></div>","89,71","850","","89","","test","121","<div class = coverbox></div><div class = stopbox><div class = centered-shape id = stop-signal></div><div class = centered-shape id = stop-signal-inner></div></div>","1000","go","500","go","89",""
"-1","-1","stop-signal","147","1354246","0.0-136.0","pilot-39_ses-02_1","","2550","0","stim","","<div class = coverbox></div><div class = shapebox><img class = stim src = /static/experiments/motor_selective_stop_signal/images/circle.png></img></div>","89,71","850","","89","","test","122","<div class = coverbox></div><div class = stopbox><div class = centered-shape id = stop-signal></div><div class = centered-shape id = stop-signal-inner></div></div>","1000","stop","500","stop","89",""
"1215","89","stop-signal","148","1356626","0.0-137.0","pilot-39_ses-02_1","","2350","0","stim","","<div class = coverbox></div><div class = shapebox><img class = stim src = /static/experiments/motor_selective_stop_signal/images/circle.png></img></div>","89,71","850","","89","","test","123","<div class = coverbox></div><div class = stopbox><div class = centered-shape id = stop-signal></div><div class = centered-shape id = stop-signal-inner></div></div>","1000","go","500","go","89",""
"-1","-1","stop-signal","149","1359203","0.0-138.0","pilot-39_ses-02_1","","2550","0","stim","","<div class = coverbox></div><div class = shapebox><img class = stim src = /static/experiments/motor_selective_stop_signal/images/circle.png></img></div>","89,71","850","","89","","test","124","<div class = coverbox></div><div class = stopbox><div class = centered-shape id = stop-signal></div><div class = centered-shape id = stop-signal-inner></div></div>","1000","stop","500","stop","89",""
"1690","71","stop-signal","150","1361562","0.0-139.0","pilot-39_ses-02_1","","2350","0","stim","","<div class = coverbox></div><div class = shapebox><img class = stim src = /static/experiments/motor_selective_stop_signal/images/triangle.png></img></div>","89,71","850","","71","","test","125","<div class = coverbox></div><div class = stopbox><div class = centered-shape id = stop-signal></div><div class = centered-shape id = stop-signal-inner></div></div>","1000","go","500","go","89",""
"-1","-1","stop-signal","151","1363814","0.0-140.0","pilot-39_ses-02_1","","2250","0","stim","","<div class = coverbox></div><div class = shapebox><img class = stim src = /static/experiments/motor_selective_stop_signal/images/circle.png></img></div>","89,71","850","","89","","test","126","<div class = coverbox></div><div class = stopbox><div class = centered-shape id = stop-signal></div><div class = centered-shape id = stop-signal-inner></div></div>","1000","go","500","go","89",""
"43","89","stop-signal","152","1366280","0.0-141.0","pilot-39_ses-02_1","","2450","0","stim","","<div class = coverbox></div><div class = shapebox><img class = stim src = /static/experiments/motor_selective_stop_signal/images/triangle.png></img></div>","89,71","850","","71","","test","127","<div class = coverbox></div><div class = stopbox><div class = centered-shape id = stop-signal></div><div class = centered-shape id = stop-signal-inner></div></div>","1000","stop","500","ignore","89",""
"1229","89","stop-signal","153","1368641","0.0-142.0","pilot-39_ses-02_1","","2350","0","stim","","<div class = coverbox></div><div class = shapebox><img class = stim src = /static/experiments/motor_selective_stop_signal/images/Lshape.png></img></div>","89,71","850","","89","","test","128","<div class = coverbox></div><div class = stopbox><div class = centered-shape id = stop-signal></div><div class = centered-shape id = stop-signal-inner></div></div>","1000","go","500","go","89",""
"1010","71","stop-signal","154","1371307","0.0-143.0","pilot-39_ses-02_1","","2650","0","stim","","<div class = coverbox></div><div class = shapebox><img class = stim src = /static/experiments/motor_selective_stop_signal/images/rhombus.png></img></div>","89,71","850","","71","","test","129","<div class = coverbox></div><div class = stopbox><div class = centered-shape id = stop-signal></div><div class = centered-shape id = stop-signal-inner></div></div>","1000","stop","500","ignore","89",""
"-1","-1","stop-signal","155","1373581","0.0-144.0","pilot-39_ses-02_1","","2250","0","stim","","<div class = coverbox></div><div class = shapebox><img class = stim src = /static/experiments/motor_selective_stop_signal/images/circle.png></img></div>","89,71","850","","89","","test","130","<div class = coverbox></div><div class = stopbox><div class = centered-shape id = stop-signal></div><div class = centered-shape id = stop-signal-inner></div></div>","1000","go","500","go","89",""
"777","89","stop-signal","156","1375826","0.0-145.0","pilot-39_ses-02_1","","2250","0","stim","","<div class = coverbox></div><div class = shapebox><img class = stim src = /static/experiments/motor_selective_stop_signal/images/Lshape.png></img></div>","89,71","850","","89","","test","131","<div class = coverbox></div><div class = stopbox><div class = centered-shape id = stop-signal></div><div class = centered-shape id = stop-signal-inner></div></div>","1000","stop","500","stop","89",""
"1191","71","stop-signal","157","1378287","0.0-146.0","pilot-39_ses-02_1","","2450","0","stim","","<div class = coverbox></div><div class = shapebox><img class = stim src = /static/experiments/motor_selective_stop_signal/images/triangle.png></img></div>","89,71","850","","71","","test","132","<div class = coverbox></div><div class = stopbox><div class = centered-shape id = stop-signal></div><div class = centered-shape id = stop-signal-inner></div></div>","950","go","500","go","89",""
"1131","71","stop-signal","158","1380546","0.0-147.0","pilot-39_ses-02_1","","2250","0","stim","","<div class = coverbox></div><div class = shapebox><img class = stim src = /static/experiments/motor_selective_stop_signal/images/rhombus.png></img></div>","89,71","850","","71","","test","133","<div class = coverbox></div><div class = stopbox><div class = centered-shape id = stop-signal></div><div class = centered-shape id = stop-signal-inner></div></div>","950","go","500","go","89",""
"849","89","stop-signal","159","1383126","0.0-148.0","pilot-39_ses-02_1","","2550","0","stim","","<div class = coverbox></div><div class = shapebox><img class = stim src = /static/experiments/motor_selective_stop_signal/images/circle.png></img></div>","89,71","850","","89","","test","134","<div class = coverbox></div><div class = stopbox><div class = centered-shape id = stop-signal></div><div class = centered-shape id = stop-signal-inner></div></div>","950","stop","500","stop","89",""
"1522","89","stop-signal","160","1385406","0.0-149.0","pilot-39_ses-02_1","","2250","0","stim","","<div class = coverbox></div><div class = shapebox><img class = stim src = /static/experiments/motor_selective_stop_signal/images/circle.png></img></div>","89,71","850","","89","","test","135","<div class = coverbox></div><div class = stopbox><div class = centered-shape id = stop-signal></div><div class = centered-shape id = stop-signal-inner></div></div>","900","go","500","go","89",""
"1646","71","stop-signal","161","1387766","0.0-150.0","pilot-39_ses-02_1","","2350","0","stim","","<div class = coverbox></div><div class = shapebox><img class = stim src = /static/experiments/motor_selective_stop_signal/images/triangle.png></img></div>","89,71","850","","71","","test","136","<div class = coverbox></div><div class = stopbox><div class = centered-shape id = stop-signal></div><div class = centered-shape id = stop-signal-inner></div></div>","900","stop","500","ignore","89",""
"-1","-1","stop-signal","162","1390048","0.0-151.0","pilot-39_ses-02_1","","2250","0","stim","","<div class = coverbox></div><div class = shapebox><img class = stim src = /static/experiments/motor_selective_stop_signal/images/Lshape.png></img></div>","89,71","850","","89","","test","137","<div class = coverbox></div><div class = stopbox><div class = centered-shape id = stop-signal></div><div class = centered-shape id = stop-signal-inner></div></div>","900","stop","500","stop","89",""
"-1","-1","stop-signal","163","1392615","0.0-152.0","pilot-39_ses-02_1","","2550","0","stim","","<div class = coverbox></div><div class = shapebox><img class = stim src = /static/experiments/motor_selective_stop_signal/images/Lshape.png></img></div>","89,71","850","","89","","test","138","<div class = coverbox></div><div class = stopbox><div class = centered-shape id = stop-signal></div><div class = centered-shape id = stop-signal-inner></div></div>","950","stop","500","stop","89",""
"567","71","stop-signal","164","1395170","0.0-153.0","pilot-39_ses-02_1","","2550","0","stim","","<div class = coverbox></div><div class = shapebox><img class = stim src = /static/experiments/motor_selective_stop_signal/images/triangle.png></img></div>","89,71","850","","71","","test","139","<div class = coverbox></div><div class = stopbox><div class = centered-shape id = stop-signal></div><div class = centered-shape id = stop-signal-inner></div></div>","1000","go","500","go","89",""
"1728","89","stop-signal","165","1397541","0.0-154.0","pilot-39_ses-02_1","","2350","0","stim","","<div class = coverbox></div><div class = shapebox><img class = stim src = /static/experiments/motor_selective_stop_signal/images/Lshape.png></img></div>","89,71","850","","89","","test","140","<div class = coverbox></div><div class = stopbox><div class = centered-shape id = stop-signal></div><div class = centered-shape id = stop-signal-inner></div></div>","1000","go","500","go","89",""
"1406","71","stop-signal","166","1399879","0.0-155.0","pilot-39_ses-02_1","","2350","0","stim","","<div class = coverbox></div><div class = shapebox><img class = stim src = /static/experiments/motor_selective_stop_signal/images/triangle.png></img></div>","89,71","850","","71","","test","141","<div class = coverbox></div><div class = stopbox><div class = centered-shape id = stop-signal></div><div class = centered-shape id = stop-signal-inner></div></div>","1000","go","500","go","89",""
"505","71","stop-signal","167","1402143","0.0-156.0","pilot-39_ses-02_1","","2250","0","stim","","<div class = coverbox></div><div class = shapebox><img class = stim src = /static/experiments/motor_selective_stop_signal/images/triangle.png></img></div>","89,71","850","","71","","test","142","<div class = coverbox></div><div class = stopbox><div class = centered-shape id = stop-signal></div><div class = centered-shape id = stop-signal-inner></div></div>","1000","go","500","go","89",""
"693","71","stop-signal","168","1404608","0.0-157.0","pilot-39_ses-02_1","","2450","0","stim","","<div class = coverbox></div><div class = shapebox><img class = stim src = /static/experiments/motor_selective_stop_signal/images/triangle.png></img></div>","89,71","850","","71","","test","143","<div class = coverbox></div><div class = stopbox><div class = centered-shape id = stop-signal></div><div class = centered-shape id = stop-signal-inner></div></div>","1000","stop","500","ignore","89",""
"1202","71","stop-signal","169","1406880","0.0-158.0","pilot-39_ses-02_1","","2250","0","stim","","<div class = coverbox></div><div class = shapebox><img class = stim src = /static/experiments/motor_selective_stop_signal/images/rhombus.png></img></div>","89,71","850","","71","","test","144","<div class = coverbox></div><div class = stopbox><div class = centered-shape id = stop-signal></div><div class = centered-shape id = stop-signal-inner></div></div>","1000","go","500","go","89",""
"946","71","stop-signal","170","1409344","0.0-159.0","pilot-39_ses-02_1","","2450","0","stim","","<div class = coverbox></div><div class = shapebox><img class = stim src = /static/experiments/motor_selective_stop_signal/images/rhombus.png></img></div>","89,71","850","","71","","test","145","<div class = coverbox></div><div class = stopbox><div class = centered-shape id = stop-signal></div><div class = centered-shape id = stop-signal-inner></div></div>","1000","stop","500","ignore","89",""
"1219","89","stop-signal","171","1412009","0.0-160.0","pilot-39_ses-02_1","","2650","0","stim","","<div class = coverbox></div><div class = shapebox><img class = stim src = /static/experiments/motor_selective_stop_signal/images/Lshape.png></img></div>","89,71","850","","89","","test","146","<div class = coverbox></div><div class = stopbox><div class = centered-shape id = stop-signal></div><div class = centered-shape id = stop-signal-inner></div></div>","1000","stop","500","stop","89",""
"1682","89","stop-signal","172","1414462","0.0-161.0","pilot-39_ses-02_1","","2450","0","stim","","<div class = coverbox></div><div class = shapebox><img class = stim src = /static/experiments/motor_selective_stop_signal/images/circle.png></img></div>","89,71","850","","89","","test","147","<div class = coverbox></div><div class = stopbox><div class = centered-shape id = stop-signal></div><div class = centered-shape id = stop-signal-inner></div></div>","950","go","500","go","89",""
"690","71","stop-signal","173","1416824","0.0-162.0","pilot-39_ses-02_1","","2350","0","stim","","<div class = coverbox></div><div class = shapebox><img class = stim src = /static/experiments/motor_selective_stop_signal/images/rhombus.png></img></div>","89,71","850","","71","","test","148","<div class = coverbox></div><div class = stopbox><div class = centered-shape id = stop-signal></div><div class = centered-shape id = stop-signal-inner></div></div>","950","go","500","go","89",""
"1008","71","stop-signal","174","1419094","0.0-163.0","pilot-39_ses-02_1","","2250","0","stim","","<div class = coverbox></div><div class = shapebox><img class = stim src = /static/experiments/motor_selective_stop_signal/images/triangle.png></img></div>","89,71","850","","71","","test","149","<div class = coverbox></div><div class = stopbox><div class = centered-shape id = stop-signal></div><div class = centered-shape id = stop-signal-inner></div></div>","950","stop","500","ignore","89",""
"-1","-1","poldrack-single-stim","175","1426599","0.0-164.0","pilot-39_ses-02_1","","7500","1000","rest_block","","<div class = centerbox><div class = center-text>+</div></div>","none","7500","","","","","","","","","","","",""
"-1","-1","poldrack-single-stim","176","1429126","0.0-165.0","pilot-39_ses-02_1","","1500","500","test_start_block","","<div class = centerbox><div class = center-text>Preparez-vous!</p></div>","none","1500","","","","","","","","","","","",""
"898","89","stop-signal","177","1432192","0.0-166.0","pilot-39_ses-02_1","","2550","0","stim","","<div class = coverbox></div><div class = shapebox><img class = stim src = /static/experiments/motor_selective_stop_signal/images/circle.png></img></div>","89,71","850","","89","","test","150","<div class = coverbox></div><div class = stopbox><div class = centered-shape id = stop-signal></div><div class = centered-shape id = stop-signal-inner></div></div>","950","go","500","go","89",""
"744","71","stop-signal","178","1434474","0.0-167.0","pilot-39_ses-02_1","","2250","0","stim","","<div class = coverbox></div><div class = shapebox><img class = stim src = /static/experiments/motor_selective_stop_signal/images/triangle.png></img></div>","89,71","850","","71","","test","151","<div class = coverbox></div><div class = stopbox><div class = centered-shape id = stop-signal></div><div class = centered-shape id = stop-signal-inner></div></div>","950","go","500","go","89",""
"857","71","stop-signal","179","1436722","0.0-168.0","pilot-39_ses-02_1","","2250","0","stim","","<div class = coverbox></div><div class = shapebox><img class = stim src = /static/experiments/motor_selective_stop_signal/images/triangle.png></img></div>","89,71","850","","71","","test","152","<div class = coverbox></div><div class = stopbox><div class = centered-shape id = stop-signal></div><div class = centered-shape id = stop-signal-inner></div></div>","950","go","500","go","89",""
"1443","89","stop-signal","180","1439079","0.0-169.0","pilot-39_ses-02_1","","2350","0","stim","","<div class = coverbox></div><div class = shapebox><img class = stim src = /static/experiments/motor_selective_stop_signal/images/circle.png></img></div>","89,71","850","","89","","test","153","<div class = coverbox></div><div class = stopbox><div class = centered-shape id = stop-signal></div><div class = centered-shape id = stop-signal-inner></div></div>","950","go","500","go","89",""
"1459","89","stop-signal","181","1441345","0.0-170.0","pilot-39_ses-02_1","","2250","0","stim","","<div class = coverbox></div><div class = shapebox><img class = stim src = /static/experiments/motor_selective_stop_signal/images/Lshape.png></img></div>","89,71","850","","89","","test","154","<div class = coverbox></div><div class = stopbox><div class = centered-shape id = stop-signal></div><div class = centered-shape id = stop-signal-inner></div></div>","950","go","500","go","89",""
"1007","71","stop-signal","182","1444017","0.0-171.0","pilot-39_ses-02_1","","2650","0","stim","","<div class = coverbox></div><div class = shapebox><img class = stim src = /static/experiments/motor_selective_stop_signal/images/rhombus.png></img></div>","89,71","850","","71","","test","155","<div class = coverbox></div><div class = stopbox><div class = centered-shape id = stop-signal></div><div class = centered-shape id = stop-signal-inner></div></div>","950","stop","500","ignore","89",""
"836","71","stop-signal","183","1446386","0.0-172.0","pilot-39_ses-02_1","","2350","0","stim","","<div class = coverbox></div><div class = shapebox><img class = stim src = /static/experiments/motor_selective_stop_signal/images/triangle.png></img></div>","89,71","850","","71","","test","156","<div class = coverbox></div><div class = stopbox><div class = centered-shape id = stop-signal></div><div class = centered-shape id = stop-signal-inner></div></div>","950","stop","500","ignore","89",""
"1388","89","stop-signal","184","1448853","0.0-173.0","pilot-39_ses-02_1","","2450","0","stim","","<div class = coverbox></div><div class = shapebox><img class = stim src = /static/experiments/motor_selective_stop_signal/images/circle.png></img></div>","89,71","850","","89","","test","157","<div class = coverbox></div><div class = stopbox><div class = centered-shape id = stop-signal></div><div class = centered-shape id = stop-signal-inner></div></div>","950","go","500","go","89",""
"837","71","stop-signal","185","1451221","0.0-174.0","pilot-39_ses-02_1","","2350","0","stim","","<div class = coverbox></div><div class = shapebox><img class = stim src = /static/experiments/motor_selective_stop_signal/images/rhombus.png></img></div>","89,71","850","","71","","test","158","<div class = coverbox></div><div class = stopbox><div class = centered-shape id = stop-signal></div><div class = centered-shape id = stop-signal-inner></div></div>","950","stop","500","ignore","89",""
"-1","-1","stop-signal","186","1453490","0.0-175.0","pilot-39_ses-02_1","","2250","0","stim","","<div class = coverbox></div><div class = shapebox><img class = stim src = /static/experiments/motor_selective_stop_signal/images/Lshape.png></img></div>","89,71","850","","89","","test","159","<div class = coverbox></div><div class = stopbox><div class = centered-shape id = stop-signal></div><div class = centered-shape id = stop-signal-inner></div></div>","950","stop","500","stop","89",""
"870","71","stop-signal","187","1455750","0.0-176.0","pilot-39_ses-02_1","","2250","0","stim","","<div class = coverbox></div><div class = shapebox><img class = stim src = /static/experiments/motor_selective_stop_signal/images/triangle.png></img></div>","89,71","850","","71","","test","160","<div class = coverbox></div><div class = stopbox><div class = centered-shape id = stop-signal></div><div class = centered-shape id = stop-signal-inner></div></div>","1000","go","500","go","89",""
"-1","-1","stop-signal","188","1457976","0.0-177.0","pilot-39_ses-02_1","","2250","0","stim","","<div class = coverbox></div><div class = shapebox><img class = stim src = /static/experiments/motor_selective_stop_signal/images/circle.png></img></div>","89,71","850","","89","","test","161","<div class = coverbox></div><div class = stopbox><div class = centered-shape id = stop-signal></div><div class = centered-shape id = stop-signal-inner></div></div>","1000","stop","500","stop","89",""
"942","71","stop-signal","189","1460232","0.0-178.0","pilot-39_ses-02_1","","2250","0","stim","","<div class = coverbox></div><div class = shapebox><img class = stim src = /static/experiments/motor_selective_stop_signal/images/rhombus.png></img></div>","89,71","850","","71","","test","162","<div class = coverbox></div><div class = stopbox><div class = centered-shape id = stop-signal></div><div class = centered-shape id = stop-signal-inner></div></div>","1000","go","500","go","89",""
"-1","-1","stop-signal","190","1462603","0.0-179.0","pilot-39_ses-02_1","","2350","0","stim","","<div class = coverbox></div><div class = shapebox><img class = stim src = /static/experiments/motor_selective_stop_signal/images/Lshape.png></img></div>","89,71","850","","89","","test","163","<div class = coverbox></div><div class = stopbox><div class = centered-shape id = stop-signal></div><div class = centered-shape id = stop-signal-inner></div></div>","1000","stop","500","stop","89",""
"826","71","stop-signal","191","1465974","0.0-180.0","pilot-39_ses-02_1","","3350","0","stim","","<div class = coverbox></div><div class = shapebox><img class = stim src = /static/experiments/motor_selective_stop_signal/images/Lshape.png></img></div>","89,71","850","","89","","test","164","<div class = coverbox></div><div class = stopbox><div class = centered-shape id = stop-signal></div><div class = centered-shape id = stop-signal-inner></div></div>","1000","go","500","go","89",""
"1680","89","stop-signal","192","1468552","0.0-181.0","pilot-39_ses-02_1","","2550","0","stim","","<div class = coverbox></div><div class = shapebox><img class = stim src = /static/experiments/motor_selective_stop_signal/images/Lshape.png></img></div>","89,71","850","","89","","test","165","<div class = coverbox></div><div class = stopbox><div class = centered-shape id = stop-signal></div><div class = centered-shape id = stop-signal-inner></div></div>","1000","go","500","go","89",""
"-1","-1","stop-signal","193","1471312","0.0-182.0","pilot-39_ses-02_1","","2750","0","stim","","<div class = coverbox></div><div class = shapebox><img class = stim src = /static/experiments/motor_selective_stop_signal/images/circle.png></img></div>","89,71","850","","89","","test","166","<div class = coverbox></div><div class = stopbox><div class = centered-shape id = stop-signal></div><div class = centered-shape id = stop-signal-inner></div></div>","1000","stop","500","stop","89",""
"1901","89","stop-signal","194","1474063","0.0-183.0","pilot-39_ses-02_1","","2750","0","stim","","<div class = coverbox></div><div class = shapebox><img class = stim src = /static/experiments/motor_selective_stop_signal/images/circle.png></img></div>","89,71","850","","89","","test","167","<div class = coverbox></div><div class = stopbox><div class = centered-shape id = stop-signal></div><div class = centered-shape id = stop-signal-inner></div></div>","1000","go","500","go","89",""
"1256","71","stop-signal","195","1476724","0.0-184.0","pilot-39_ses-02_1","","2650","0","stim","","<div class = coverbox></div><div class = shapebox><img class = stim src = /static/experiments/motor_selective_stop_signal/images/triangle.png></img></div>","89,71","850","","71","","test","168","<div class = coverbox></div><div class = stopbox><div class = centered-shape id = stop-signal></div><div class = centered-shape id = stop-signal-inner></div></div>","1000","go","500","go","89",""
"-1","-1","stop-signal","196","1479188","0.0-185.0","pilot-39_ses-02_1","","2450","0","stim","","<div class = coverbox></div><div class = shapebox><img class = stim src = /static/experiments/motor_selective_stop_signal/images/Lshape.png></img></div>","89,71","850","","89","","test","169","<div class = coverbox></div><div class = stopbox><div class = centered-shape id = stop-signal></div><div class = centered-shape id = stop-signal-inner></div></div>","1000","stop","500","stop","89",""
"851","71","stop-signal","197","1481453","0.0-186.0","pilot-39_ses-02_1","","2250","0","stim","","<div class = coverbox></div><div class = shapebox><img class = stim src = /static/experiments/motor_selective_stop_signal/images/rhombus.png></img></div>","89,71","850","","71","","test","170","<div class = coverbox></div><div class = stopbox><div class = centered-shape id = stop-signal></div><div class = centered-shape id = stop-signal-inner></div></div>","1000","go","500","go","89",""
"1385","89","stop-signal","198","1483820","0.0-187.0","pilot-39_ses-02_1","","2350","0","stim","","<div class = coverbox></div><div class = shapebox><img class = stim src = /static/experiments/motor_selective_stop_signal/images/circle.png></img></div>","89,71","850","","89","","test","171","<div class = coverbox></div><div class = stopbox><div class = centered-shape id = stop-signal></div><div class = centered-shape id = stop-signal-inner></div></div>","1000","go","500","go","89",""
"1317","71","stop-signal","199","1486295","0.0-188.0","pilot-39_ses-02_1","","2450","0","stim","","<div class = coverbox></div><div class = shapebox><img class = stim src = /static/experiments/motor_selective_stop_signal/images/rhombus.png></img></div>","89,71","850","","71","","test","172","<div class = coverbox></div><div class = stopbox><div class = centered-shape id = stop-signal></div><div class = centered-shape id = stop-signal-inner></div></div>","1000","go","500","go","89",""
"900","71","stop-signal","200","1489372","0.0-189.0","pilot-39_ses-02_1","","3050","0","stim","","<div class = coverbox></div><div class = shapebox><img class = stim src = /static/experiments/motor_selective_stop_signal/images/rhombus.png></img></div>","89,71","850","","71","","test","173","<div class = coverbox></div><div class = stopbox><div class = centered-shape id = stop-signal></div><div class = centered-shape id = stop-signal-inner></div></div>","1000","go","500","go","89",""
"593","89","stop-signal","201","1491754","0.0-190.0","pilot-39_ses-02_1","","2350","0","stim","","<div class = coverbox></div><div class = shapebox><img class = stim src = /static/experiments/motor_selective_stop_signal/images/triangle.png></img></div>","89,71","850","","71","","test","174","<div class = coverbox></div><div class = stopbox><div class = centered-shape id = stop-signal></div><div class = centered-shape id = stop-signal-inner></div></div>","1000","go","500","go","89",""
"914","71","stop-signal","202","1494013","0.0-191.0","pilot-39_ses-02_1","","2250","0","stim","","<div class = coverbox></div><div class = shapebox><img class = stim src = /static/experiments/motor_selective_stop_signal/images/rhombus.png></img></div>","89,71","850","","71","","test","175","<div class = coverbox></div><div class = stopbox><div class = centered-shape id = stop-signal></div><div class = centered-shape id = stop-signal-inner></div></div>","1000","stop","500","ignore","89",""
"1145","71","stop-signal","203","1496370","0.0-192.0","pilot-39_ses-02_1","","2350","0","stim","","<div class = coverbox></div><div class = shapebox><img class = stim src = /static/experiments/motor_selective_stop_signal/images/rhombus.png></img></div>","89,71","850","","71","","test","176","<div class = coverbox></div><div class = stopbox><div class = centered-shape id = stop-signal></div><div class = centered-shape id = stop-signal-inner></div></div>","1000","go","500","go","89",""
"834","71","stop-signal","204","1498721","0.0-193.0","pilot-39_ses-02_1","","2350","0","stim","","<div class = coverbox></div><div class = shapebox><img class = stim src = /static/experiments/motor_selective_stop_signal/images/rhombus.png></img></div>","89,71","850","","71","","test","177","<div class = coverbox></div><div class = stopbox><div class = centered-shape id = stop-signal></div><div class = centered-shape id = stop-signal-inner></div></div>","1000","go","500","go","89",""
"1209","89","stop-signal","205","1501080","0.0-194.0","pilot-39_ses-02_1","","2350","0","stim","","<div class = coverbox></div><div class = shapebox><img class = stim src = /static/experiments/motor_selective_stop_signal/images/Lshape.png></img></div>","89,71","850","","89","","test","178","<div class = coverbox></div><div class = stopbox><div class = centered-shape id = stop-signal></div><div class = centered-shape id = stop-signal-inner></div></div>","1000","go","500","go","89",""
"981","71","stop-signal","206","1503424","0.0-195.0","pilot-39_ses-02_1","","2350","0","stim","","<div class = coverbox></div><div class = shapebox><img class = stim src = /static/experiments/motor_selective_stop_signal/images/triangle.png></img></div>","89,71","850","","71","","test","179","<div class = coverbox></div><div class = stopbox><div class = centered-shape id = stop-signal></div><div class = centered-shape id = stop-signal-inner></div></div>","1000","stop","500","ignore","89",""
"1091","71","stop-signal","207","1505782","0.0-196.0","pilot-39_ses-02_1","","2350","0","stim","","<div class = coverbox></div><div class = shapebox><img class = stim src = /static/experiments/motor_selective_stop_signal/images/rhombus.png></img></div>","89,71","850","","71","","test","180","<div class = coverbox></div><div class = stopbox><div class = centered-shape id = stop-signal></div><div class = centered-shape id = stop-signal-inner></div></div>","1000","go","500","go","89",""
"1410","89","stop-signal","208","1508054","0.0-197.0","pilot-39_ses-02_1","","2250","0","stim","","<div class = coverbox></div><div class = shapebox><img class = stim src = /static/experiments/motor_selective_stop_signal/images/circle.png></img></div>","89,71","850","","89","","test","181","<div class = coverbox></div><div class = stopbox><div class = centered-shape id = stop-signal></div><div class = centered-shape id = stop-signal-inner></div></div>","1000","go","500","go","89",""
"-1","-1","stop-signal","209","1510408","0.0-198.0","pilot-39_ses-02_1","","2350","0","stim","","<div class = coverbox></div><div class = shapebox><img class = stim src = /static/experiments/motor_selective_stop_signal/images/Lshape.png></img></div>","89,71","850","","89","","test","182","<div class = coverbox></div><div class = stopbox><div class = centered-shape id = stop-signal></div><div class = centered-shape id = stop-signal-inner></div></div>","1000","stop","500","stop","89",""
"708","71","stop-signal","210","1512876","0.0-199.0","pilot-39_ses-02_1","","2450","0","stim","","<div class = coverbox></div><div class = shapebox><img class = stim src = /static/experiments/motor_selective_stop_signal/images/rhombus.png></img></div>","89,71","850","","71","","test","183","<div class = coverbox></div><div class = stopbox><div class = centered-shape id = stop-signal></div><div class = centered-shape id = stop-signal-inner></div></div>","1000","go","500","go","89",""
"916","71","stop-signal","211","1515251","0.0-200.0","pilot-39_ses-02_1","","2350","0","stim","","<div class = coverbox></div><div class = shapebox><img class = stim src = /static/experiments/motor_selective_stop_signal/images/triangle.png></img></div>","89,71","850","","71","","test","184","<div class = coverbox></div><div class = stopbox><div class = centered-shape id = stop-signal></div><div class = centered-shape id = stop-signal-inner></div></div>","1000","go","500","go","89",""
"1364","89","stop-signal","212","1518107","0.0-201.0","pilot-39_ses-02_1","","2850","0","stim","","<div class = coverbox></div><div class = shapebox><img class = stim src = /static/experiments/motor_selective_stop_signal/images/Lshape.png></img></div>","89,71","850","","89","","test","185","<div class = coverbox></div><div class = stopbox><div class = centered-shape id = stop-signal></div><div class = centered-shape id = stop-signal-inner></div></div>","1000","go","500","go","89",""
"1464","89","stop-signal","213","1520676","0.0-202.0","pilot-39_ses-02_1","","2550","0","stim","","<div class = coverbox></div><div class = shapebox><img class = stim src = /static/experiments/motor_selective_stop_signal/images/Lshape.png></img></div>","89,71","850","","89","","test","186","<div class = coverbox></div><div class = stopbox><div class = centered-shape id = stop-signal></div><div class = centered-shape id = stop-signal-inner></div></div>","1000","go","500","go","89",""
