"rt","key_press","trial_type","trial_index","time_elapsed","internal_node_id","subject","text","block_duration","timing_post_trial","trial_id","stimulus","possible_responses","stim_duration","exp_stage","correct","correct_response","feedback_duration","flanker_middle_direction","flanker_type","flanker_location","cue","trial_num","exp_id"
"1896","13","text","0","1903","0.0-0.0","pilot-38_ses-01","","","","","","","","","","","","","","","","",""
"1174","89","poldrack-text","1","4093","0.0-1.0","pilot-38_ses-01","<div class = centerbox><div style = 'font-size: 50px' class = center-text>Veuillez appuyer avec votre index</p></div>","1174","500","fmri_response_test","","","","","","","","","","","","",""
"622","71","poldrack-text","2","5232","0.0-2.0","pilot-38_ses-01","<div class = centerbox><div style = 'font-size: 50px' class = center-text>Veuillez appuyer avec votre majeur</p></div>","622","500","fmri_response_test","","","","","","","","","","","","",""
"4546","32","poldrack-single-stim","3","10293","0.0-3.0","pilot-38_ses-01","","4546","500","instructions","<div class = centerbox><div class = center-text>Indiquez dans quelle direction la fleche centrale pointe.<br>Apuyez sur l'index (gauche) ou le majeur (droite).</div>","32","4546","","","","","","","","","",""
"-1","-1","poldrack-single-stim","4","10938","0.0-4.0-0.0","pilot-38_ses-01","","100","0","doublecue","<div class = centerbox><div class = ANT_text>+</div></div><div class = ANT_down><div class = ANT_text>*</div></div><div class = ANT_up><div class = ANT_text>*</div><div></div>","none","100","practice","","","","","","","","",""
"-1","-1","poldrack-single-stim","5","11369","0.0-4.0-1.0","pilot-38_ses-01","","400","0","fixation","<div class = centerbox><div class = ANT_text>+</div></div>","none","400","practice","","","","","","","","",""
"774","71","poldrack-categorize","6","14117","0.0-4.0-2.0","pilot-38_ses-01","","1700","500","stim","<div class = centerbox><div class = ANT_text>+</div></div><div class = ANT_down><img class = ""ANT_img first"" src = /static/experiments/attention_network_task/images/left_arrow.png></img><img class = ANT_img src = /static/experiments/attention_network_task/images/left_arrow.png></img><img class = ANT_img src = /static/experiments/attention_network_task/images/right_arrow.png></img><img class = ANT_img src = /static/experiments/attention_network_task/images/left_arrow.png></img><img class = ANT_img src = /static/experiments/attention_network_task/images/left_arrow.png></img></div></div>","89,71","1700","practice","true","71","1000","right","incongruent","down","double","",""
"-1","-1","poldrack-single-stim","7","14748","0.0-4.0-3.0","pilot-38_ses-01","","100","0","doublecue","<div class = centerbox><div class = ANT_text>+</div></div><div class = ANT_down><div class = ANT_text>*</div></div><div class = ANT_up><div class = ANT_text>*</div><div></div>","none","100","practice","","","","","","","","",""
"-1","-1","poldrack-single-stim","8","15166","0.0-4.0-4.0","pilot-38_ses-01","","400","0","fixation","<div class = centerbox><div class = ANT_text>+</div></div>","none","400","practice","","","","","","","","",""
"671","71","poldrack-categorize","9","17887","0.0-4.0-5.0","pilot-38_ses-01","","1700","500","stim","<div class = centerbox><div class = ANT_text>+</div></div><div class = ANT_down><img class = ""ANT_img first"" src = /static/experiments/attention_network_task/images/right_arrow.png></img><img class = ANT_img src = /static/experiments/attention_network_task/images/right_arrow.png></img><img class = ANT_img src = /static/experiments/attention_network_task/images/right_arrow.png></img><img class = ANT_img src = /static/experiments/attention_network_task/images/right_arrow.png></img><img class = ANT_img src = /static/experiments/attention_network_task/images/right_arrow.png></img></div></div>","89,71","1700","practice","true","71","1000","right","congruent","down","double","",""
"-1","-1","poldrack-single-stim","10","18528","0.0-4.0-6.0","pilot-38_ses-01","","100","0","doublecue","<div class = centerbox><div class = ANT_text>+</div></div><div class = ANT_down><div class = ANT_text>*</div></div><div class = ANT_up><div class = ANT_text>*</div><div></div>","none","100","practice","","","","","","","","",""
"-1","-1","poldrack-single-stim","11","18942","0.0-4.0-7.0","pilot-38_ses-01","","400","0","fixation","<div class = centerbox><div class = ANT_text>+</div></div>","none","400","practice","","","","","","","","",""
"660","89","poldrack-categorize","12","21681","0.0-4.0-8.0","pilot-38_ses-01","","1700","500","stim","<div class = centerbox><div class = ANT_text>+</div></div><div class = ANT_down><img class = ""ANT_img first"" src = /static/experiments/attention_network_task/images/right_arrow.png></img><img class = ANT_img src = /static/experiments/attention_network_task/images/right_arrow.png></img><img class = ANT_img src = /static/experiments/attention_network_task/images/left_arrow.png></img><img class = ANT_img src = /static/experiments/attention_network_task/images/right_arrow.png></img><img class = ANT_img src = /static/experiments/attention_network_task/images/right_arrow.png></img></div></div>","89,71","1700","practice","true","89","1000","left","incongruent","down","double","",""
"-1","-1","poldrack-single-stim","13","22313","0.0-4.0-9.0","pilot-38_ses-01","","100","0","spatialcue","<div class = centerbox><div class = ANT_text>+</div></div><div class = centerbox><div class = ANT_up><div class = ANT_text>*</p></div></div>","none","100","practice","","","","","","","","",""
"-1","-1","poldrack-single-stim","14","22722","0.0-4.0-10.0","pilot-38_ses-01","","400","0","fixation","<div class = centerbox><div class = ANT_text>+</div></div>","none","400","practice","","","","","","","","",""
"802","89","poldrack-categorize","15","25466","0.0-4.0-11.0","pilot-38_ses-01","","1700","500","stim","<div class = centerbox><div class = ANT_text>+</div></div><div class = ANT_up><img class = ""ANT_img first"" src = /static/experiments/attention_network_task/images/left_arrow.png></img><img class = ANT_img src = /static/experiments/attention_network_task/images/left_arrow.png></img><img class = ANT_img src = /static/experiments/attention_network_task/images/left_arrow.png></img><img class = ANT_img src = /static/experiments/attention_network_task/images/left_arrow.png></img><img class = ANT_img src = /static/experiments/attention_network_task/images/left_arrow.png></img></div></div>","89,71","1700","practice","true","89","1000","left","congruent","up","spatial","",""
"-1","-1","poldrack-single-stim","16","26101","0.0-4.0-12.0","pilot-38_ses-01","","100","0","doublecue","<div class = centerbox><div class = ANT_text>+</div></div><div class = ANT_down><div class = ANT_text>*</div></div><div class = ANT_up><div class = ANT_text>*</div><div></div>","none","100","practice","","","","","","","","",""
"-1","-1","poldrack-single-stim","17","26532","0.0-4.0-13.0","pilot-38_ses-01","","400","0","fixation","<div class = centerbox><div class = ANT_text>+</div></div>","none","400","practice","","","","","","","","",""
"687","71","poldrack-categorize","18","29285","0.0-4.0-14.0","pilot-38_ses-01","","1700","500","stim","<div class = centerbox><div class = ANT_text>+</div></div><div class = ANT_up><img class = ""ANT_img first"" src = /static/experiments/attention_network_task/images/left_arrow.png></img><img class = ANT_img src = /static/experiments/attention_network_task/images/left_arrow.png></img><img class = ANT_img src = /static/experiments/attention_network_task/images/right_arrow.png></img><img class = ANT_img src = /static/experiments/attention_network_task/images/left_arrow.png></img><img class = ANT_img src = /static/experiments/attention_network_task/images/left_arrow.png></img></div></div>","89,71","1700","practice","true","71","1000","right","incongruent","up","double","",""
"-1","-1","poldrack-single-stim","19","29932","0.0-4.0-15.0","pilot-38_ses-01","","100","0","spatialcue","<div class = centerbox><div class = ANT_text>+</div></div><div class = centerbox><div class = ANT_down><div class = ANT_text>*</p></div></div>","none","100","practice","","","","","","","","",""
"-1","-1","poldrack-single-stim","20","30349","0.0-4.0-16.0","pilot-38_ses-01","","400","0","fixation","<div class = centerbox><div class = ANT_text>+</div></div>","none","400","practice","","","","","","","","",""
"739","89","poldrack-categorize","21","33097","0.0-4.0-17.0","pilot-38_ses-01","","1700","500","stim","<div class = centerbox><div class = ANT_text>+</div></div><div class = ANT_down><img class = ""ANT_img first"" src = /static/experiments/attention_network_task/images/left_arrow.png></img><img class = ANT_img src = /static/experiments/attention_network_task/images/left_arrow.png></img><img class = ANT_img src = /static/experiments/attention_network_task/images/left_arrow.png></img><img class = ANT_img src = /static/experiments/attention_network_task/images/left_arrow.png></img><img class = ANT_img src = /static/experiments/attention_network_task/images/left_arrow.png></img></div></div>","89,71","1700","practice","true","89","1000","left","congruent","down","spatial","",""
"-1","-1","poldrack-single-stim","22","33746","0.0-4.0-18.0","pilot-38_ses-01","","100","0","spatialcue","<div class = centerbox><div class = ANT_text>+</div></div><div class = centerbox><div class = ANT_down><div class = ANT_text>*</p></div></div>","none","100","practice","","","","","","","","",""
"-1","-1","poldrack-single-stim","23","34163","0.0-4.0-19.0","pilot-38_ses-01","","400","0","fixation","<div class = centerbox><div class = ANT_text>+</div></div>","none","400","practice","","","","","","","","",""
"696","89","poldrack-categorize","24","36911","0.0-4.0-20.0","pilot-38_ses-01","","1700","500","stim","<div class = centerbox><div class = ANT_text>+</div></div><div class = ANT_down><img class = ""ANT_img first"" src = /static/experiments/attention_network_task/images/right_arrow.png></img><img class = ANT_img src = /static/experiments/attention_network_task/images/right_arrow.png></img><img class = ANT_img src = /static/experiments/attention_network_task/images/left_arrow.png></img><img class = ANT_img src = /static/experiments/attention_network_task/images/right_arrow.png></img><img class = ANT_img src = /static/experiments/attention_network_task/images/right_arrow.png></img></div></div>","89,71","1700","practice","true","89","1000","left","incongruent","down","spatial","",""
"-1","-1","poldrack-single-stim","25","37543","0.0-4.0-21.0","pilot-38_ses-01","","100","0","spatialcue","<div class = centerbox><div class = ANT_text>+</div></div><div class = centerbox><div class = ANT_up><div class = ANT_text>*</p></div></div>","none","100","practice","","","","","","","","",""
"-1","-1","poldrack-single-stim","26","37975","0.0-4.0-22.0","pilot-38_ses-01","","400","0","fixation","<div class = centerbox><div class = ANT_text>+</div></div>","none","400","practice","","","","","","","","",""
"738","71","poldrack-categorize","27","40722","0.0-4.0-23.0","pilot-38_ses-01","","1700","500","stim","<div class = centerbox><div class = ANT_text>+</div></div><div class = ANT_up><img class = ""ANT_img first"" src = /static/experiments/attention_network_task/images/right_arrow.png></img><img class = ANT_img src = /static/experiments/attention_network_task/images/right_arrow.png></img><img class = ANT_img src = /static/experiments/attention_network_task/images/right_arrow.png></img><img class = ANT_img src = /static/experiments/attention_network_task/images/right_arrow.png></img><img class = ANT_img src = /static/experiments/attention_network_task/images/right_arrow.png></img></div></div>","89,71","1700","practice","true","71","1000","right","congruent","up","spatial","",""
"-1","-1","poldrack-single-stim","28","41358","0.0-4.0-24.0","pilot-38_ses-01","","100","0","doublecue","<div class = centerbox><div class = ANT_text>+</div></div><div class = ANT_down><div class = ANT_text>*</div></div><div class = ANT_up><div class = ANT_text>*</div><div></div>","none","100","practice","","","","","","","","",""
"-1","-1","poldrack-single-stim","29","41775","0.0-4.0-25.0","pilot-38_ses-01","","400","0","fixation","<div class = centerbox><div class = ANT_text>+</div></div>","none","400","practice","","","","","","","","",""
"736","89","poldrack-categorize","30","44524","0.0-4.0-26.0","pilot-38_ses-01","","1700","500","stim","<div class = centerbox><div class = ANT_text>+</div></div><div class = ANT_down><img class = ""ANT_img first"" src = /static/experiments/attention_network_task/images/left_arrow.png></img><img class = ANT_img src = /static/experiments/attention_network_task/images/left_arrow.png></img><img class = ANT_img src = /static/experiments/attention_network_task/images/left_arrow.png></img><img class = ANT_img src = /static/experiments/attention_network_task/images/left_arrow.png></img><img class = ANT_img src = /static/experiments/attention_network_task/images/left_arrow.png></img></div></div>","89,71","1700","practice","true","89","1000","left","congruent","down","double","",""
"-1","-1","poldrack-single-stim","31","45171","0.0-4.0-27.0","pilot-38_ses-01","","100","0","doublecue","<div class = centerbox><div class = ANT_text>+</div></div><div class = ANT_down><div class = ANT_text>*</div></div><div class = ANT_up><div class = ANT_text>*</div><div></div>","none","100","practice","","","","","","","","",""
"-1","-1","poldrack-single-stim","32","45589","0.0-4.0-28.0","pilot-38_ses-01","","400","0","fixation","<div class = centerbox><div class = ANT_text>+</div></div>","none","400","practice","","","","","","","","",""
"676","89","poldrack-categorize","33","48319","0.0-4.0-29.0","pilot-38_ses-01","","1700","500","stim","<div class = centerbox><div class = ANT_text>+</div></div><div class = ANT_up><img class = ""ANT_img first"" src = /static/experiments/attention_network_task/images/left_arrow.png></img><img class = ANT_img src = /static/experiments/attention_network_task/images/left_arrow.png></img><img class = ANT_img src = /static/experiments/attention_network_task/images/left_arrow.png></img><img class = ANT_img src = /static/experiments/attention_network_task/images/left_arrow.png></img><img class = ANT_img src = /static/experiments/attention_network_task/images/left_arrow.png></img></div></div>","89,71","1700","practice","true","89","1000","left","congruent","up","double","",""
"-1","-1","poldrack-single-stim","34","48959","0.0-4.0-30.0","pilot-38_ses-01","","100","0","spatialcue","<div class = centerbox><div class = ANT_text>+</div></div><div class = centerbox><div class = ANT_up><div class = ANT_text>*</p></div></div>","none","100","practice","","","","","","","","",""
"-1","-1","poldrack-single-stim","35","49377","0.0-4.0-31.0","pilot-38_ses-01","","400","0","fixation","<div class = centerbox><div class = ANT_text>+</div></div>","none","400","practice","","","","","","","","",""
"672","89","poldrack-categorize","36","52101","0.0-4.0-32.0","pilot-38_ses-01","","1700","500","stim","<div class = centerbox><div class = ANT_text>+</div></div><div class = ANT_up><img class = ""ANT_img first"" src = /static/experiments/attention_network_task/images/right_arrow.png></img><img class = ANT_img src = /static/experiments/attention_network_task/images/right_arrow.png></img><img class = ANT_img src = /static/experiments/attention_network_task/images/left_arrow.png></img><img class = ANT_img src = /static/experiments/attention_network_task/images/right_arrow.png></img><img class = ANT_img src = /static/experiments/attention_network_task/images/right_arrow.png></img></div></div>","89,71","1700","practice","true","89","1000","left","incongruent","up","spatial","",""
"-1","-1","poldrack-single-stim","37","52734","0.0-4.0-33.0","pilot-38_ses-01","","100","0","spatialcue","<div class = centerbox><div class = ANT_text>+</div></div><div class = centerbox><div class = ANT_down><div class = ANT_text>*</p></div></div>","none","100","practice","","","","","","","","",""
"-1","-1","poldrack-single-stim","38","53157","0.0-4.0-34.0","pilot-38_ses-01","","400","0","fixation","<div class = centerbox><div class = ANT_text>+</div></div>","none","400","practice","","","","","","","","",""
"478","71","poldrack-categorize","39","55889","0.0-4.0-35.0","pilot-38_ses-01","","1700","500","stim","<div class = centerbox><div class = ANT_text>+</div></div><div class = ANT_down><img class = ""ANT_img first"" src = /static/experiments/attention_network_task/images/right_arrow.png></img><img class = ANT_img src = /static/experiments/attention_network_task/images/right_arrow.png></img><img class = ANT_img src = /static/experiments/attention_network_task/images/right_arrow.png></img><img class = ANT_img src = /static/experiments/attention_network_task/images/right_arrow.png></img><img class = ANT_img src = /static/experiments/attention_network_task/images/right_arrow.png></img></div></div>","89,71","1700","practice","true","71","1000","right","congruent","down","spatial","",""
"2766","32","poldrack-text","40","59168","0.0-5.0","pilot-38_ses-01","<div class = centerbox><div  class = center-text>Scanner Setup</div></div>","2766","0","fmri_scanner_wait","","","","","","","","","","","","",""
"59194","84","poldrack-text","41","118365","0.0-6.0","pilot-38_ses-01","<div class = centerbox><div style='color:red'; class = center-text>+</div></div>","59194","0","fmri_trigger_wait","","","","","","","","","","","","",""
"-1","-1","poldrack-single-stim","42","119383","0.0-7.0","pilot-38_ses-01","","1000","0","fmri_buffer","","none","1000","","","","","","","","","",""
"-1","-1","poldrack-single-stim","43","120907","0.0-8.0","pilot-38_ses-01","","1500","500","test_start_block","<div class = centerbox><div class = center-text>Preparez-vous!</div></div>","none","1500","","","","","","","","","",""
"-1","-1","poldrack-single-stim","44","121540","0.0-9.0","pilot-38_ses-01","","100","0","spatialcue","<div class = centerbox><div class = ANT_text>+</div></div><div class = centerbox><div class = ANT_up><div class = ANT_text>*</p></div></div>","none","100","test","","","","","","","","",""
"-1","-1","poldrack-single-stim","45","121956","0.0-10.0","pilot-38_ses-01","","400","0","fixation","<div class = centerbox><div class = ANT_text>+</div></div>","none","400","test","","","","","","","","",""
"495","71","poldrack-single-stim","46","124081","0.0-11.0","pilot-38_ses-01","","2100","0","stim","<div class = centerbox><div class = ANT_text>+</div></div><div class = ANT_up><img class = ""ANT_img first"" src = /static/experiments/attention_network_task/images/right_arrow.png></img><img class = ANT_img src = /static/experiments/attention_network_task/images/right_arrow.png></img><img class = ANT_img src = /static/experiments/attention_network_task/images/right_arrow.png></img><img class = ANT_img src = /static/experiments/attention_network_task/images/right_arrow.png></img><img class = ANT_img src = /static/experiments/attention_network_task/images/right_arrow.png></img></div></div>","89,71","1700","test","true","71","","right","congruent","up","spatial","0",""
"-1","-1","poldrack-single-stim","47","124206","0.0-12.0","pilot-38_ses-01","","100","0","doublecue","<div class = centerbox><div class = ANT_text>+</div></div><div class = ANT_down><div class = ANT_text>*</div></div><div class = ANT_up><div class = ANT_text>*</div><div></div>","none","100","test","","","","","","","","",""
"-1","-1","poldrack-single-stim","48","124621","0.0-13.0","pilot-38_ses-01","","400","0","fixation","<div class = centerbox><div class = ANT_text>+</div></div>","none","400","test","","","","","","","","",""
"679","71","poldrack-single-stim","49","126727","0.0-14.0","pilot-38_ses-01","","2100.272","0","stim","<div class = centerbox><div class = ANT_text>+</div></div><div class = ANT_down><img class = ""ANT_img first"" src = /static/experiments/attention_network_task/images/left_arrow.png></img><img class = ANT_img src = /static/experiments/attention_network_task/images/left_arrow.png></img><img class = ANT_img src = /static/experiments/attention_network_task/images/right_arrow.png></img><img class = ANT_img src = /static/experiments/attention_network_task/images/left_arrow.png></img><img class = ANT_img src = /static/experiments/attention_network_task/images/left_arrow.png></img></div></div>","89,71","1700","test","true","71","","right","incongruent","down","double","1",""
"-1","-1","poldrack-single-stim","50","126857","0.0-15.0","pilot-38_ses-01","","100","0","spatialcue","<div class = centerbox><div class = ANT_text>+</div></div><div class = centerbox><div class = ANT_up><div class = ANT_text>*</p></div></div>","none","100","test","","","","","","","","",""
"-1","-1","poldrack-single-stim","51","127277","0.0-16.0","pilot-38_ses-01","","400","0","fixation","<div class = centerbox><div class = ANT_text>+</div></div>","none","400","test","","","","","","","","",""
"567","71","poldrack-single-stim","52","129399","0.0-17.0","pilot-38_ses-01","","2100","0","stim","<div class = centerbox><div class = ANT_text>+</div></div><div class = ANT_up><img class = ""ANT_img first"" src = /static/experiments/attention_network_task/images/right_arrow.png></img><img class = ANT_img src = /static/experiments/attention_network_task/images/right_arrow.png></img><img class = ANT_img src = /static/experiments/attention_network_task/images/right_arrow.png></img><img class = ANT_img src = /static/experiments/attention_network_task/images/right_arrow.png></img><img class = ANT_img src = /static/experiments/attention_network_task/images/right_arrow.png></img></div></div>","89,71","1700","test","true","71","","right","congruent","up","spatial","2",""
"-1","-1","poldrack-single-stim","53","129521","0.0-18.0","pilot-38_ses-01","","100","0","spatialcue","<div class = centerbox><div class = ANT_text>+</div></div><div class = centerbox><div class = ANT_up><div class = ANT_text>*</p></div></div>","none","100","test","","","","","","","","",""
"-1","-1","poldrack-single-stim","54","129942","0.0-19.0","pilot-38_ses-01","","400","0","fixation","<div class = centerbox><div class = ANT_text>+</div></div>","none","400","test","","","","","","","","",""
"477","89","poldrack-single-stim","55","132055","0.0-20.0","pilot-38_ses-01","","2100.136","0","stim","<div class = centerbox><div class = ANT_text>+</div></div><div class = ANT_up><img class = ""ANT_img first"" src = /static/experiments/attention_network_task/images/left_arrow.png></img><img class = ANT_img src = /static/experiments/attention_network_task/images/left_arrow.png></img><img class = ANT_img src = /static/experiments/attention_network_task/images/left_arrow.png></img><img class = ANT_img src = /static/experiments/attention_network_task/images/left_arrow.png></img><img class = ANT_img src = /static/experiments/attention_network_task/images/left_arrow.png></img></div></div>","89,71","1700","test","true","89","","left","congruent","up","spatial","3",""
"-1","-1","poldrack-single-stim","56","132169","0.0-21.0","pilot-38_ses-01","","100","0","doublecue","<div class = centerbox><div class = ANT_text>+</div></div><div class = ANT_down><div class = ANT_text>*</div></div><div class = ANT_up><div class = ANT_text>*</div><div></div>","none","100","test","","","","","","","","",""
"-1","-1","poldrack-single-stim","57","132587","0.0-22.0","pilot-38_ses-01","","400","0","fixation","<div class = centerbox><div class = ANT_text>+</div></div>","none","400","test","","","","","","","","",""
"696","89","poldrack-single-stim","58","134707","0.0-23.0","pilot-38_ses-01","","2100.408","0","stim","<div class = centerbox><div class = ANT_text>+</div></div><div class = ANT_down><img class = ""ANT_img first"" src = /static/experiments/attention_network_task/images/right_arrow.png></img><img class = ANT_img src = /static/experiments/attention_network_task/images/right_arrow.png></img><img class = ANT_img src = /static/experiments/attention_network_task/images/left_arrow.png></img><img class = ANT_img src = /static/experiments/attention_network_task/images/right_arrow.png></img><img class = ANT_img src = /static/experiments/attention_network_task/images/right_arrow.png></img></div></div>","89,71","1700","test","true","89","","left","incongruent","down","double","4",""
"-1","-1","poldrack-single-stim","59","134822","0.0-24.0","pilot-38_ses-01","","100","0","doublecue","<div class = centerbox><div class = ANT_text>+</div></div><div class = ANT_down><div class = ANT_text>*</div></div><div class = ANT_up><div class = ANT_text>*</div><div></div>","none","100","test","","","","","","","","",""
"-1","-1","poldrack-single-stim","60","135247","0.0-25.0","pilot-38_ses-01","","400","0","fixation","<div class = centerbox><div class = ANT_text>+</div></div>","none","400","test","","","","","","","","",""
"689","71","poldrack-single-stim","61","137362","0.0-26.0","pilot-38_ses-01","","2100.544","0","stim","<div class = centerbox><div class = ANT_text>+</div></div><div class = ANT_up><img class = ""ANT_img first"" src = /static/experiments/attention_network_task/images/right_arrow.png></img><img class = ANT_img src = /static/experiments/attention_network_task/images/right_arrow.png></img><img class = ANT_img src = /static/experiments/attention_network_task/images/right_arrow.png></img><img class = ANT_img src = /static/experiments/attention_network_task/images/right_arrow.png></img><img class = ANT_img src = /static/experiments/attention_network_task/images/right_arrow.png></img></div></div>","89,71","1700","test","true","71","","right","congruent","up","double","5",""
"-1","-1","poldrack-single-stim","62","137493","0.0-27.0","pilot-38_ses-01","","100","0","doublecue","<div class = centerbox><div class = ANT_text>+</div></div><div class = ANT_down><div class = ANT_text>*</div></div><div class = ANT_up><div class = ANT_text>*</div><div></div>","none","100","test","","","","","","","","",""
"-1","-1","poldrack-single-stim","63","137909","0.0-28.0","pilot-38_ses-01","","400","0","fixation","<div class = centerbox><div class = ANT_text>+</div></div>","none","400","test","","","","","","","","",""
"718","71","poldrack-single-stim","64","140028","0.0-29.0","pilot-38_ses-01","","2100","0","stim","<div class = centerbox><div class = ANT_text>+</div></div><div class = ANT_up><img class = ""ANT_img first"" src = /static/experiments/attention_network_task/images/left_arrow.png></img><img class = ANT_img src = /static/experiments/attention_network_task/images/left_arrow.png></img><img class = ANT_img src = /static/experiments/attention_network_task/images/right_arrow.png></img><img class = ANT_img src = /static/experiments/attention_network_task/images/left_arrow.png></img><img class = ANT_img src = /static/experiments/attention_network_task/images/left_arrow.png></img></div></div>","89,71","1700","test","true","71","","right","incongruent","up","double","6",""
"-1","-1","poldrack-single-stim","65","140167","0.0-30.0","pilot-38_ses-01","","100","0","spatialcue","<div class = centerbox><div class = ANT_text>+</div></div><div class = centerbox><div class = ANT_down><div class = ANT_text>*</p></div></div>","none","100","test","","","","","","","","",""
"-1","-1","poldrack-single-stim","66","140584","0.0-31.0","pilot-38_ses-01","","400","0","fixation","<div class = centerbox><div class = ANT_text>+</div></div>","none","400","test","","","","","","","","",""
"465","89","poldrack-single-stim","67","142699","0.0-32.0","pilot-38_ses-01","","2100.136","0","stim","<div class = centerbox><div class = ANT_text>+</div></div><div class = ANT_down><img class = ""ANT_img first"" src = /static/experiments/attention_network_task/images/right_arrow.png></img><img class = ANT_img src = /static/experiments/attention_network_task/images/right_arrow.png></img><img class = ANT_img src = /static/experiments/attention_network_task/images/left_arrow.png></img><img class = ANT_img src = /static/experiments/attention_network_task/images/right_arrow.png></img><img class = ANT_img src = /static/experiments/attention_network_task/images/right_arrow.png></img></div></div>","89,71","1700","test","true","89","","left","incongruent","down","spatial","7",""
"-1","-1","poldrack-single-stim","68","142815","0.0-33.0","pilot-38_ses-01","","100","0","doublecue","<div class = centerbox><div class = ANT_text>+</div></div><div class = ANT_down><div class = ANT_text>*</div></div><div class = ANT_up><div class = ANT_text>*</div><div></div>","none","100","test","","","","","","","","",""
"-1","-1","poldrack-single-stim","69","143230","0.0-34.0","pilot-38_ses-01","","400","0","fixation","<div class = centerbox><div class = ANT_text>+</div></div>","none","400","test","","","","","","","","",""
"742","71","poldrack-single-stim","70","145342","0.0-35.0","pilot-38_ses-01","","2100.136","0","stim","<div class = centerbox><div class = ANT_text>+</div></div><div class = ANT_down><img class = ""ANT_img first"" src = /static/experiments/attention_network_task/images/left_arrow.png></img><img class = ANT_img src = /static/experiments/attention_network_task/images/left_arrow.png></img><img class = ANT_img src = /static/experiments/attention_network_task/images/right_arrow.png></img><img class = ANT_img src = /static/experiments/attention_network_task/images/left_arrow.png></img><img class = ANT_img src = /static/experiments/attention_network_task/images/left_arrow.png></img></div></div>","89,71","1700","test","true","71","","right","incongruent","down","double","8",""
"-1","-1","poldrack-single-stim","71","145459","0.0-36.0","pilot-38_ses-01","","100","0","spatialcue","<div class = centerbox><div class = ANT_text>+</div></div><div class = centerbox><div class = ANT_up><div class = ANT_text>*</p></div></div>","none","100","test","","","","","","","","",""
"-1","-1","poldrack-single-stim","72","145877","0.0-37.0","pilot-38_ses-01","","400","0","fixation","<div class = centerbox><div class = ANT_text>+</div></div>","none","400","test","","","","","","","","",""
"570","71","poldrack-single-stim","73","148006","0.0-38.0","pilot-38_ses-01","","2100.136","0","stim","<div class = centerbox><div class = ANT_text>+</div></div><div class = ANT_up><img class = ""ANT_img first"" src = /static/experiments/attention_network_task/images/left_arrow.png></img><img class = ANT_img src = /static/experiments/attention_network_task/images/left_arrow.png></img><img class = ANT_img src = /static/experiments/attention_network_task/images/right_arrow.png></img><img class = ANT_img src = /static/experiments/attention_network_task/images/left_arrow.png></img><img class = ANT_img src = /static/experiments/attention_network_task/images/left_arrow.png></img></div></div>","89,71","1700","test","true","71","","right","incongruent","up","spatial","9",""
"-1","-1","poldrack-single-stim","74","148134","0.0-39.0","pilot-38_ses-01","","100","0","doublecue","<div class = centerbox><div class = ANT_text>+</div></div><div class = ANT_down><div class = ANT_text>*</div></div><div class = ANT_up><div class = ANT_text>*</div><div></div>","none","100","test","","","","","","","","",""
"-1","-1","poldrack-single-stim","75","148560","0.0-40.0","pilot-38_ses-01","","400","0","fixation","<div class = centerbox><div class = ANT_text>+</div></div>","none","400","test","","","","","","","","",""
"561","89","poldrack-single-stim","76","150674","0.0-41.0","pilot-38_ses-01","","2100.136","0","stim","<div class = centerbox><div class = ANT_text>+</div></div><div class = ANT_down><img class = ""ANT_img first"" src = /static/experiments/attention_network_task/images/left_arrow.png></img><img class = ANT_img src = /static/experiments/attention_network_task/images/left_arrow.png></img><img class = ANT_img src = /static/experiments/attention_network_task/images/left_arrow.png></img><img class = ANT_img src = /static/experiments/attention_network_task/images/left_arrow.png></img><img class = ANT_img src = /static/experiments/attention_network_task/images/left_arrow.png></img></div></div>","89,71","1700","test","true","89","","left","congruent","down","double","10",""
"-1","-1","poldrack-single-stim","77","150791","0.0-42.0","pilot-38_ses-01","","100","0","spatialcue","<div class = centerbox><div class = ANT_text>+</div></div><div class = centerbox><div class = ANT_down><div class = ANT_text>*</p></div></div>","none","100","test","","","","","","","","",""
"-1","-1","poldrack-single-stim","78","151229","0.0-43.0","pilot-38_ses-01","","400","0","fixation","<div class = centerbox><div class = ANT_text>+</div></div>","none","400","test","","","","","","","","",""
"686","71","poldrack-single-stim","79","153340","0.0-44.0","pilot-38_ses-01","","2100.272","0","stim","<div class = centerbox><div class = ANT_text>+</div></div><div class = ANT_down><img class = ""ANT_img first"" src = /static/experiments/attention_network_task/images/left_arrow.png></img><img class = ANT_img src = /static/experiments/attention_network_task/images/left_arrow.png></img><img class = ANT_img src = /static/experiments/attention_network_task/images/right_arrow.png></img><img class = ANT_img src = /static/experiments/attention_network_task/images/left_arrow.png></img><img class = ANT_img src = /static/experiments/attention_network_task/images/left_arrow.png></img></div></div>","89,71","1700","test","true","71","","right","incongruent","down","spatial","11",""
"-1","-1","poldrack-single-stim","80","153456","0.0-45.0","pilot-38_ses-01","","100","0","spatialcue","<div class = centerbox><div class = ANT_text>+</div></div><div class = centerbox><div class = ANT_down><div class = ANT_text>*</p></div></div>","none","100","test","","","","","","","","",""
"-1","-1","poldrack-single-stim","81","153872","0.0-46.0","pilot-38_ses-01","","400","0","fixation","<div class = centerbox><div class = ANT_text>+</div></div>","none","400","test","","","","","","","","",""
"688","89","poldrack-single-stim","82","155990","0.0-47.0","pilot-38_ses-01","","2100.136","0","stim","<div class = centerbox><div class = ANT_text>+</div></div><div class = ANT_down><img class = ""ANT_img first"" src = /static/experiments/attention_network_task/images/right_arrow.png></img><img class = ANT_img src = /static/experiments/attention_network_task/images/right_arrow.png></img><img class = ANT_img src = /static/experiments/attention_network_task/images/left_arrow.png></img><img class = ANT_img src = /static/experiments/attention_network_task/images/right_arrow.png></img><img class = ANT_img src = /static/experiments/attention_network_task/images/right_arrow.png></img></div></div>","89,71","1700","test","true","89","","left","incongruent","down","spatial","12",""
"-1","-1","poldrack-single-stim","83","156105","0.0-48.0","pilot-38_ses-01","","100","0","spatialcue","<div class = centerbox><div class = ANT_text>+</div></div><div class = centerbox><div class = ANT_down><div class = ANT_text>*</p></div></div>","none","100","test","","","","","","","","",""
"-1","-1","poldrack-single-stim","84","156524","0.0-49.0","pilot-38_ses-01","","400","0","fixation","<div class = centerbox><div class = ANT_text>+</div></div>","none","400","test","","","","","","","","",""
"719","71","poldrack-single-stim","85","158647","0.0-50.0","pilot-38_ses-01","","2100.408","0","stim","<div class = centerbox><div class = ANT_text>+</div></div><div class = ANT_down><img class = ""ANT_img first"" src = /static/experiments/attention_network_task/images/left_arrow.png></img><img class = ANT_img src = /static/experiments/attention_network_task/images/left_arrow.png></img><img class = ANT_img src = /static/experiments/attention_network_task/images/right_arrow.png></img><img class = ANT_img src = /static/experiments/attention_network_task/images/left_arrow.png></img><img class = ANT_img src = /static/experiments/attention_network_task/images/left_arrow.png></img></div></div>","89,71","1700","test","true","71","","right","incongruent","down","spatial","13",""
"-1","-1","poldrack-single-stim","86","158769","0.0-51.0","pilot-38_ses-01","","100","0","doublecue","<div class = centerbox><div class = ANT_text>+</div></div><div class = ANT_down><div class = ANT_text>*</div></div><div class = ANT_up><div class = ANT_text>*</div><div></div>","none","100","test","","","","","","","","",""
"-1","-1","poldrack-single-stim","87","159184","0.0-52.0","pilot-38_ses-01","","400","0","fixation","<div class = centerbox><div class = ANT_text>+</div></div>","none","400","test","","","","","","","","",""
"1049","71","poldrack-single-stim","88","161293","0.0-53.0","pilot-38_ses-01","","2100","0","stim","<div class = centerbox><div class = ANT_text>+</div></div><div class = ANT_down><img class = ""ANT_img first"" src = /static/experiments/attention_network_task/images/left_arrow.png></img><img class = ANT_img src = /static/experiments/attention_network_task/images/left_arrow.png></img><img class = ANT_img src = /static/experiments/attention_network_task/images/right_arrow.png></img><img class = ANT_img src = /static/experiments/attention_network_task/images/left_arrow.png></img><img class = ANT_img src = /static/experiments/attention_network_task/images/left_arrow.png></img></div></div>","89,71","1700","test","true","71","","right","incongruent","down","double","14",""
"-1","-1","poldrack-single-stim","89","161412","0.0-54.0","pilot-38_ses-01","","100","0","doublecue","<div class = centerbox><div class = ANT_text>+</div></div><div class = ANT_down><div class = ANT_text>*</div></div><div class = ANT_up><div class = ANT_text>*</div><div></div>","none","100","test","","","","","","","","",""
"-1","-1","poldrack-single-stim","90","161828","0.0-55.0","pilot-38_ses-01","","400","0","fixation","<div class = centerbox><div class = ANT_text>+</div></div>","none","400","test","","","","","","","","",""
"695","89","poldrack-single-stim","91","163934","0.0-56.0","pilot-38_ses-01","","2100.136","0","stim","<div class = centerbox><div class = ANT_text>+</div></div><div class = ANT_up><img class = ""ANT_img first"" src = /static/experiments/attention_network_task/images/left_arrow.png></img><img class = ANT_img src = /static/experiments/attention_network_task/images/left_arrow.png></img><img class = ANT_img src = /static/experiments/attention_network_task/images/left_arrow.png></img><img class = ANT_img src = /static/experiments/attention_network_task/images/left_arrow.png></img><img class = ANT_img src = /static/experiments/attention_network_task/images/left_arrow.png></img></div></div>","89,71","1700","test","true","89","","left","congruent","up","double","15",""
"-1","-1","poldrack-single-stim","92","164051","0.0-57.0","pilot-38_ses-01","","100","0","spatialcue","<div class = centerbox><div class = ANT_text>+</div></div><div class = centerbox><div class = ANT_up><div class = ANT_text>*</p></div></div>","none","100","test","","","","","","","","",""
"-1","-1","poldrack-single-stim","93","164467","0.0-58.0","pilot-38_ses-01","","400","0","fixation","<div class = centerbox><div class = ANT_text>+</div></div>","none","400","test","","","","","","","","",""
"729","71","poldrack-single-stim","94","166579","0.0-59.0","pilot-38_ses-01","","2100","0","stim","<div class = centerbox><div class = ANT_text>+</div></div><div class = ANT_up><img class = ""ANT_img first"" src = /static/experiments/attention_network_task/images/right_arrow.png></img><img class = ANT_img src = /static/experiments/attention_network_task/images/right_arrow.png></img><img class = ANT_img src = /static/experiments/attention_network_task/images/right_arrow.png></img><img class = ANT_img src = /static/experiments/attention_network_task/images/right_arrow.png></img><img class = ANT_img src = /static/experiments/attention_network_task/images/right_arrow.png></img></div></div>","89,71","1700","test","true","71","","right","congruent","up","spatial","16",""
"-1","-1","poldrack-single-stim","95","166702","0.0-60.0","pilot-38_ses-01","","100","0","doublecue","<div class = centerbox><div class = ANT_text>+</div></div><div class = ANT_down><div class = ANT_text>*</div></div><div class = ANT_up><div class = ANT_text>*</div><div></div>","none","100","test","","","","","","","","",""
"-1","-1","poldrack-single-stim","96","167119","0.0-61.0","pilot-38_ses-01","","400","0","fixation","<div class = centerbox><div class = ANT_text>+</div></div>","none","400","test","","","","","","","","",""
"685","71","poldrack-single-stim","97","169239","0.0-62.0","pilot-38_ses-01","","2100.136","0","stim","<div class = centerbox><div class = ANT_text>+</div></div><div class = ANT_down><img class = ""ANT_img first"" src = /static/experiments/attention_network_task/images/left_arrow.png></img><img class = ANT_img src = /static/experiments/attention_network_task/images/left_arrow.png></img><img class = ANT_img src = /static/experiments/attention_network_task/images/right_arrow.png></img><img class = ANT_img src = /static/experiments/attention_network_task/images/left_arrow.png></img><img class = ANT_img src = /static/experiments/attention_network_task/images/left_arrow.png></img></div></div>","89,71","1700","test","true","71","","right","incongruent","down","double","17",""
"-1","-1","poldrack-single-stim","98","169369","0.0-63.0","pilot-38_ses-01","","100","0","spatialcue","<div class = centerbox><div class = ANT_text>+</div></div><div class = centerbox><div class = ANT_up><div class = ANT_text>*</p></div></div>","none","100","test","","","","","","","","",""
"-1","-1","poldrack-single-stim","99","169788","0.0-64.0","pilot-38_ses-01","","400","0","fixation","<div class = centerbox><div class = ANT_text>+</div></div>","none","400","test","","","","","","","","",""
"562","89","poldrack-single-stim","100","171914","0.0-65.0","pilot-38_ses-01","","2100.952","0","stim","<div class = centerbox><div class = ANT_text>+</div></div><div class = ANT_up><img class = ""ANT_img first"" src = /static/experiments/attention_network_task/images/left_arrow.png></img><img class = ANT_img src = /static/experiments/attention_network_task/images/left_arrow.png></img><img class = ANT_img src = /static/experiments/attention_network_task/images/left_arrow.png></img><img class = ANT_img src = /static/experiments/attention_network_task/images/left_arrow.png></img><img class = ANT_img src = /static/experiments/attention_network_task/images/left_arrow.png></img></div></div>","89,71","1700","test","true","89","","left","congruent","up","spatial","18",""
"-1","-1","poldrack-single-stim","101","172044","0.0-66.0","pilot-38_ses-01","","100","0","doublecue","<div class = centerbox><div class = ANT_text>+</div></div><div class = ANT_down><div class = ANT_text>*</div></div><div class = ANT_up><div class = ANT_text>*</div><div></div>","none","100","test","","","","","","","","",""
"-1","-1","poldrack-single-stim","102","172463","0.0-67.0","pilot-38_ses-01","","400","0","fixation","<div class = centerbox><div class = ANT_text>+</div></div>","none","400","test","","","","","","","","",""
"515","89","poldrack-single-stim","103","174582","0.0-68.0","pilot-38_ses-01","","2100.272","0","stim","<div class = centerbox><div class = ANT_text>+</div></div><div class = ANT_down><img class = ""ANT_img first"" src = /static/experiments/attention_network_task/images/left_arrow.png></img><img class = ANT_img src = /static/experiments/attention_network_task/images/left_arrow.png></img><img class = ANT_img src = /static/experiments/attention_network_task/images/left_arrow.png></img><img class = ANT_img src = /static/experiments/attention_network_task/images/left_arrow.png></img><img class = ANT_img src = /static/experiments/attention_network_task/images/left_arrow.png></img></div></div>","89,71","1700","test","true","89","","left","congruent","down","double","19",""
"-1","-1","poldrack-single-stim","104","174718","0.0-69.0","pilot-38_ses-01","","100","0","doublecue","<div class = centerbox><div class = ANT_text>+</div></div><div class = ANT_down><div class = ANT_text>*</div></div><div class = ANT_up><div class = ANT_text>*</div><div></div>","none","100","test","","","","","","","","",""
"-1","-1","poldrack-single-stim","105","175136","0.0-70.0","pilot-38_ses-01","","400","0","fixation","<div class = centerbox><div class = ANT_text>+</div></div>","none","400","test","","","","","","","","",""
"858","71","poldrack-single-stim","106","177242","0.0-71.0","pilot-38_ses-01","","2100.136","0","stim","<div class = centerbox><div class = ANT_text>+</div></div><div class = ANT_up><img class = ""ANT_img first"" src = /static/experiments/attention_network_task/images/right_arrow.png></img><img class = ANT_img src = /static/experiments/attention_network_task/images/right_arrow.png></img><img class = ANT_img src = /static/experiments/attention_network_task/images/right_arrow.png></img><img class = ANT_img src = /static/experiments/attention_network_task/images/right_arrow.png></img><img class = ANT_img src = /static/experiments/attention_network_task/images/right_arrow.png></img></div></div>","89,71","1700","test","true","71","","right","congruent","up","double","20",""
"-1","-1","poldrack-single-stim","107","177372","0.0-72.0","pilot-38_ses-01","","100","0","doublecue","<div class = centerbox><div class = ANT_text>+</div></div><div class = ANT_down><div class = ANT_text>*</div></div><div class = ANT_up><div class = ANT_text>*</div><div></div>","none","100","test","","","","","","","","",""
"-1","-1","poldrack-single-stim","108","177777","0.0-73.0","pilot-38_ses-01","","400","0","fixation","<div class = centerbox><div class = ANT_text>+</div></div>","none","400","test","","","","","","","","",""
"996","71","poldrack-single-stim","109","179883","0.0-74.0","pilot-38_ses-01","","2100","0","stim","<div class = centerbox><div class = ANT_text>+</div></div><div class = ANT_up><img class = ""ANT_img first"" src = /static/experiments/attention_network_task/images/left_arrow.png></img><img class = ANT_img src = /static/experiments/attention_network_task/images/left_arrow.png></img><img class = ANT_img src = /static/experiments/attention_network_task/images/right_arrow.png></img><img class = ANT_img src = /static/experiments/attention_network_task/images/left_arrow.png></img><img class = ANT_img src = /static/experiments/attention_network_task/images/left_arrow.png></img></div></div>","89,71","1700","test","true","71","","right","incongruent","up","double","21",""
"-1","-1","poldrack-single-stim","110","180014","0.0-75.0","pilot-38_ses-01","","100","0","spatialcue","<div class = centerbox><div class = ANT_text>+</div></div><div class = centerbox><div class = ANT_up><div class = ANT_text>*</p></div></div>","none","100","test","","","","","","","","",""
"-1","-1","poldrack-single-stim","111","180440","0.0-76.0","pilot-38_ses-01","","400","0","fixation","<div class = centerbox><div class = ANT_text>+</div></div>","none","400","test","","","","","","","","",""
"779","71","poldrack-single-stim","112","182562","0.0-77.0","pilot-38_ses-01","","2100.136","0","stim","<div class = centerbox><div class = ANT_text>+</div></div><div class = ANT_up><img class = ""ANT_img first"" src = /static/experiments/attention_network_task/images/left_arrow.png></img><img class = ANT_img src = /static/experiments/attention_network_task/images/left_arrow.png></img><img class = ANT_img src = /static/experiments/attention_network_task/images/right_arrow.png></img><img class = ANT_img src = /static/experiments/attention_network_task/images/left_arrow.png></img><img class = ANT_img src = /static/experiments/attention_network_task/images/left_arrow.png></img></div></div>","89,71","1700","test","true","71","","right","incongruent","up","spatial","22",""
"-1","-1","poldrack-single-stim","113","182679","0.0-78.0","pilot-38_ses-01","","100","0","doublecue","<div class = centerbox><div class = ANT_text>+</div></div><div class = ANT_down><div class = ANT_text>*</div></div><div class = ANT_up><div class = ANT_text>*</div><div></div>","none","100","test","","","","","","","","",""
"-1","-1","poldrack-single-stim","114","183097","0.0-79.0","pilot-38_ses-01","","400","0","fixation","<div class = centerbox><div class = ANT_text>+</div></div>","none","400","test","","","","","","","","",""
"560","89","poldrack-single-stim","115","185213","0.0-80.0","pilot-38_ses-01","","2100","0","stim","<div class = centerbox><div class = ANT_text>+</div></div><div class = ANT_down><img class = ""ANT_img first"" src = /static/experiments/attention_network_task/images/left_arrow.png></img><img class = ANT_img src = /static/experiments/attention_network_task/images/left_arrow.png></img><img class = ANT_img src = /static/experiments/attention_network_task/images/left_arrow.png></img><img class = ANT_img src = /static/experiments/attention_network_task/images/left_arrow.png></img><img class = ANT_img src = /static/experiments/attention_network_task/images/left_arrow.png></img></div></div>","89,71","1700","test","true","89","","left","congruent","down","double","23",""
"-1","-1","poldrack-single-stim","116","185331","0.0-81.0","pilot-38_ses-01","","100","0","spatialcue","<div class = centerbox><div class = ANT_text>+</div></div><div class = centerbox><div class = ANT_down><div class = ANT_text>*</p></div></div>","none","100","test","","","","","","","","",""
"-1","-1","poldrack-single-stim","117","185746","0.0-82.0","pilot-38_ses-01","","400","0","fixation","<div class = centerbox><div class = ANT_text>+</div></div>","none","400","test","","","","","","","","",""
"801","71","poldrack-single-stim","118","187864","0.0-83.0","pilot-38_ses-01","","2100.136","0","stim","<div class = centerbox><div class = ANT_text>+</div></div><div class = ANT_down><img class = ""ANT_img first"" src = /static/experiments/attention_network_task/images/left_arrow.png></img><img class = ANT_img src = /static/experiments/attention_network_task/images/left_arrow.png></img><img class = ANT_img src = /static/experiments/attention_network_task/images/right_arrow.png></img><img class = ANT_img src = /static/experiments/attention_network_task/images/left_arrow.png></img><img class = ANT_img src = /static/experiments/attention_network_task/images/left_arrow.png></img></div></div>","89,71","1700","test","true","71","","right","incongruent","down","spatial","24",""
"-1","-1","poldrack-single-stim","119","187979","0.0-84.0","pilot-38_ses-01","","100","0","doublecue","<div class = centerbox><div class = ANT_text>+</div></div><div class = ANT_down><div class = ANT_text>*</div></div><div class = ANT_up><div class = ANT_text>*</div><div></div>","none","100","test","","","","","","","","",""
"-1","-1","poldrack-single-stim","120","188401","0.0-85.0","pilot-38_ses-01","","400","0","fixation","<div class = centerbox><div class = ANT_text>+</div></div>","none","400","test","","","","","","","","",""
"824","89","poldrack-single-stim","121","190508","0.0-86.0","pilot-38_ses-01","","2100.272","0","stim","<div class = centerbox><div class = ANT_text>+</div></div><div class = ANT_up><img class = ""ANT_img first"" src = /static/experiments/attention_network_task/images/right_arrow.png></img><img class = ANT_img src = /static/experiments/attention_network_task/images/right_arrow.png></img><img class = ANT_img src = /static/experiments/attention_network_task/images/left_arrow.png></img><img class = ANT_img src = /static/experiments/attention_network_task/images/right_arrow.png></img><img class = ANT_img src = /static/experiments/attention_network_task/images/right_arrow.png></img></div></div>","89,71","1700","test","true","89","","left","incongruent","up","double","25",""
"-1","-1","poldrack-single-stim","122","190637","0.0-87.0","pilot-38_ses-01","","100","0","spatialcue","<div class = centerbox><div class = ANT_text>+</div></div><div class = centerbox><div class = ANT_up><div class = ANT_text>*</p></div></div>","none","100","test","","","","","","","","",""
"-1","-1","poldrack-single-stim","123","191055","0.0-88.0","pilot-38_ses-01","","400","0","fixation","<div class = centerbox><div class = ANT_text>+</div></div>","none","400","test","","","","","","","","",""
"692","71","poldrack-single-stim","124","193162","0.0-89.0","pilot-38_ses-01","","2100.272","0","stim","<div class = centerbox><div class = ANT_text>+</div></div><div class = ANT_up><img class = ""ANT_img first"" src = /static/experiments/attention_network_task/images/left_arrow.png></img><img class = ANT_img src = /static/experiments/attention_network_task/images/left_arrow.png></img><img class = ANT_img src = /static/experiments/attention_network_task/images/right_arrow.png></img><img class = ANT_img src = /static/experiments/attention_network_task/images/left_arrow.png></img><img class = ANT_img src = /static/experiments/attention_network_task/images/left_arrow.png></img></div></div>","89,71","1700","test","true","71","","right","incongruent","up","spatial","26",""
"-1","-1","poldrack-single-stim","125","193278","0.0-90.0","pilot-38_ses-01","","100","0","doublecue","<div class = centerbox><div class = ANT_text>+</div></div><div class = ANT_down><div class = ANT_text>*</div></div><div class = ANT_up><div class = ANT_text>*</div><div></div>","none","100","test","","","","","","","","",""
"-1","-1","poldrack-single-stim","126","193695","0.0-91.0","pilot-38_ses-01","","400","0","fixation","<div class = centerbox><div class = ANT_text>+</div></div>","none","400","test","","","","","","","","",""
"928","89","poldrack-single-stim","127","195819","0.0-92.0","pilot-38_ses-01","","2100.136","0","stim","<div class = centerbox><div class = ANT_text>+</div></div><div class = ANT_up><img class = ""ANT_img first"" src = /static/experiments/attention_network_task/images/left_arrow.png></img><img class = ANT_img src = /static/experiments/attention_network_task/images/left_arrow.png></img><img class = ANT_img src = /static/experiments/attention_network_task/images/left_arrow.png></img><img class = ANT_img src = /static/experiments/attention_network_task/images/left_arrow.png></img><img class = ANT_img src = /static/experiments/attention_network_task/images/left_arrow.png></img></div></div>","89,71","1700","test","true","89","","left","congruent","up","double","27",""
"-1","-1","poldrack-single-stim","128","195938","0.0-93.0","pilot-38_ses-01","","100","0","doublecue","<div class = centerbox><div class = ANT_text>+</div></div><div class = ANT_down><div class = ANT_text>*</div></div><div class = ANT_up><div class = ANT_text>*</div><div></div>","none","100","test","","","","","","","","",""
"-1","-1","poldrack-single-stim","129","196357","0.0-94.0","pilot-38_ses-01","","400","0","fixation","<div class = centerbox><div class = ANT_text>+</div></div>","none","400","test","","","","","","","","",""
"666","71","poldrack-single-stim","130","198479","0.0-95.0","pilot-38_ses-01","","2100","0","stim","<div class = centerbox><div class = ANT_text>+</div></div><div class = ANT_up><img class = ""ANT_img first"" src = /static/experiments/attention_network_task/images/left_arrow.png></img><img class = ANT_img src = /static/experiments/attention_network_task/images/left_arrow.png></img><img class = ANT_img src = /static/experiments/attention_network_task/images/right_arrow.png></img><img class = ANT_img src = /static/experiments/attention_network_task/images/left_arrow.png></img><img class = ANT_img src = /static/experiments/attention_network_task/images/left_arrow.png></img></div></div>","89,71","1700","test","true","71","","right","incongruent","up","double","28",""
"-1","-1","poldrack-single-stim","131","198608","0.0-96.0","pilot-38_ses-01","","100","0","doublecue","<div class = centerbox><div class = ANT_text>+</div></div><div class = ANT_down><div class = ANT_text>*</div></div><div class = ANT_up><div class = ANT_text>*</div><div></div>","none","100","test","","","","","","","","",""
"-1","-1","poldrack-single-stim","132","199032","0.0-97.0","pilot-38_ses-01","","400","0","fixation","<div class = centerbox><div class = ANT_text>+</div></div>","none","400","test","","","","","","","","",""
"693","89","poldrack-single-stim","133","201140","0.0-98.0","pilot-38_ses-01","","2100.136","0","stim","<div class = centerbox><div class = ANT_text>+</div></div><div class = ANT_down><img class = ""ANT_img first"" src = /static/experiments/attention_network_task/images/right_arrow.png></img><img class = ANT_img src = /static/experiments/attention_network_task/images/right_arrow.png></img><img class = ANT_img src = /static/experiments/attention_network_task/images/left_arrow.png></img><img class = ANT_img src = /static/experiments/attention_network_task/images/right_arrow.png></img><img class = ANT_img src = /static/experiments/attention_network_task/images/right_arrow.png></img></div></div>","89,71","1700","test","true","89","","left","incongruent","down","double","29",""
"-1","-1","poldrack-single-stim","134","201257","0.0-99.0","pilot-38_ses-01","","100","0","spatialcue","<div class = centerbox><div class = ANT_text>+</div></div><div class = centerbox><div class = ANT_up><div class = ANT_text>*</p></div></div>","none","100","test","","","","","","","","",""
"-1","-1","poldrack-single-stim","135","201692","0.0-100.0","pilot-38_ses-01","","400","0","fixation","<div class = centerbox><div class = ANT_text>+</div></div>","none","400","test","","","","","","","","",""
"928","89","poldrack-single-stim","136","203815","0.0-101.0","pilot-38_ses-01","","2100","0","stim","<div class = centerbox><div class = ANT_text>+</div></div><div class = ANT_up><img class = ""ANT_img first"" src = /static/experiments/attention_network_task/images/left_arrow.png></img><img class = ANT_img src = /static/experiments/attention_network_task/images/left_arrow.png></img><img class = ANT_img src = /static/experiments/attention_network_task/images/left_arrow.png></img><img class = ANT_img src = /static/experiments/attention_network_task/images/left_arrow.png></img><img class = ANT_img src = /static/experiments/attention_network_task/images/left_arrow.png></img></div></div>","89,71","1700","test","true","89","","left","congruent","up","spatial","30",""
"-1","-1","poldrack-single-stim","137","203931","0.0-102.0","pilot-38_ses-01","","100","0","doublecue","<div class = centerbox><div class = ANT_text>+</div></div><div class = ANT_down><div class = ANT_text>*</div></div><div class = ANT_up><div class = ANT_text>*</div><div></div>","none","100","test","","","","","","","","",""
"-1","-1","poldrack-single-stim","138","204357","0.0-103.0","pilot-38_ses-01","","400","0","fixation","<div class = centerbox><div class = ANT_text>+</div></div>","none","400","test","","","","","","","","",""
"720","71","poldrack-single-stim","139","206482","0.0-104.0","pilot-38_ses-01","","2100.272","0","stim","<div class = centerbox><div class = ANT_text>+</div></div><div class = ANT_down><img class = ""ANT_img first"" src = /static/experiments/attention_network_task/images/right_arrow.png></img><img class = ANT_img src = /static/experiments/attention_network_task/images/right_arrow.png></img><img class = ANT_img src = /static/experiments/attention_network_task/images/right_arrow.png></img><img class = ANT_img src = /static/experiments/attention_network_task/images/right_arrow.png></img><img class = ANT_img src = /static/experiments/attention_network_task/images/right_arrow.png></img></div></div>","89,71","1700","test","true","71","","right","congruent","down","double","31",""
"-1","-1","poldrack-single-stim","140","206615","0.0-105.0","pilot-38_ses-01","","100","0","spatialcue","<div class = centerbox><div class = ANT_text>+</div></div><div class = centerbox><div class = ANT_down><div class = ANT_text>*</p></div></div>","none","100","test","","","","","","","","",""
"-1","-1","poldrack-single-stim","141","207028","0.0-106.0","pilot-38_ses-01","","400","0","fixation","<div class = centerbox><div class = ANT_text>+</div></div>","none","400","test","","","","","","","","",""
"615","89","poldrack-single-stim","142","209151","0.0-107.0","pilot-38_ses-01","","2100","0","stim","<div class = centerbox><div class = ANT_text>+</div></div><div class = ANT_down><img class = ""ANT_img first"" src = /static/experiments/attention_network_task/images/right_arrow.png></img><img class = ANT_img src = /static/experiments/attention_network_task/images/right_arrow.png></img><img class = ANT_img src = /static/experiments/attention_network_task/images/left_arrow.png></img><img class = ANT_img src = /static/experiments/attention_network_task/images/right_arrow.png></img><img class = ANT_img src = /static/experiments/attention_network_task/images/right_arrow.png></img></div></div>","89,71","1700","test","true","89","","left","incongruent","down","spatial","32",""
"-1","-1","poldrack-single-stim","143","209275","0.0-108.0","pilot-38_ses-01","","100","0","spatialcue","<div class = centerbox><div class = ANT_text>+</div></div><div class = centerbox><div class = ANT_up><div class = ANT_text>*</p></div></div>","none","100","test","","","","","","","","",""
"-1","-1","poldrack-single-stim","144","209693","0.0-109.0","pilot-38_ses-01","","400","0","fixation","<div class = centerbox><div class = ANT_text>+</div></div>","none","400","test","","","","","","","","",""
"685","89","poldrack-single-stim","145","211816","0.0-110.0","pilot-38_ses-01","","2100","0","stim","<div class = centerbox><div class = ANT_text>+</div></div><div class = ANT_up><img class = ""ANT_img first"" src = /static/experiments/attention_network_task/images/right_arrow.png></img><img class = ANT_img src = /static/experiments/attention_network_task/images/right_arrow.png></img><img class = ANT_img src = /static/experiments/attention_network_task/images/left_arrow.png></img><img class = ANT_img src = /static/experiments/attention_network_task/images/right_arrow.png></img><img class = ANT_img src = /static/experiments/attention_network_task/images/right_arrow.png></img></div></div>","89,71","1700","test","true","89","","left","incongruent","up","spatial","33",""
"-1","-1","poldrack-single-stim","146","211947","0.0-111.0","pilot-38_ses-01","","100","0","spatialcue","<div class = centerbox><div class = ANT_text>+</div></div><div class = centerbox><div class = ANT_down><div class = ANT_text>*</p></div></div>","none","100","test","","","","","","","","",""
"-1","-1","poldrack-single-stim","147","212366","0.0-112.0","pilot-38_ses-01","","400","0","fixation","<div class = centerbox><div class = ANT_text>+</div></div>","none","400","test","","","","","","","","",""
"601","89","poldrack-single-stim","148","214490","0.0-113.0","pilot-38_ses-01","","2100.136","0","stim","<div class = centerbox><div class = ANT_text>+</div></div><div class = ANT_down><img class = ""ANT_img first"" src = /static/experiments/attention_network_task/images/left_arrow.png></img><img class = ANT_img src = /static/experiments/attention_network_task/images/left_arrow.png></img><img class = ANT_img src = /static/experiments/attention_network_task/images/left_arrow.png></img><img class = ANT_img src = /static/experiments/attention_network_task/images/left_arrow.png></img><img class = ANT_img src = /static/experiments/attention_network_task/images/left_arrow.png></img></div></div>","89,71","1700","test","true","89","","left","congruent","down","spatial","34",""
"-1","-1","poldrack-single-stim","149","214620","0.0-114.0","pilot-38_ses-01","","100","0","spatialcue","<div class = centerbox><div class = ANT_text>+</div></div><div class = centerbox><div class = ANT_up><div class = ANT_text>*</p></div></div>","none","100","test","","","","","","","","",""
"-1","-1","poldrack-single-stim","150","215038","0.0-115.0","pilot-38_ses-01","","400","0","fixation","<div class = centerbox><div class = ANT_text>+</div></div>","none","400","test","","","","","","","","",""
"862","71","poldrack-single-stim","151","217147","0.0-116.0","pilot-38_ses-01","","2100.272","0","stim","<div class = centerbox><div class = ANT_text>+</div></div><div class = ANT_up><img class = ""ANT_img first"" src = /static/experiments/attention_network_task/images/right_arrow.png></img><img class = ANT_img src = /static/experiments/attention_network_task/images/right_arrow.png></img><img class = ANT_img src = /static/experiments/attention_network_task/images/right_arrow.png></img><img class = ANT_img src = /static/experiments/attention_network_task/images/right_arrow.png></img><img class = ANT_img src = /static/experiments/attention_network_task/images/right_arrow.png></img></div></div>","89,71","1700","test","true","71","","right","congruent","up","spatial","35",""
"-1","-1","poldrack-single-stim","152","217262","0.0-117.0","pilot-38_ses-01","","100","0","doublecue","<div class = centerbox><div class = ANT_text>+</div></div><div class = ANT_down><div class = ANT_text>*</div></div><div class = ANT_up><div class = ANT_text>*</div><div></div>","none","100","test","","","","","","","","",""
"-1","-1","poldrack-single-stim","153","217668","0.0-118.0","pilot-38_ses-01","","400","0","fixation","<div class = centerbox><div class = ANT_text>+</div></div>","none","400","test","","","","","","","","",""
"771","71","poldrack-single-stim","154","219793","0.0-119.0","pilot-38_ses-01","","2100.408","0","stim","<div class = centerbox><div class = ANT_text>+</div></div><div class = ANT_down><img class = ""ANT_img first"" src = /static/experiments/attention_network_task/images/left_arrow.png></img><img class = ANT_img src = /static/experiments/attention_network_task/images/left_arrow.png></img><img class = ANT_img src = /static/experiments/attention_network_task/images/right_arrow.png></img><img class = ANT_img src = /static/experiments/attention_network_task/images/left_arrow.png></img><img class = ANT_img src = /static/experiments/attention_network_task/images/left_arrow.png></img></div></div>","89,71","1700","test","true","71","","right","incongruent","down","double","36",""
"-1","-1","poldrack-single-stim","155","219916","0.0-120.0","pilot-38_ses-01","","100","0","doublecue","<div class = centerbox><div class = ANT_text>+</div></div><div class = ANT_down><div class = ANT_text>*</div></div><div class = ANT_up><div class = ANT_text>*</div><div></div>","none","100","test","","","","","","","","",""
"-1","-1","poldrack-single-stim","156","220333","0.0-121.0","pilot-38_ses-01","","400","0","fixation","<div class = centerbox><div class = ANT_text>+</div></div>","none","400","test","","","","","","","","",""
"613","71","poldrack-single-stim","157","222437","0.0-122.0","pilot-38_ses-01","","2100","0","stim","<div class = centerbox><div class = ANT_text>+</div></div><div class = ANT_down><img class = ""ANT_img first"" src = /static/experiments/attention_network_task/images/right_arrow.png></img><img class = ANT_img src = /static/experiments/attention_network_task/images/right_arrow.png></img><img class = ANT_img src = /static/experiments/attention_network_task/images/right_arrow.png></img><img class = ANT_img src = /static/experiments/attention_network_task/images/right_arrow.png></img><img class = ANT_img src = /static/experiments/attention_network_task/images/right_arrow.png></img></div></div>","89,71","1700","test","true","71","","right","congruent","down","double","37",""
"-1","-1","poldrack-single-stim","158","222570","0.0-123.0","pilot-38_ses-01","","100","0","doublecue","<div class = centerbox><div class = ANT_text>+</div></div><div class = ANT_down><div class = ANT_text>*</div></div><div class = ANT_up><div class = ANT_text>*</div><div></div>","none","100","test","","","","","","","","",""
"-1","-1","poldrack-single-stim","159","222987","0.0-124.0","pilot-38_ses-01","","400","0","fixation","<div class = centerbox><div class = ANT_text>+</div></div>","none","400","test","","","","","","","","",""
"640","89","poldrack-single-stim","160","225098","0.0-125.0","pilot-38_ses-01","","2100.136","0","stim","<div class = centerbox><div class = ANT_text>+</div></div><div class = ANT_up><img class = ""ANT_img first"" src = /static/experiments/attention_network_task/images/left_arrow.png></img><img class = ANT_img src = /static/experiments/attention_network_task/images/left_arrow.png></img><img class = ANT_img src = /static/experiments/attention_network_task/images/left_arrow.png></img><img class = ANT_img src = /static/experiments/attention_network_task/images/left_arrow.png></img><img class = ANT_img src = /static/experiments/attention_network_task/images/left_arrow.png></img></div></div>","89,71","1700","test","true","89","","left","congruent","up","double","38",""
"-1","-1","poldrack-single-stim","161","225229","0.0-126.0","pilot-38_ses-01","","100","0","spatialcue","<div class = centerbox><div class = ANT_text>+</div></div><div class = centerbox><div class = ANT_down><div class = ANT_text>*</p></div></div>","none","100","test","","","","","","","","",""
"-1","-1","poldrack-single-stim","162","225656","0.0-127.0","pilot-38_ses-01","","400","0","fixation","<div class = centerbox><div class = ANT_text>+</div></div>","none","400","test","","","","","","","","",""
"682","71","poldrack-single-stim","163","227777","0.0-128.0","pilot-38_ses-01","","2100.136","0","stim","<div class = centerbox><div class = ANT_text>+</div></div><div class = ANT_down><img class = ""ANT_img first"" src = /static/experiments/attention_network_task/images/right_arrow.png></img><img class = ANT_img src = /static/experiments/attention_network_task/images/right_arrow.png></img><img class = ANT_img src = /static/experiments/attention_network_task/images/right_arrow.png></img><img class = ANT_img src = /static/experiments/attention_network_task/images/right_arrow.png></img><img class = ANT_img src = /static/experiments/attention_network_task/images/right_arrow.png></img></div></div>","89,71","1700","test","true","71","","right","congruent","down","spatial","39",""
"-1","-1","poldrack-single-stim","164","227894","0.0-129.0","pilot-38_ses-01","","100","0","doublecue","<div class = centerbox><div class = ANT_text>+</div></div><div class = ANT_down><div class = ANT_text>*</div></div><div class = ANT_up><div class = ANT_text>*</div><div></div>","none","100","test","","","","","","","","",""
"-1","-1","poldrack-single-stim","165","228309","0.0-130.0","pilot-38_ses-01","","400","0","fixation","<div class = centerbox><div class = ANT_text>+</div></div>","none","400","test","","","","","","","","",""
"662","71","poldrack-single-stim","166","230431","0.0-131.0","pilot-38_ses-01","","2100","0","stim","<div class = centerbox><div class = ANT_text>+</div></div><div class = ANT_up><img class = ""ANT_img first"" src = /static/experiments/attention_network_task/images/right_arrow.png></img><img class = ANT_img src = /static/experiments/attention_network_task/images/right_arrow.png></img><img class = ANT_img src = /static/experiments/attention_network_task/images/right_arrow.png></img><img class = ANT_img src = /static/experiments/attention_network_task/images/right_arrow.png></img><img class = ANT_img src = /static/experiments/attention_network_task/images/right_arrow.png></img></div></div>","89,71","1700","test","true","71","","right","congruent","up","double","40",""
"-1","-1","poldrack-single-stim","167","230554","0.0-132.0","pilot-38_ses-01","","100","0","doublecue","<div class = centerbox><div class = ANT_text>+</div></div><div class = ANT_down><div class = ANT_text>*</div></div><div class = ANT_up><div class = ANT_text>*</div><div></div>","none","100","test","","","","","","","","",""
"-1","-1","poldrack-single-stim","168","230969","0.0-133.0","pilot-38_ses-01","","400","0","fixation","<div class = centerbox><div class = ANT_text>+</div></div>","none","400","test","","","","","","","","",""
"665","89","poldrack-single-stim","169","233082","0.0-134.0","pilot-38_ses-01","","2100.408","0","stim","<div class = centerbox><div class = ANT_text>+</div></div><div class = ANT_up><img class = ""ANT_img first"" src = /static/experiments/attention_network_task/images/right_arrow.png></img><img class = ANT_img src = /static/experiments/attention_network_task/images/right_arrow.png></img><img class = ANT_img src = /static/experiments/attention_network_task/images/left_arrow.png></img><img class = ANT_img src = /static/experiments/attention_network_task/images/right_arrow.png></img><img class = ANT_img src = /static/experiments/attention_network_task/images/right_arrow.png></img></div></div>","89,71","1700","test","true","89","","left","incongruent","up","double","41",""
"-1","-1","poldrack-single-stim","170","233213","0.0-135.0","pilot-38_ses-01","","100","0","spatialcue","<div class = centerbox><div class = ANT_text>+</div></div><div class = centerbox><div class = ANT_up><div class = ANT_text>*</p></div></div>","none","100","test","","","","","","","","",""
"-1","-1","poldrack-single-stim","171","233633","0.0-136.0","pilot-38_ses-01","","400","0","fixation","<div class = centerbox><div class = ANT_text>+</div></div>","none","400","test","","","","","","","","",""
"546","89","poldrack-single-stim","172","235749","0.0-137.0","pilot-38_ses-01","","2100.544","0","stim","<div class = centerbox><div class = ANT_text>+</div></div><div class = ANT_up><img class = ""ANT_img first"" src = /static/experiments/attention_network_task/images/left_arrow.png></img><img class = ANT_img src = /static/experiments/attention_network_task/images/left_arrow.png></img><img class = ANT_img src = /static/experiments/attention_network_task/images/left_arrow.png></img><img class = ANT_img src = /static/experiments/attention_network_task/images/left_arrow.png></img><img class = ANT_img src = /static/experiments/attention_network_task/images/left_arrow.png></img></div></div>","89,71","1700","test","true","89","","left","congruent","up","spatial","42",""
"-1","-1","poldrack-single-stim","173","235882","0.0-138.0","pilot-38_ses-01","","100","0","spatialcue","<div class = centerbox><div class = ANT_text>+</div></div><div class = centerbox><div class = ANT_down><div class = ANT_text>*</p></div></div>","none","100","test","","","","","","","","",""
"-1","-1","poldrack-single-stim","174","236305","0.0-139.0","pilot-38_ses-01","","400","0","fixation","<div class = centerbox><div class = ANT_text>+</div></div>","none","400","test","","","","","","","","",""
"552","89","poldrack-single-stim","175","238412","0.0-140.0","pilot-38_ses-01","","2100.136","0","stim","<div class = centerbox><div class = ANT_text>+</div></div><div class = ANT_down><img class = ""ANT_img first"" src = /static/experiments/attention_network_task/images/left_arrow.png></img><img class = ANT_img src = /static/experiments/attention_network_task/images/left_arrow.png></img><img class = ANT_img src = /static/experiments/attention_network_task/images/left_arrow.png></img><img class = ANT_img src = /static/experiments/attention_network_task/images/left_arrow.png></img><img class = ANT_img src = /static/experiments/attention_network_task/images/left_arrow.png></img></div></div>","89,71","1700","test","true","89","","left","congruent","down","spatial","43",""
"-1","-1","poldrack-single-stim","176","238527","0.0-141.0","pilot-38_ses-01","","100","0","spatialcue","<div class = centerbox><div class = ANT_text>+</div></div><div class = centerbox><div class = ANT_down><div class = ANT_text>*</p></div></div>","none","100","test","","","","","","","","",""
"-1","-1","poldrack-single-stim","177","238944","0.0-142.0","pilot-38_ses-01","","400","0","fixation","<div class = centerbox><div class = ANT_text>+</div></div>","none","400","test","","","","","","","","",""
"465","89","poldrack-single-stim","178","241055","0.0-143.0","pilot-38_ses-01","","2100.136","0","stim","<div class = centerbox><div class = ANT_text>+</div></div><div class = ANT_down><img class = ""ANT_img first"" src = /static/experiments/attention_network_task/images/left_arrow.png></img><img class = ANT_img src = /static/experiments/attention_network_task/images/left_arrow.png></img><img class = ANT_img src = /static/experiments/attention_network_task/images/left_arrow.png></img><img class = ANT_img src = /static/experiments/attention_network_task/images/left_arrow.png></img><img class = ANT_img src = /static/experiments/attention_network_task/images/left_arrow.png></img></div></div>","89,71","1700","test","true","89","","left","congruent","down","spatial","44",""
"-1","-1","poldrack-single-stim","179","241199","0.0-144.0","pilot-38_ses-01","","100","0","spatialcue","<div class = centerbox><div class = ANT_text>+</div></div><div class = centerbox><div class = ANT_up><div class = ANT_text>*</p></div></div>","none","100","test","","","","","","","","",""
"-1","-1","poldrack-single-stim","180","241624","0.0-145.0","pilot-38_ses-01","","400","0","fixation","<div class = centerbox><div class = ANT_text>+</div></div>","none","400","test","","","","","","","","",""
"588","71","poldrack-single-stim","181","243735","0.0-146.0","pilot-38_ses-01","","2100","0","stim","<div class = centerbox><div class = ANT_text>+</div></div><div class = ANT_up><img class = ""ANT_img first"" src = /static/experiments/attention_network_task/images/left_arrow.png></img><img class = ANT_img src = /static/experiments/attention_network_task/images/left_arrow.png></img><img class = ANT_img src = /static/experiments/attention_network_task/images/right_arrow.png></img><img class = ANT_img src = /static/experiments/attention_network_task/images/left_arrow.png></img><img class = ANT_img src = /static/experiments/attention_network_task/images/left_arrow.png></img></div></div>","89,71","1700","test","true","71","","right","incongruent","up","spatial","45",""
"-1","-1","poldrack-single-stim","182","243867","0.0-147.0","pilot-38_ses-01","","100","0","doublecue","<div class = centerbox><div class = ANT_text>+</div></div><div class = ANT_down><div class = ANT_text>*</div></div><div class = ANT_up><div class = ANT_text>*</div><div></div>","none","100","test","","","","","","","","",""
"-1","-1","poldrack-single-stim","183","244287","0.0-148.0","pilot-38_ses-01","","400","0","fixation","<div class = centerbox><div class = ANT_text>+</div></div>","none","400","test","","","","","","","","",""
"471","89","poldrack-single-stim","184","246395","0.0-149.0","pilot-38_ses-01","","2100","0","stim","<div class = centerbox><div class = ANT_text>+</div></div><div class = ANT_down><img class = ""ANT_img first"" src = /static/experiments/attention_network_task/images/left_arrow.png></img><img class = ANT_img src = /static/experiments/attention_network_task/images/left_arrow.png></img><img class = ANT_img src = /static/experiments/attention_network_task/images/left_arrow.png></img><img class = ANT_img src = /static/experiments/attention_network_task/images/left_arrow.png></img><img class = ANT_img src = /static/experiments/attention_network_task/images/left_arrow.png></img></div></div>","89,71","1700","test","true","89","","left","congruent","down","double","46",""
"-1","-1","poldrack-single-stim","185","246512","0.0-150.0","pilot-38_ses-01","","100","0","doublecue","<div class = centerbox><div class = ANT_text>+</div></div><div class = ANT_down><div class = ANT_text>*</div></div><div class = ANT_up><div class = ANT_text>*</div><div></div>","none","100","test","","","","","","","","",""
"-1","-1","poldrack-single-stim","186","246928","0.0-151.0","pilot-38_ses-01","","400","0","fixation","<div class = centerbox><div class = ANT_text>+</div></div>","none","400","test","","","","","","","","",""
"553","71","poldrack-single-stim","187","249057","0.0-152.0","pilot-38_ses-01","","2100.136","0","stim","<div class = centerbox><div class = ANT_text>+</div></div><div class = ANT_up><img class = ""ANT_img first"" src = /static/experiments/attention_network_task/images/right_arrow.png></img><img class = ANT_img src = /static/experiments/attention_network_task/images/right_arrow.png></img><img class = ANT_img src = /static/experiments/attention_network_task/images/right_arrow.png></img><img class = ANT_img src = /static/experiments/attention_network_task/images/right_arrow.png></img><img class = ANT_img src = /static/experiments/attention_network_task/images/right_arrow.png></img></div></div>","89,71","1700","test","true","71","","right","congruent","up","double","47",""
"-1","-1","poldrack-single-stim","188","249188","0.0-153.0","pilot-38_ses-01","","100","0","doublecue","<div class = centerbox><div class = ANT_text>+</div></div><div class = ANT_down><div class = ANT_text>*</div></div><div class = ANT_up><div class = ANT_text>*</div><div></div>","none","100","test","","","","","","","","",""
"-1","-1","poldrack-single-stim","189","249603","0.0-154.0","pilot-38_ses-01","","400","0","fixation","<div class = centerbox><div class = ANT_text>+</div></div>","none","400","test","","","","","","","","",""
"667","89","poldrack-single-stim","190","251724","0.0-155.0","pilot-38_ses-01","","2100","0","stim","<div class = centerbox><div class = ANT_text>+</div></div><div class = ANT_up><img class = ""ANT_img first"" src = /static/experiments/attention_network_task/images/left_arrow.png></img><img class = ANT_img src = /static/experiments/attention_network_task/images/left_arrow.png></img><img class = ANT_img src = /static/experiments/attention_network_task/images/left_arrow.png></img><img class = ANT_img src = /static/experiments/attention_network_task/images/left_arrow.png></img><img class = ANT_img src = /static/experiments/attention_network_task/images/left_arrow.png></img></div></div>","89,71","1700","test","true","89","","left","congruent","up","double","48",""
"-1","-1","poldrack-single-stim","191","251839","0.0-156.0","pilot-38_ses-01","","100","0","doublecue","<div class = centerbox><div class = ANT_text>+</div></div><div class = ANT_down><div class = ANT_text>*</div></div><div class = ANT_up><div class = ANT_text>*</div><div></div>","none","100","test","","","","","","","","",""
"-1","-1","poldrack-single-stim","192","252262","0.0-157.0","pilot-38_ses-01","","400","0","fixation","<div class = centerbox><div class = ANT_text>+</div></div>","none","400","test","","","","","","","","",""
"586","89","poldrack-single-stim","193","254372","0.0-158.0","pilot-38_ses-01","","2100.136","0","stim","<div class = centerbox><div class = ANT_text>+</div></div><div class = ANT_up><img class = ""ANT_img first"" src = /static/experiments/attention_network_task/images/left_arrow.png></img><img class = ANT_img src = /static/experiments/attention_network_task/images/left_arrow.png></img><img class = ANT_img src = /static/experiments/attention_network_task/images/left_arrow.png></img><img class = ANT_img src = /static/experiments/attention_network_task/images/left_arrow.png></img><img class = ANT_img src = /static/experiments/attention_network_task/images/left_arrow.png></img></div></div>","89,71","1700","test","true","89","","left","congruent","up","double","49",""
"-1","-1","poldrack-single-stim","194","254503","0.0-159.0","pilot-38_ses-01","","100","0","doublecue","<div class = centerbox><div class = ANT_text>+</div></div><div class = ANT_down><div class = ANT_text>*</div></div><div class = ANT_up><div class = ANT_text>*</div><div></div>","none","100","test","","","","","","","","",""
"-1","-1","poldrack-single-stim","195","254921","0.0-160.0","pilot-38_ses-01","","400","0","fixation","<div class = centerbox><div class = ANT_text>+</div></div>","none","400","test","","","","","","","","",""
"654","71","poldrack-single-stim","196","257050","0.0-161.0","pilot-38_ses-01","","2100","0","stim","<div class = centerbox><div class = ANT_text>+</div></div><div class = ANT_up><img class = ""ANT_img first"" src = /static/experiments/attention_network_task/images/right_arrow.png></img><img class = ANT_img src = /static/experiments/attention_network_task/images/right_arrow.png></img><img class = ANT_img src = /static/experiments/attention_network_task/images/right_arrow.png></img><img class = ANT_img src = /static/experiments/attention_network_task/images/right_arrow.png></img><img class = ANT_img src = /static/experiments/attention_network_task/images/right_arrow.png></img></div></div>","89,71","1700","test","true","71","","right","congruent","up","double","50",""
"-1","-1","poldrack-single-stim","197","257166","0.0-162.0","pilot-38_ses-01","","100","0","spatialcue","<div class = centerbox><div class = ANT_text>+</div></div><div class = centerbox><div class = ANT_up><div class = ANT_text>*</p></div></div>","none","100","test","","","","","","","","",""
"-1","-1","poldrack-single-stim","198","257590","0.0-163.0","pilot-38_ses-01","","400","0","fixation","<div class = centerbox><div class = ANT_text>+</div></div>","none","400","test","","","","","","","","",""
"547","89","poldrack-single-stim","199","259708","0.0-164.0","pilot-38_ses-01","","2100.408","0","stim","<div class = centerbox><div class = ANT_text>+</div></div><div class = ANT_up><img class = ""ANT_img first"" src = /static/experiments/attention_network_task/images/left_arrow.png></img><img class = ANT_img src = /static/experiments/attention_network_task/images/left_arrow.png></img><img class = ANT_img src = /static/experiments/attention_network_task/images/left_arrow.png></img><img class = ANT_img src = /static/experiments/attention_network_task/images/left_arrow.png></img><img class = ANT_img src = /static/experiments/attention_network_task/images/left_arrow.png></img></div></div>","89,71","1700","test","true","89","","left","congruent","up","spatial","51",""
"-1","-1","poldrack-single-stim","200","259840","0.0-165.0","pilot-38_ses-01","","100","0","spatialcue","<div class = centerbox><div class = ANT_text>+</div></div><div class = centerbox><div class = ANT_down><div class = ANT_text>*</p></div></div>","none","100","test","","","","","","","","",""
"-1","-1","poldrack-single-stim","201","260257","0.0-166.0","pilot-38_ses-01","","400","0","fixation","<div class = centerbox><div class = ANT_text>+</div></div>","none","400","test","","","","","","","","",""
"569","71","poldrack-single-stim","202","262381","0.0-167.0","pilot-38_ses-01","","2100","0","stim","<div class = centerbox><div class = ANT_text>+</div></div><div class = ANT_down><img class = ""ANT_img first"" src = /static/experiments/attention_network_task/images/left_arrow.png></img><img class = ANT_img src = /static/experiments/attention_network_task/images/left_arrow.png></img><img class = ANT_img src = /static/experiments/attention_network_task/images/right_arrow.png></img><img class = ANT_img src = /static/experiments/attention_network_task/images/left_arrow.png></img><img class = ANT_img src = /static/experiments/attention_network_task/images/left_arrow.png></img></div></div>","89,71","1700","test","true","71","","right","incongruent","down","spatial","52",""
"-1","-1","poldrack-single-stim","203","262516","0.0-168.0","pilot-38_ses-01","","100","0","doublecue","<div class = centerbox><div class = ANT_text>+</div></div><div class = ANT_down><div class = ANT_text>*</div></div><div class = ANT_up><div class = ANT_text>*</div><div></div>","none","100","test","","","","","","","","",""
"-1","-1","poldrack-single-stim","204","262932","0.0-169.0","pilot-38_ses-01","","400","0","fixation","<div class = centerbox><div class = ANT_text>+</div></div>","none","400","test","","","","","","","","",""
"670","71","poldrack-single-stim","205","265045","0.0-170.0","pilot-38_ses-01","","2100.816","0","stim","<div class = centerbox><div class = ANT_text>+</div></div><div class = ANT_up><img class = ""ANT_img first"" src = /static/experiments/attention_network_task/images/left_arrow.png></img><img class = ANT_img src = /static/experiments/attention_network_task/images/left_arrow.png></img><img class = ANT_img src = /static/experiments/attention_network_task/images/right_arrow.png></img><img class = ANT_img src = /static/experiments/attention_network_task/images/left_arrow.png></img><img class = ANT_img src = /static/experiments/attention_network_task/images/left_arrow.png></img></div></div>","89,71","1700","test","true","71","","right","incongruent","up","double","53",""
"-1","-1","poldrack-single-stim","206","265161","0.0-171.0","pilot-38_ses-01","","100","0","spatialcue","<div class = centerbox><div class = ANT_text>+</div></div><div class = centerbox><div class = ANT_up><div class = ANT_text>*</p></div></div>","none","100","test","","","","","","","","",""
"-1","-1","poldrack-single-stim","207","265576","0.0-172.0","pilot-38_ses-01","","400","0","fixation","<div class = centerbox><div class = ANT_text>+</div></div>","none","400","test","","","","","","","","",""
"541","71","poldrack-single-stim","208","267699","0.0-173.0","pilot-38_ses-01","","2100.68","0","stim","<div class = centerbox><div class = ANT_text>+</div></div><div class = ANT_up><img class = ""ANT_img first"" src = /static/experiments/attention_network_task/images/right_arrow.png></img><img class = ANT_img src = /static/experiments/attention_network_task/images/right_arrow.png></img><img class = ANT_img src = /static/experiments/attention_network_task/images/right_arrow.png></img><img class = ANT_img src = /static/experiments/attention_network_task/images/right_arrow.png></img><img class = ANT_img src = /static/experiments/attention_network_task/images/right_arrow.png></img></div></div>","89,71","1700","test","true","71","","right","congruent","up","spatial","54",""
"-1","-1","poldrack-single-stim","209","267815","0.0-174.0","pilot-38_ses-01","","100","0","spatialcue","<div class = centerbox><div class = ANT_text>+</div></div><div class = centerbox><div class = ANT_down><div class = ANT_text>*</p></div></div>","none","100","test","","","","","","","","",""
"-1","-1","poldrack-single-stim","210","268237","0.0-175.0","pilot-38_ses-01","","400","0","fixation","<div class = centerbox><div class = ANT_text>+</div></div>","none","400","test","","","","","","","","",""
"623","89","poldrack-single-stim","211","270347","0.0-176.0","pilot-38_ses-01","","2100","0","stim","<div class = centerbox><div class = ANT_text>+</div></div><div class = ANT_down><img class = ""ANT_img first"" src = /static/experiments/attention_network_task/images/left_arrow.png></img><img class = ANT_img src = /static/experiments/attention_network_task/images/left_arrow.png></img><img class = ANT_img src = /static/experiments/attention_network_task/images/left_arrow.png></img><img class = ANT_img src = /static/experiments/attention_network_task/images/left_arrow.png></img><img class = ANT_img src = /static/experiments/attention_network_task/images/left_arrow.png></img></div></div>","89,71","1700","test","true","89","","left","congruent","down","spatial","55",""
"-1","-1","poldrack-single-stim","212","270463","0.0-177.0","pilot-38_ses-01","","100","0","spatialcue","<div class = centerbox><div class = ANT_text>+</div></div><div class = centerbox><div class = ANT_down><div class = ANT_text>*</p></div></div>","none","100","test","","","","","","","","",""
"-1","-1","poldrack-single-stim","213","270879","0.0-178.0","pilot-38_ses-01","","400","0","fixation","<div class = centerbox><div class = ANT_text>+</div></div>","none","400","test","","","","","","","","",""
"669","71","poldrack-single-stim","214","273003","0.0-179.0","pilot-38_ses-01","","2100.136","0","stim","<div class = centerbox><div class = ANT_text>+</div></div><div class = ANT_down><img class = ""ANT_img first"" src = /static/experiments/attention_network_task/images/right_arrow.png></img><img class = ANT_img src = /static/experiments/attention_network_task/images/right_arrow.png></img><img class = ANT_img src = /static/experiments/attention_network_task/images/right_arrow.png></img><img class = ANT_img src = /static/experiments/attention_network_task/images/right_arrow.png></img><img class = ANT_img src = /static/experiments/attention_network_task/images/right_arrow.png></img></div></div>","89,71","1700","test","true","71","","right","congruent","down","spatial","56",""
"-1","-1","poldrack-single-stim","215","273120","0.0-180.0","pilot-38_ses-01","","100","0","doublecue","<div class = centerbox><div class = ANT_text>+</div></div><div class = ANT_down><div class = ANT_text>*</div></div><div class = ANT_up><div class = ANT_text>*</div><div></div>","none","100","test","","","","","","","","",""
"-1","-1","poldrack-single-stim","216","273525","0.0-181.0","pilot-38_ses-01","","400","0","fixation","<div class = centerbox><div class = ANT_text>+</div></div>","none","400","test","","","","","","","","",""
"560","71","poldrack-single-stim","217","275645","0.0-182.0","pilot-38_ses-01","","2100.136","0","stim","<div class = centerbox><div class = ANT_text>+</div></div><div class = ANT_down><img class = ""ANT_img first"" src = /static/experiments/attention_network_task/images/left_arrow.png></img><img class = ANT_img src = /static/experiments/attention_network_task/images/left_arrow.png></img><img class = ANT_img src = /static/experiments/attention_network_task/images/right_arrow.png></img><img class = ANT_img src = /static/experiments/attention_network_task/images/left_arrow.png></img><img class = ANT_img src = /static/experiments/attention_network_task/images/left_arrow.png></img></div></div>","89,71","1700","test","true","71","","right","incongruent","down","double","57",""
"-1","-1","poldrack-single-stim","218","275768","0.0-183.0","pilot-38_ses-01","","100","0","doublecue","<div class = centerbox><div class = ANT_text>+</div></div><div class = ANT_down><div class = ANT_text>*</div></div><div class = ANT_up><div class = ANT_text>*</div><div></div>","none","100","test","","","","","","","","",""
"-1","-1","poldrack-single-stim","219","276184","0.0-184.0","pilot-38_ses-01","","400","0","fixation","<div class = centerbox><div class = ANT_text>+</div></div>","none","400","test","","","","","","","","",""
"721","89","poldrack-single-stim","220","278305","0.0-185.0","pilot-38_ses-01","","2100.136","0","stim","<div class = centerbox><div class = ANT_text>+</div></div><div class = ANT_up><img class = ""ANT_img first"" src = /static/experiments/attention_network_task/images/right_arrow.png></img><img class = ANT_img src = /static/experiments/attention_network_task/images/right_arrow.png></img><img class = ANT_img src = /static/experiments/attention_network_task/images/left_arrow.png></img><img class = ANT_img src = /static/experiments/attention_network_task/images/right_arrow.png></img><img class = ANT_img src = /static/experiments/attention_network_task/images/right_arrow.png></img></div></div>","89,71","1700","test","true","89","","left","incongruent","up","double","58",""
"-1","-1","poldrack-single-stim","221","278421","0.0-186.0","pilot-38_ses-01","","100","0","doublecue","<div class = centerbox><div class = ANT_text>+</div></div><div class = ANT_down><div class = ANT_text>*</div></div><div class = ANT_up><div class = ANT_text>*</div><div></div>","none","100","test","","","","","","","","",""
"-1","-1","poldrack-single-stim","222","278839","0.0-187.0","pilot-38_ses-01","","400","0","fixation","<div class = centerbox><div class = ANT_text>+</div></div>","none","400","test","","","","","","","","",""
"878","71","poldrack-single-stim","223","280963","0.0-188.0","pilot-38_ses-01","","2100","0","stim","<div class = centerbox><div class = ANT_text>+</div></div><div class = ANT_down><img class = ""ANT_img first"" src = /static/experiments/attention_network_task/images/left_arrow.png></img><img class = ANT_img src = /static/experiments/attention_network_task/images/left_arrow.png></img><img class = ANT_img src = /static/experiments/attention_network_task/images/right_arrow.png></img><img class = ANT_img src = /static/experiments/attention_network_task/images/left_arrow.png></img><img class = ANT_img src = /static/experiments/attention_network_task/images/left_arrow.png></img></div></div>","89,71","1700","test","true","71","","right","incongruent","down","double","59",""
"-1","-1","poldrack-single-stim","224","281086","0.0-189.0","pilot-38_ses-01","","100","0","spatialcue","<div class = centerbox><div class = ANT_text>+</div></div><div class = centerbox><div class = ANT_up><div class = ANT_text>*</p></div></div>","none","100","test","","","","","","","","",""
"-1","-1","poldrack-single-stim","225","281503","0.0-190.0","pilot-38_ses-01","","400","0","fixation","<div class = centerbox><div class = ANT_text>+</div></div>","none","400","test","","","","","","","","",""
"595","71","poldrack-single-stim","226","283616","0.0-191.0","pilot-38_ses-01","","2100.136","0","stim","<div class = centerbox><div class = ANT_text>+</div></div><div class = ANT_up><img class = ""ANT_img first"" src = /static/experiments/attention_network_task/images/left_arrow.png></img><img class = ANT_img src = /static/experiments/attention_network_task/images/left_arrow.png></img><img class = ANT_img src = /static/experiments/attention_network_task/images/right_arrow.png></img><img class = ANT_img src = /static/experiments/attention_network_task/images/left_arrow.png></img><img class = ANT_img src = /static/experiments/attention_network_task/images/left_arrow.png></img></div></div>","89,71","1700","test","true","71","","right","incongruent","up","spatial","60",""
"-1","-1","poldrack-single-stim","227","283732","0.0-192.0","pilot-38_ses-01","","100","0","spatialcue","<div class = centerbox><div class = ANT_text>+</div></div><div class = centerbox><div class = ANT_down><div class = ANT_text>*</p></div></div>","none","100","test","","","","","","","","",""
"-1","-1","poldrack-single-stim","228","284151","0.0-193.0","pilot-38_ses-01","","400","0","fixation","<div class = centerbox><div class = ANT_text>+</div></div>","none","400","test","","","","","","","","",""
"766","89","poldrack-single-stim","229","286277","0.0-194.0","pilot-38_ses-01","","2100.952","0","stim","<div class = centerbox><div class = ANT_text>+</div></div><div class = ANT_down><img class = ""ANT_img first"" src = /static/experiments/attention_network_task/images/right_arrow.png></img><img class = ANT_img src = /static/experiments/attention_network_task/images/right_arrow.png></img><img class = ANT_img src = /static/experiments/attention_network_task/images/left_arrow.png></img><img class = ANT_img src = /static/experiments/attention_network_task/images/right_arrow.png></img><img class = ANT_img src = /static/experiments/attention_network_task/images/right_arrow.png></img></div></div>","89,71","1700","test","true","89","","left","incongruent","down","spatial","61",""
"-1","-1","poldrack-single-stim","230","286391","0.0-195.0","pilot-38_ses-01","","100","0","doublecue","<div class = centerbox><div class = ANT_text>+</div></div><div class = ANT_down><div class = ANT_text>*</div></div><div class = ANT_up><div class = ANT_text>*</div><div></div>","none","100","test","","","","","","","","",""
"-1","-1","poldrack-single-stim","231","286813","0.0-196.0","pilot-38_ses-01","","400","0","fixation","<div class = centerbox><div class = ANT_text>+</div></div>","none","400","test","","","","","","","","",""
"603","71","poldrack-single-stim","232","288926","0.0-197.0","pilot-38_ses-01","","2100.136","0","stim","<div class = centerbox><div class = ANT_text>+</div></div><div class = ANT_up><img class = ""ANT_img first"" src = /static/experiments/attention_network_task/images/left_arrow.png></img><img class = ANT_img src = /static/experiments/attention_network_task/images/left_arrow.png></img><img class = ANT_img src = /static/experiments/attention_network_task/images/right_arrow.png></img><img class = ANT_img src = /static/experiments/attention_network_task/images/left_arrow.png></img><img class = ANT_img src = /static/experiments/attention_network_task/images/left_arrow.png></img></div></div>","89,71","1700","test","true","71","","right","incongruent","up","double","62",""
