"rt","key_press","trial_type","trial_index","time_elapsed","internal_node_id","subject","text","block_duration","timing_post_trial","trial_id","stimulus","possible_responses","stim_duration","current_position","num_moves_made","min_moves","start_state","goal_state","condition","problem_id","exp_stage","problem_time","correct","exp_id"
"24420","13","text","0","24426","0.0-0.0","pilot-40_ses-03_2","","","","","","","","","","","","","","","","","",""
"5027","89","poldrack-text","1","30463","0.0-1.0","pilot-40_ses-03_2","<div class = centerbox><div style = 'font-size: 50px' class = center-text>Veuillez appuyer avec votre index</p></div>","5027","500","fmri_response_test","","","","","","","","","","","","","",""
"732","71","poldrack-text","2","31719","0.0-2.0","pilot-40_ses-03_2","<div class = centerbox><div style = 'font-size: 50px' class = center-text>Veuillez appuyer avec votre majeur</p></div>","732","500","fmri_response_test","","","","","","","","","","","","","",""
"779","82","poldrack-text","3","33001","0.0-3.0","pilot-40_ses-03_2","<div class = centerbox><div style = 'font-size: 50px' class = center-text>Veuillez appuyer avec votre annulaire</p></div>","779","500","fmri_response_test","","","","","","","","","","","","","",""
"4312","32","poldrack-single-stim","4","37840","0.0-4.0","pilot-40_ses-03_2","","4312","0","instructions","<div class = centerbox><div class = center-text>Resolvez les taches de la tour !<br><br>Planifiez d'avance et travaillez rapidement!<br><br>Nous allons commencer par un peu de pratique.</div></div>","32","4312","","","","","","","","","","",""
"892","32","poldrack-text","5","38735","0.0-5.0","pilot-40_ses-03_2","<div class = centerbox><div  class = center-text>Scanner Setup</div></div>","892","0","fmri_scanner_wait","","","","","","","","","","","","","",""
"54253","84","poldrack-text","6","92990","0.0-6.0","pilot-40_ses-03_2","<div class = centerbox><div style='color:red'; class = center-text>+</div></div>","54253","0","fmri_trigger_wait","","","","","","","","","","","","","",""
"-1","-1","poldrack-single-stim","7","94012","0.0-7.0","pilot-40_ses-03_2","","1000","0","fmri_buffer","","none","1000","","","","","","","","","","",""
"-1","-1","poldrack-single-stim","8","95532","0.0-8.0","pilot-40_ses-03_2","","1500","500","practice_start_block","<div class = centerbox><div class = center-text>Sur le point de commencer l'entrainement</p></div>","none","1500","","","","","","","","","","",""
"5586","71","poldrack-single-stim","9","101644","0.0-9.0-0.0-0.0","pilot-40_ses-03_2","","5586","0","to_hand","<div class = watt_canvas><div class=""watt_vertical_line""></div></div><div class = watt_your_board><div class = watt_base></div><div class = watt_board_label><strong>Votre Planche</strong></div><div id = watt_peg_1><div class = watt_peg></div></div><div class = special id = watt_peg_1 onclick = ""pegClick(this.id)""><div class = ""watt_ball watt_Blue""><div class = watt_ball_label>B</div></div></div><div id = watt_peg_2><div class = watt_peg></div></div><div class = special id = watt_peg_2 onclick = ""pegClick(this.id)""><div class = ""watt_ball watt_Green""><div class = watt_ball_label>G</div></div><div class = ""watt_ball watt_Red""><div class = watt_ball_label>R</div></div></div><div id = watt_peg_3><div class = watt_peg></div></div><div id = watt_peg_3 onclick = ""pegClick(this.id)""></div></div><div class = watt_peg_board><div class = watt_base></div><div class = watt_board_label><strong>Planche Cible</strong></div><div id = watt_peg_1><div class = watt_peg></div></div><div id = watt_peg_1 ><div class = ""watt_ball watt_Blue""><div class = watt_ball_label>B</div></div><div class = ""watt_ball watt_Green""><div class = watt_ball_label>G</div></div><div class = ""watt_ball watt_Red""><div class = watt_ball_label>R</div></div></div><div id = watt_peg_2><div class = watt_peg></div></div><div id = watt_peg_2 ></div><div id = watt_peg_3><div class = watt_peg></div></div><div id = watt_peg_3 ></div></div><div class = watt_hand_box></div><div class = watt_hand_label><strong>Boule en main</strong></div>","89,71","5586","1,0,0,2,0,0,0,0,0","1","3","1,0,0,2,3,0,0,0,0","1,2,3,0,0,0,0,0,0","UA_with_intermeidate","0","practice","","",""
"474","82","poldrack-single-stim","10","102126","0.0-9.0-0.0-1.0","pilot-40_ses-03_2","","474","0","to_board","<div class = watt_canvas><div class=""watt_vertical_line""></div></div><div class = watt_your_board><div class = watt_base></div><div class = watt_board_label><strong>Votre Planche</strong></div><div id = watt_peg_1><div class = watt_peg></div></div><div class = special id = watt_peg_1 onclick = ""pegClick(this.id)""><div class = ""watt_ball watt_Blue""><div class = watt_ball_label>B</div></div></div><div id = watt_peg_2><div class = watt_peg></div></div><div class = special id = watt_peg_2 onclick = ""pegClick(this.id)""><div class = ""watt_ball watt_Green""><div class = watt_ball_label>G</div></div></div><div id = watt_peg_3><div class = watt_peg></div></div><div class = special id = watt_peg_3 onclick = ""pegClick(this.id)""></div></div><div class = watt_peg_board><div class = watt_base></div><div class = watt_board_label><strong>Planche Cible</strong></div><div id = watt_peg_1><div class = watt_peg></div></div><div id = watt_peg_1 ><div class = ""watt_ball watt_Blue""><div class = watt_ball_label>B</div></div><div class = ""watt_ball watt_Green""><div class = watt_ball_label>G</div></div><div class = ""watt_ball watt_Red""><div class = watt_ball_label>R</div></div></div><div id = watt_peg_2><div class = watt_peg></div></div><div id = watt_peg_2 ></div><div id = watt_peg_3><div class = watt_peg></div></div><div id = watt_peg_3 ></div></div><div class = watt_hand_box><div class = ""watt_hand_ball watt_Red""><div class = watt_ball_label>R</div></div></div><div class = watt_hand_label><strong>Boule en main</strong></div>","89,71,82","474","1,0,0,2,0,0,3,0,0","1","3","1,0,0,2,3,0,0,0,0","1,2,3,0,0,0,0,0,0","UA_with_intermeidate","0","practice","","",""
"527","71","poldrack-single-stim","11","102663","0.0-9.0-0.1-0.1","pilot-40_ses-03_2","","527","0","to_hand","<div class = watt_canvas><div class=""watt_vertical_line""></div></div><div class = watt_your_board><div class = watt_base></div><div class = watt_board_label><strong>Votre Planche</strong></div><div id = watt_peg_1><div class = watt_peg></div></div><div class = special id = watt_peg_1 onclick = ""pegClick(this.id)""><div class = ""watt_ball watt_Blue""><div class = watt_ball_label>B</div></div></div><div id = watt_peg_2><div class = watt_peg></div></div><div class = special id = watt_peg_2 onclick = ""pegClick(this.id)""><div class = ""watt_ball watt_Green""><div class = watt_ball_label>G</div></div></div><div id = watt_peg_3><div class = watt_peg></div></div><div class = special id = watt_peg_3 onclick = ""pegClick(this.id)""><div class = ""watt_ball watt_Red""><div class = watt_ball_label>R</div></div></div></div><div class = watt_peg_board><div class = watt_base></div><div class = watt_board_label><strong>Planche Cible</strong></div><div id = watt_peg_1><div class = watt_peg></div></div><div id = watt_peg_1 ><div class = ""watt_ball watt_Blue""><div class = watt_ball_label>B</div></div><div class = ""watt_ball watt_Green""><div class = watt_ball_label>G</div></div><div class = ""watt_ball watt_Red""><div class = watt_ball_label>R</div></div></div><div id = watt_peg_2><div class = watt_peg></div></div><div id = watt_peg_2 ></div><div id = watt_peg_3><div class = watt_peg></div></div><div id = watt_peg_3 ></div></div><div class = watt_hand_box></div><div class = watt_hand_label><strong>Boule en main</strong></div>","89,71,82","527","1,0,0,0,0,0,3,0,0","2","3","1,0,0,2,3,0,0,0,0","1,2,3,0,0,0,0,0,0","UA_with_intermeidate","0","practice","","",""
"354","89","poldrack-single-stim","12","103019","0.0-9.0-0.1-1.1","pilot-40_ses-03_2","","354","0","to_board","<div class = watt_canvas><div class=""watt_vertical_line""></div></div><div class = watt_your_board><div class = watt_base></div><div class = watt_board_label><strong>Votre Planche</strong></div><div id = watt_peg_1><div class = watt_peg></div></div><div class = special id = watt_peg_1 onclick = ""pegClick(this.id)""><div class = ""watt_ball watt_Blue""><div class = watt_ball_label>B</div></div></div><div id = watt_peg_2><div class = watt_peg></div></div><div class = special id = watt_peg_2 onclick = ""pegClick(this.id)""></div><div id = watt_peg_3><div class = watt_peg></div></div><div class = special id = watt_peg_3 onclick = ""pegClick(this.id)""><div class = ""watt_ball watt_Red""><div class = watt_ball_label>R</div></div></div></div><div class = watt_peg_board><div class = watt_base></div><div class = watt_board_label><strong>Planche Cible</strong></div><div id = watt_peg_1><div class = watt_peg></div></div><div id = watt_peg_1 ><div class = ""watt_ball watt_Blue""><div class = watt_ball_label>B</div></div><div class = ""watt_ball watt_Green""><div class = watt_ball_label>G</div></div><div class = ""watt_ball watt_Red""><div class = watt_ball_label>R</div></div></div><div id = watt_peg_2><div class = watt_peg></div></div><div id = watt_peg_2 ></div><div id = watt_peg_3><div class = watt_peg></div></div><div id = watt_peg_3 ></div></div><div class = watt_hand_box><div class = ""watt_hand_ball watt_Green""><div class = watt_ball_label>G</div></div></div><div class = watt_hand_label><strong>Boule en main</strong></div>","89,71,82","354","1,2,0,0,0,0,3,0,0","2","3","1,0,0,2,3,0,0,0,0","1,2,3,0,0,0,0,0,0","UA_with_intermeidate","0","practice","","",""
"610","82","poldrack-single-stim","13","103634","0.0-9.0-0.2-0.2","pilot-40_ses-03_2","","610","0","to_hand","<div class = watt_canvas><div class=""watt_vertical_line""></div></div><div class = watt_your_board><div class = watt_base></div><div class = watt_board_label><strong>Votre Planche</strong></div><div id = watt_peg_1><div class = watt_peg></div></div><div class = special id = watt_peg_1 onclick = ""pegClick(this.id)""><div class = ""watt_ball watt_Blue""><div class = watt_ball_label>B</div></div><div class = ""watt_ball watt_Green""><div class = watt_ball_label>G</div></div></div><div id = watt_peg_2><div class = watt_peg></div></div><div id = watt_peg_2 onclick = ""pegClick(this.id)""></div><div id = watt_peg_3><div class = watt_peg></div></div><div class = special id = watt_peg_3 onclick = ""pegClick(this.id)""><div class = ""watt_ball watt_Red""><div class = watt_ball_label>R</div></div></div></div><div class = watt_peg_board><div class = watt_base></div><div class = watt_board_label><strong>Planche Cible</strong></div><div id = watt_peg_1><div class = watt_peg></div></div><div id = watt_peg_1 ><div class = ""watt_ball watt_Blue""><div class = watt_ball_label>B</div></div><div class = ""watt_ball watt_Green""><div class = watt_ball_label>G</div></div><div class = ""watt_ball watt_Red""><div class = watt_ball_label>R</div></div></div><div id = watt_peg_2><div class = watt_peg></div></div><div id = watt_peg_2 ></div><div id = watt_peg_3><div class = watt_peg></div></div><div id = watt_peg_3 ></div></div><div class = watt_hand_box></div><div class = watt_hand_label><strong>Boule en main</strong></div>","89,82","610","1,2,0,0,0,0,0,0,0","3","3","1,0,0,2,3,0,0,0,0","1,2,3,0,0,0,0,0,0","UA_with_intermeidate","0","practice","","",""
"398","89","poldrack-single-stim","14","104037","0.0-9.0-0.2-1.2","pilot-40_ses-03_2","","398","0","to_board","<div class = watt_canvas><div class=""watt_vertical_line""></div></div><div class = watt_your_board><div class = watt_base></div><div class = watt_board_label><strong>Votre Planche</strong></div><div id = watt_peg_1><div class = watt_peg></div></div><div class = special id = watt_peg_1 onclick = ""pegClick(this.id)""><div class = ""watt_ball watt_Blue""><div class = watt_ball_label>B</div></div><div class = ""watt_ball watt_Green""><div class = watt_ball_label>G</div></div></div><div id = watt_peg_2><div class = watt_peg></div></div><div class = special id = watt_peg_2 onclick = ""pegClick(this.id)""></div><div id = watt_peg_3><div class = watt_peg></div></div><div class = special id = watt_peg_3 onclick = ""pegClick(this.id)""></div></div><div class = watt_peg_board><div class = watt_base></div><div class = watt_board_label><strong>Planche Cible</strong></div><div id = watt_peg_1><div class = watt_peg></div></div><div id = watt_peg_1 ><div class = ""watt_ball watt_Blue""><div class = watt_ball_label>B</div></div><div class = ""watt_ball watt_Green""><div class = watt_ball_label>G</div></div><div class = ""watt_ball watt_Red""><div class = watt_ball_label>R</div></div></div><div id = watt_peg_2><div class = watt_peg></div></div><div id = watt_peg_2 ></div><div id = watt_peg_3><div class = watt_peg></div></div><div id = watt_peg_3 ></div></div><div class = watt_hand_box><div class = ""watt_hand_ball watt_Red""><div class = watt_ball_label>R</div></div></div><div class = watt_hand_label><strong>Boule en main</strong></div>","89,71,82","398","1,2,3,0,0,0,0,0,0","3","3","1,0,0,2,3,0,0,0,0","1,2,3,0,0,0,0,0,0","UA_with_intermeidate","0","practice","","",""
"-1","-1","poldrack-single-stim","15","106561","0.0-9.0-1.0","pilot-40_ses-03_2","","2500","0","feedback","<div class = watt_canvas><div class=""watt_vertical_line""></div></div><div class = watt_your_board><div class = watt_base></div><div class = watt_board_label><strong>Votre Planche</strong></div><div id = watt_peg_1><div class = watt_peg></div></div><div id = watt_peg_1 ><div class = ""watt_ball watt_Blue""><div class = watt_ball_label>B</div></div><div class = ""watt_ball watt_Green""><div class = watt_ball_label>G</div></div><div class = ""watt_ball watt_Red""><div class = watt_ball_label>R</div></div></div><div id = watt_peg_2><div class = watt_peg></div></div><div id = watt_peg_2 ></div><div id = watt_peg_3><div class = watt_peg></div></div><div id = watt_peg_3 ></div></div><div class = watt_peg_board><div class = watt_base></div><div class = watt_board_label><strong>Planche Cible</strong></div><div id = watt_peg_1><div class = watt_peg></div></div><div id = watt_peg_1 ><div class = ""watt_ball watt_Blue""><div class = watt_ball_label>B</div></div><div class = ""watt_ball watt_Green""><div class = watt_ball_label>G</div></div><div class = ""watt_ball watt_Red""><div class = watt_ball_label>R</div></div></div><div id = watt_peg_2><div class = watt_peg></div></div><div id = watt_peg_2 ></div><div id = watt_peg_3><div class = watt_peg></div></div><div id = watt_peg_3 ></div></div><div class = watt_feedbackbox><p class = center-text>Complete</p></div>","none","1000","","3","3","","","","","practice","11029","true",""
"2949","89","poldrack-single-stim","16","109521","0.0-9.1-0.3-0.3","pilot-40_ses-03_2","","2949","0","to_hand","<div class = watt_canvas><div class=""watt_vertical_line""></div></div><div class = watt_your_board><div class = watt_base></div><div class = watt_board_label><strong>Votre Planche</strong></div><div id = watt_peg_1><div class = watt_peg></div></div><div class = special id = watt_peg_1 onclick = ""pegClick(this.id)""><div class = ""watt_ball watt_Blue""><div class = watt_ball_label>B</div></div><div class = ""watt_ball watt_Red""><div class = watt_ball_label>R</div></div></div><div id = watt_peg_2><div class = watt_peg></div></div><div class = special id = watt_peg_2 onclick = ""pegClick(this.id)""><div class = ""watt_ball watt_Green""><div class = watt_ball_label>G</div></div></div><div id = watt_peg_3><div class = watt_peg></div></div><div id = watt_peg_3 onclick = ""pegClick(this.id)""></div></div><div class = watt_peg_board><div class = watt_base></div><div class = watt_board_label><strong>Planche Cible</strong></div><div id = watt_peg_1><div class = watt_peg></div></div><div id = watt_peg_1 ><div class = ""watt_ball watt_Blue""><div class = watt_ball_label>B</div></div><div class = ""watt_ball watt_Green""><div class = watt_ball_label>G</div></div><div class = ""watt_ball watt_Red""><div class = watt_ball_label>R</div></div></div><div id = watt_peg_2><div class = watt_peg></div></div><div id = watt_peg_2 ></div><div id = watt_peg_3><div class = watt_peg></div></div><div id = watt_peg_3 ></div></div><div class = watt_hand_box></div><div class = watt_hand_label><strong>Boule en main</strong></div>","89,71","2949","1,0,0,3,0,0,0,0,0","1","3","1,2,0,3,0,0,0,0,0","1,3,2,0,0,0,0,0,0","UA_with_intermeidate","1","practice","","",""
"600","82","poldrack-single-stim","17","110125","0.0-9.1-0.3-1.3","pilot-40_ses-03_2","","600","0","to_board","<div class = watt_canvas><div class=""watt_vertical_line""></div></div><div class = watt_your_board><div class = watt_base></div><div class = watt_board_label><strong>Votre Planche</strong></div><div id = watt_peg_1><div class = watt_peg></div></div><div class = special id = watt_peg_1 onclick = ""pegClick(this.id)""><div class = ""watt_ball watt_Blue""><div class = watt_ball_label>B</div></div></div><div id = watt_peg_2><div class = watt_peg></div></div><div class = special id = watt_peg_2 onclick = ""pegClick(this.id)""><div class = ""watt_ball watt_Green""><div class = watt_ball_label>G</div></div></div><div id = watt_peg_3><div class = watt_peg></div></div><div class = special id = watt_peg_3 onclick = ""pegClick(this.id)""></div></div><div class = watt_peg_board><div class = watt_base></div><div class = watt_board_label><strong>Planche Cible</strong></div><div id = watt_peg_1><div class = watt_peg></div></div><div id = watt_peg_1 ><div class = ""watt_ball watt_Blue""><div class = watt_ball_label>B</div></div><div class = ""watt_ball watt_Green""><div class = watt_ball_label>G</div></div><div class = ""watt_ball watt_Red""><div class = watt_ball_label>R</div></div></div><div id = watt_peg_2><div class = watt_peg></div></div><div id = watt_peg_2 ></div><div id = watt_peg_3><div class = watt_peg></div></div><div id = watt_peg_3 ></div></div><div class = watt_hand_box><div class = ""watt_hand_ball watt_Red""><div class = watt_ball_label>R</div></div></div><div class = watt_hand_label><strong>Boule en main</strong></div>","89,71,82","600","1,0,0,3,0,0,2,0,0","1","3","1,2,0,3,0,0,0,0,0","1,3,2,0,0,0,0,0,0","UA_with_intermeidate","1","practice","","",""
"487","71","poldrack-single-stim","18","110615","0.0-9.1-0.4-0.4","pilot-40_ses-03_2","","487","0","to_hand","<div class = watt_canvas><div class=""watt_vertical_line""></div></div><div class = watt_your_board><div class = watt_base></div><div class = watt_board_label><strong>Votre Planche</strong></div><div id = watt_peg_1><div class = watt_peg></div></div><div class = special id = watt_peg_1 onclick = ""pegClick(this.id)""><div class = ""watt_ball watt_Blue""><div class = watt_ball_label>B</div></div></div><div id = watt_peg_2><div class = watt_peg></div></div><div class = special id = watt_peg_2 onclick = ""pegClick(this.id)""><div class = ""watt_ball watt_Green""><div class = watt_ball_label>G</div></div></div><div id = watt_peg_3><div class = watt_peg></div></div><div class = special id = watt_peg_3 onclick = ""pegClick(this.id)""><div class = ""watt_ball watt_Red""><div class = watt_ball_label>R</div></div></div></div><div class = watt_peg_board><div class = watt_base></div><div class = watt_board_label><strong>Planche Cible</strong></div><div id = watt_peg_1><div class = watt_peg></div></div><div id = watt_peg_1 ><div class = ""watt_ball watt_Blue""><div class = watt_ball_label>B</div></div><div class = ""watt_ball watt_Green""><div class = watt_ball_label>G</div></div><div class = ""watt_ball watt_Red""><div class = watt_ball_label>R</div></div></div><div id = watt_peg_2><div class = watt_peg></div></div><div id = watt_peg_2 ></div><div id = watt_peg_3><div class = watt_peg></div></div><div id = watt_peg_3 ></div></div><div class = watt_hand_box></div><div class = watt_hand_label><strong>Boule en main</strong></div>","89,71,82","487","1,0,0,0,0,0,2,0,0","2","3","1,2,0,3,0,0,0,0,0","1,3,2,0,0,0,0,0,0","UA_with_intermeidate","1","practice","","",""
"415","89","poldrack-single-stim","19","111034","0.0-9.1-0.4-1.4","pilot-40_ses-03_2","","415","0","to_board","<div class = watt_canvas><div class=""watt_vertical_line""></div></div><div class = watt_your_board><div class = watt_base></div><div class = watt_board_label><strong>Votre Planche</strong></div><div id = watt_peg_1><div class = watt_peg></div></div><div class = special id = watt_peg_1 onclick = ""pegClick(this.id)""><div class = ""watt_ball watt_Blue""><div class = watt_ball_label>B</div></div></div><div id = watt_peg_2><div class = watt_peg></div></div><div class = special id = watt_peg_2 onclick = ""pegClick(this.id)""></div><div id = watt_peg_3><div class = watt_peg></div></div><div class = special id = watt_peg_3 onclick = ""pegClick(this.id)""><div class = ""watt_ball watt_Red""><div class = watt_ball_label>R</div></div></div></div><div class = watt_peg_board><div class = watt_base></div><div class = watt_board_label><strong>Planche Cible</strong></div><div id = watt_peg_1><div class = watt_peg></div></div><div id = watt_peg_1 ><div class = ""watt_ball watt_Blue""><div class = watt_ball_label>B</div></div><div class = ""watt_ball watt_Green""><div class = watt_ball_label>G</div></div><div class = ""watt_ball watt_Red""><div class = watt_ball_label>R</div></div></div><div id = watt_peg_2><div class = watt_peg></div></div><div id = watt_peg_2 ></div><div id = watt_peg_3><div class = watt_peg></div></div><div id = watt_peg_3 ></div></div><div class = watt_hand_box><div class = ""watt_hand_ball watt_Green""><div class = watt_ball_label>G</div></div></div><div class = watt_hand_label><strong>Boule en main</strong></div>","89,71,82","415","1,3,0,0,0,0,2,0,0","2","3","1,2,0,3,0,0,0,0,0","1,3,2,0,0,0,0,0,0","UA_with_intermeidate","1","practice","","",""
"556","82","poldrack-single-stim","20","111595","0.0-9.1-0.5-0.5","pilot-40_ses-03_2","","556","0","to_hand","<div class = watt_canvas><div class=""watt_vertical_line""></div></div><div class = watt_your_board><div class = watt_base></div><div class = watt_board_label><strong>Votre Planche</strong></div><div id = watt_peg_1><div class = watt_peg></div></div><div class = special id = watt_peg_1 onclick = ""pegClick(this.id)""><div class = ""watt_ball watt_Blue""><div class = watt_ball_label>B</div></div><div class = ""watt_ball watt_Green""><div class = watt_ball_label>G</div></div></div><div id = watt_peg_2><div class = watt_peg></div></div><div id = watt_peg_2 onclick = ""pegClick(this.id)""></div><div id = watt_peg_3><div class = watt_peg></div></div><div class = special id = watt_peg_3 onclick = ""pegClick(this.id)""><div class = ""watt_ball watt_Red""><div class = watt_ball_label>R</div></div></div></div><div class = watt_peg_board><div class = watt_base></div><div class = watt_board_label><strong>Planche Cible</strong></div><div id = watt_peg_1><div class = watt_peg></div></div><div id = watt_peg_1 ><div class = ""watt_ball watt_Blue""><div class = watt_ball_label>B</div></div><div class = ""watt_ball watt_Green""><div class = watt_ball_label>G</div></div><div class = ""watt_ball watt_Red""><div class = watt_ball_label>R</div></div></div><div id = watt_peg_2><div class = watt_peg></div></div><div id = watt_peg_2 ></div><div id = watt_peg_3><div class = watt_peg></div></div><div id = watt_peg_3 ></div></div><div class = watt_hand_box></div><div class = watt_hand_label><strong>Boule en main</strong></div>","89,82","556","1,3,0,0,0,0,0,0,0","3","3","1,2,0,3,0,0,0,0,0","1,3,2,0,0,0,0,0,0","UA_with_intermeidate","1","practice","","",""
"361","89","poldrack-single-stim","21","111960","0.0-9.1-0.5-1.5","pilot-40_ses-03_2","","361","0","to_board","<div class = watt_canvas><div class=""watt_vertical_line""></div></div><div class = watt_your_board><div class = watt_base></div><div class = watt_board_label><strong>Votre Planche</strong></div><div id = watt_peg_1><div class = watt_peg></div></div><div class = special id = watt_peg_1 onclick = ""pegClick(this.id)""><div class = ""watt_ball watt_Blue""><div class = watt_ball_label>B</div></div><div class = ""watt_ball watt_Green""><div class = watt_ball_label>G</div></div></div><div id = watt_peg_2><div class = watt_peg></div></div><div class = special id = watt_peg_2 onclick = ""pegClick(this.id)""></div><div id = watt_peg_3><div class = watt_peg></div></div><div class = special id = watt_peg_3 onclick = ""pegClick(this.id)""></div></div><div class = watt_peg_board><div class = watt_base></div><div class = watt_board_label><strong>Planche Cible</strong></div><div id = watt_peg_1><div class = watt_peg></div></div><div id = watt_peg_1 ><div class = ""watt_ball watt_Blue""><div class = watt_ball_label>B</div></div><div class = ""watt_ball watt_Green""><div class = watt_ball_label>G</div></div><div class = ""watt_ball watt_Red""><div class = watt_ball_label>R</div></div></div><div id = watt_peg_2><div class = watt_peg></div></div><div id = watt_peg_2 ></div><div id = watt_peg_3><div class = watt_peg></div></div><div id = watt_peg_3 ></div></div><div class = watt_hand_box><div class = ""watt_hand_ball watt_Red""><div class = watt_ball_label>R</div></div></div><div class = watt_hand_label><strong>Boule en main</strong></div>","89,71,82","361","1,3,2,0,0,0,0,0,0","3","3","1,2,0,3,0,0,0,0,0","1,3,2,0,0,0,0,0,0","UA_with_intermeidate","1","practice","","",""
"-1","-1","poldrack-single-stim","22","114069","0.0-9.1-1.1","pilot-40_ses-03_2","","2100","0","feedback","<div class = watt_canvas><div class=""watt_vertical_line""></div></div><div class = watt_your_board><div class = watt_base></div><div class = watt_board_label><strong>Votre Planche</strong></div><div id = watt_peg_1><div class = watt_peg></div></div><div id = watt_peg_1 ><div class = ""watt_ball watt_Blue""><div class = watt_ball_label>B</div></div><div class = ""watt_ball watt_Green""><div class = watt_ball_label>G</div></div><div class = ""watt_ball watt_Red""><div class = watt_ball_label>R</div></div></div><div id = watt_peg_2><div class = watt_peg></div></div><div id = watt_peg_2 ></div><div id = watt_peg_3><div class = watt_peg></div></div><div id = watt_peg_3 ></div></div><div class = watt_peg_board><div class = watt_base></div><div class = watt_board_label><strong>Planche Cible</strong></div><div id = watt_peg_1><div class = watt_peg></div></div><div id = watt_peg_1 ><div class = ""watt_ball watt_Blue""><div class = watt_ball_label>B</div></div><div class = ""watt_ball watt_Green""><div class = watt_ball_label>G</div></div><div class = ""watt_ball watt_Red""><div class = watt_ball_label>R</div></div></div><div id = watt_peg_2><div class = watt_peg></div></div><div id = watt_peg_2 ></div><div id = watt_peg_3><div class = watt_peg></div></div><div id = watt_peg_3 ></div></div><div class = watt_feedbackbox><p class = center-text>Complete</p></div>","none","1000","","3","3","","","","","practice","7509","true",""
"1756","82","poldrack-single-stim","23","115830","0.0-9.2-0.6-0.6","pilot-40_ses-03_2","","1756","0","to_hand","<div class = watt_canvas><div class=""watt_vertical_line""></div></div><div class = watt_your_board><div class = watt_base></div><div class = watt_board_label><strong>Votre Planche</strong></div><div id = watt_peg_1><div class = watt_peg></div></div><div id = watt_peg_1 onclick = ""pegClick(this.id)""></div><div id = watt_peg_2><div class = watt_peg></div></div><div class = special id = watt_peg_2 onclick = ""pegClick(this.id)""><div class = ""watt_ball watt_Blue""><div class = watt_ball_label>B</div></div><div class = ""watt_ball watt_Green""><div class = watt_ball_label>G</div></div></div><div id = watt_peg_3><div class = watt_peg></div></div><div class = special id = watt_peg_3 onclick = ""pegClick(this.id)""><div class = ""watt_ball watt_Red""><div class = watt_ball_label>R</div></div></div></div><div class = watt_peg_board><div class = watt_base></div><div class = watt_board_label><strong>Planche Cible</strong></div><div id = watt_peg_1><div class = watt_peg></div></div><div id = watt_peg_1 ><div class = ""watt_ball watt_Red""><div class = watt_ball_label>R</div></div><div class = ""watt_ball watt_Green""><div class = watt_ball_label>G</div></div><div class = ""watt_ball watt_Blue""><div class = watt_ball_label>B</div></div></div><div id = watt_peg_2><div class = watt_peg></div></div><div id = watt_peg_2 ></div><div id = watt_peg_3><div class = watt_peg></div></div><div id = watt_peg_3 ></div></div><div class = watt_hand_box></div><div class = watt_hand_label><strong>Boule en main</strong></div>","71,82","1756","0,0,0,1,2,0,0,0,0","1","3","0,0,0,1,2,0,3,0,0","3,2,1,0,0,0,0,0,0","UA_without_intermeidate","2","practice","","",""
"485","89","poldrack-single-stim","24","116319","0.0-9.2-0.6-1.6","pilot-40_ses-03_2","","485","0","to_board","<div class = watt_canvas><div class=""watt_vertical_line""></div></div><div class = watt_your_board><div class = watt_base></div><div class = watt_board_label><strong>Votre Planche</strong></div><div id = watt_peg_1><div class = watt_peg></div></div><div class = special id = watt_peg_1 onclick = ""pegClick(this.id)""></div><div id = watt_peg_2><div class = watt_peg></div></div><div class = special id = watt_peg_2 onclick = ""pegClick(this.id)""><div class = ""watt_ball watt_Blue""><div class = watt_ball_label>B</div></div><div class = ""watt_ball watt_Green""><div class = watt_ball_label>G</div></div></div><div id = watt_peg_3><div class = watt_peg></div></div><div class = special id = watt_peg_3 onclick = ""pegClick(this.id)""></div></div><div class = watt_peg_board><div class = watt_base></div><div class = watt_board_label><strong>Planche Cible</strong></div><div id = watt_peg_1><div class = watt_peg></div></div><div id = watt_peg_1 ><div class = ""watt_ball watt_Red""><div class = watt_ball_label>R</div></div><div class = ""watt_ball watt_Green""><div class = watt_ball_label>G</div></div><div class = ""watt_ball watt_Blue""><div class = watt_ball_label>B</div></div></div><div id = watt_peg_2><div class = watt_peg></div></div><div id = watt_peg_2 ></div><div id = watt_peg_3><div class = watt_peg></div></div><div id = watt_peg_3 ></div></div><div class = watt_hand_box><div class = ""watt_hand_ball watt_Red""><div class = watt_ball_label>R</div></div></div><div class = watt_hand_label><strong>Boule en main</strong></div>","89,71,82","485","3,0,0,1,2,0,0,0,0","1","3","0,0,0,1,2,0,3,0,0","3,2,1,0,0,0,0,0,0","UA_without_intermeidate","2","practice","","",""
"523","71","poldrack-single-stim","25","116848","0.0-9.2-0.7-0.7","pilot-40_ses-03_2","","523","0","to_hand","<div class = watt_canvas><div class=""watt_vertical_line""></div></div><div class = watt_your_board><div class = watt_base></div><div class = watt_board_label><strong>Votre Planche</strong></div><div id = watt_peg_1><div class = watt_peg></div></div><div class = special id = watt_peg_1 onclick = ""pegClick(this.id)""><div class = ""watt_ball watt_Red""><div class = watt_ball_label>R</div></div></div><div id = watt_peg_2><div class = watt_peg></div></div><div class = special id = watt_peg_2 onclick = ""pegClick(this.id)""><div class = ""watt_ball watt_Blue""><div class = watt_ball_label>B</div></div><div class = ""watt_ball watt_Green""><div class = watt_ball_label>G</div></div></div><div id = watt_peg_3><div class = watt_peg></div></div><div id = watt_peg_3 onclick = ""pegClick(this.id)""></div></div><div class = watt_peg_board><div class = watt_base></div><div class = watt_board_label><strong>Planche Cible</strong></div><div id = watt_peg_1><div class = watt_peg></div></div><div id = watt_peg_1 ><div class = ""watt_ball watt_Red""><div class = watt_ball_label>R</div></div><div class = ""watt_ball watt_Green""><div class = watt_ball_label>G</div></div><div class = ""watt_ball watt_Blue""><div class = watt_ball_label>B</div></div></div><div id = watt_peg_2><div class = watt_peg></div></div><div id = watt_peg_2 ></div><div id = watt_peg_3><div class = watt_peg></div></div><div id = watt_peg_3 ></div></div><div class = watt_hand_box></div><div class = watt_hand_label><strong>Boule en main</strong></div>","89,71","523","3,0,0,1,0,0,0,0,0","2","3","0,0,0,1,2,0,3,0,0","3,2,1,0,0,0,0,0,0","UA_without_intermeidate","2","practice","","",""
"410","89","poldrack-single-stim","26","117265","0.0-9.2-0.7-1.7","pilot-40_ses-03_2","","410","0","to_board","<div class = watt_canvas><div class=""watt_vertical_line""></div></div><div class = watt_your_board><div class = watt_base></div><div class = watt_board_label><strong>Votre Planche</strong></div><div id = watt_peg_1><div class = watt_peg></div></div><div class = special id = watt_peg_1 onclick = ""pegClick(this.id)""><div class = ""watt_ball watt_Red""><div class = watt_ball_label>R</div></div></div><div id = watt_peg_2><div class = watt_peg></div></div><div class = special id = watt_peg_2 onclick = ""pegClick(this.id)""><div class = ""watt_ball watt_Blue""><div class = watt_ball_label>B</div></div></div><div id = watt_peg_3><div class = watt_peg></div></div><div class = special id = watt_peg_3 onclick = ""pegClick(this.id)""></div></div><div class = watt_peg_board><div class = watt_base></div><div class = watt_board_label><strong>Planche Cible</strong></div><div id = watt_peg_1><div class = watt_peg></div></div><div id = watt_peg_1 ><div class = ""watt_ball watt_Red""><div class = watt_ball_label>R</div></div><div class = ""watt_ball watt_Green""><div class = watt_ball_label>G</div></div><div class = ""watt_ball watt_Blue""><div class = watt_ball_label>B</div></div></div><div id = watt_peg_2><div class = watt_peg></div></div><div id = watt_peg_2 ></div><div id = watt_peg_3><div class = watt_peg></div></div><div id = watt_peg_3 ></div></div><div class = watt_hand_box><div class = ""watt_hand_ball watt_Green""><div class = watt_ball_label>G</div></div></div><div class = watt_hand_label><strong>Boule en main</strong></div>","89,71,82","410","3,2,0,1,0,0,0,0,0","2","3","0,0,0,1,2,0,3,0,0","3,2,1,0,0,0,0,0,0","UA_without_intermeidate","2","practice","","",""
"1191","71","poldrack-single-stim","27","118495","0.0-9.2-0.8-0.8","pilot-40_ses-03_2","","1191","0","to_hand","<div class = watt_canvas><div class=""watt_vertical_line""></div></div><div class = watt_your_board><div class = watt_base></div><div class = watt_board_label><strong>Votre Planche</strong></div><div id = watt_peg_1><div class = watt_peg></div></div><div class = special id = watt_peg_1 onclick = ""pegClick(this.id)""><div class = ""watt_ball watt_Red""><div class = watt_ball_label>R</div></div><div class = ""watt_ball watt_Green""><div class = watt_ball_label>G</div></div></div><div id = watt_peg_2><div class = watt_peg></div></div><div class = special id = watt_peg_2 onclick = ""pegClick(this.id)""><div class = ""watt_ball watt_Blue""><div class = watt_ball_label>B</div></div></div><div id = watt_peg_3><div class = watt_peg></div></div><div id = watt_peg_3 onclick = ""pegClick(this.id)""></div></div><div class = watt_peg_board><div class = watt_base></div><div class = watt_board_label><strong>Planche Cible</strong></div><div id = watt_peg_1><div class = watt_peg></div></div><div id = watt_peg_1 ><div class = ""watt_ball watt_Red""><div class = watt_ball_label>R</div></div><div class = ""watt_ball watt_Green""><div class = watt_ball_label>G</div></div><div class = ""watt_ball watt_Blue""><div class = watt_ball_label>B</div></div></div><div id = watt_peg_2><div class = watt_peg></div></div><div id = watt_peg_2 ></div><div id = watt_peg_3><div class = watt_peg></div></div><div id = watt_peg_3 ></div></div><div class = watt_hand_box></div><div class = watt_hand_label><strong>Boule en main</strong></div>","89,71","1191","3,2,0,0,0,0,0,0,0","3","3","0,0,0,1,2,0,3,0,0","3,2,1,0,0,0,0,0,0","UA_without_intermeidate","2","practice","","",""
"337","89","poldrack-single-stim","28","118837","0.0-9.2-0.8-1.8","pilot-40_ses-03_2","","337","0","to_board","<div class = watt_canvas><div class=""watt_vertical_line""></div></div><div class = watt_your_board><div class = watt_base></div><div class = watt_board_label><strong>Votre Planche</strong></div><div id = watt_peg_1><div class = watt_peg></div></div><div class = special id = watt_peg_1 onclick = ""pegClick(this.id)""><div class = ""watt_ball watt_Red""><div class = watt_ball_label>R</div></div><div class = ""watt_ball watt_Green""><div class = watt_ball_label>G</div></div></div><div id = watt_peg_2><div class = watt_peg></div></div><div class = special id = watt_peg_2 onclick = ""pegClick(this.id)""></div><div id = watt_peg_3><div class = watt_peg></div></div><div class = special id = watt_peg_3 onclick = ""pegClick(this.id)""></div></div><div class = watt_peg_board><div class = watt_base></div><div class = watt_board_label><strong>Planche Cible</strong></div><div id = watt_peg_1><div class = watt_peg></div></div><div id = watt_peg_1 ><div class = ""watt_ball watt_Red""><div class = watt_ball_label>R</div></div><div class = ""watt_ball watt_Green""><div class = watt_ball_label>G</div></div><div class = ""watt_ball watt_Blue""><div class = watt_ball_label>B</div></div></div><div id = watt_peg_2><div class = watt_peg></div></div><div id = watt_peg_2 ></div><div id = watt_peg_3><div class = watt_peg></div></div><div id = watt_peg_3 ></div></div><div class = watt_hand_box><div class = ""watt_hand_ball watt_Blue""><div class = watt_ball_label>B</div></div></div><div class = watt_hand_label><strong>Boule en main</strong></div>","89,71,82","337","3,2,1,0,0,0,0,0,0","3","3","0,0,0,1,2,0,3,0,0","3,2,1,0,0,0,0,0,0","UA_without_intermeidate","2","practice","","",""
"-1","-1","poldrack-single-stim","29","121050","0.0-9.2-1.2","pilot-40_ses-03_2","","2200","0","feedback","<div class = watt_canvas><div class=""watt_vertical_line""></div></div><div class = watt_your_board><div class = watt_base></div><div class = watt_board_label><strong>Votre Planche</strong></div><div id = watt_peg_1><div class = watt_peg></div></div><div id = watt_peg_1 ><div class = ""watt_ball watt_Red""><div class = watt_ball_label>R</div></div><div class = ""watt_ball watt_Green""><div class = watt_ball_label>G</div></div><div class = ""watt_ball watt_Blue""><div class = watt_ball_label>B</div></div></div><div id = watt_peg_2><div class = watt_peg></div></div><div id = watt_peg_2 ></div><div id = watt_peg_3><div class = watt_peg></div></div><div id = watt_peg_3 ></div></div><div class = watt_peg_board><div class = watt_base></div><div class = watt_board_label><strong>Planche Cible</strong></div><div id = watt_peg_1><div class = watt_peg></div></div><div id = watt_peg_1 ><div class = ""watt_ball watt_Red""><div class = watt_ball_label>R</div></div><div class = ""watt_ball watt_Green""><div class = watt_ball_label>G</div></div><div class = ""watt_ball watt_Blue""><div class = watt_ball_label>B</div></div></div><div id = watt_peg_2><div class = watt_peg></div></div><div id = watt_peg_2 ></div><div id = watt_peg_3><div class = watt_peg></div></div><div id = watt_peg_3 ></div></div><div class = watt_feedbackbox><p class = center-text>Complete</p></div>","none","1000","","3","3","","","","","practice","6980","true",""
"1788","71","poldrack-single-stim","30","122842","0.0-9.3-0.9-0.9","pilot-40_ses-03_2","","1788","0","to_hand","<div class = watt_canvas><div class=""watt_vertical_line""></div></div><div class = watt_your_board><div class = watt_base></div><div class = watt_board_label><strong>Votre Planche</strong></div><div id = watt_peg_1><div class = watt_peg></div></div><div id = watt_peg_1 onclick = ""pegClick(this.id)""></div><div id = watt_peg_2><div class = watt_peg></div></div><div class = special id = watt_peg_2 onclick = ""pegClick(this.id)""><div class = ""watt_ball watt_Blue""><div class = watt_ball_label>B</div></div><div class = ""watt_ball watt_Red""><div class = watt_ball_label>R</div></div></div><div id = watt_peg_3><div class = watt_peg></div></div><div class = special id = watt_peg_3 onclick = ""pegClick(this.id)""><div class = ""watt_ball watt_Green""><div class = watt_ball_label>G</div></div></div></div><div class = watt_peg_board><div class = watt_base></div><div class = watt_board_label><strong>Planche Cible</strong></div><div id = watt_peg_1><div class = watt_peg></div></div><div id = watt_peg_1 ><div class = ""watt_ball watt_Red""><div class = watt_ball_label>R</div></div><div class = ""watt_ball watt_Green""><div class = watt_ball_label>G</div></div><div class = ""watt_ball watt_Blue""><div class = watt_ball_label>B</div></div></div><div id = watt_peg_2><div class = watt_peg></div></div><div id = watt_peg_2 ></div><div id = watt_peg_3><div class = watt_peg></div></div><div id = watt_peg_3 ></div></div><div class = watt_hand_box></div><div class = watt_hand_label><strong>Boule en main</strong></div>","71,82","1788","0,0,0,1,0,0,3,0,0","1","3","0,0,0,1,2,0,3,0,0","2,3,1,0,0,0,0,0,0","UA_without_intermeidate","3","practice","","",""
"317","89","poldrack-single-stim","31","123162","0.0-9.3-0.9-1.9","pilot-40_ses-03_2","","317","0","to_board","<div class = watt_canvas><div class=""watt_vertical_line""></div></div><div class = watt_your_board><div class = watt_base></div><div class = watt_board_label><strong>Votre Planche</strong></div><div id = watt_peg_1><div class = watt_peg></div></div><div class = special id = watt_peg_1 onclick = ""pegClick(this.id)""></div><div id = watt_peg_2><div class = watt_peg></div></div><div class = special id = watt_peg_2 onclick = ""pegClick(this.id)""><div class = ""watt_ball watt_Blue""><div class = watt_ball_label>B</div></div></div><div id = watt_peg_3><div class = watt_peg></div></div><div class = special id = watt_peg_3 onclick = ""pegClick(this.id)""><div class = ""watt_ball watt_Green""><div class = watt_ball_label>G</div></div></div></div><div class = watt_peg_board><div class = watt_base></div><div class = watt_board_label><strong>Planche Cible</strong></div><div id = watt_peg_1><div class = watt_peg></div></div><div id = watt_peg_1 ><div class = ""watt_ball watt_Red""><div class = watt_ball_label>R</div></div><div class = ""watt_ball watt_Green""><div class = watt_ball_label>G</div></div><div class = ""watt_ball watt_Blue""><div class = watt_ball_label>B</div></div></div><div id = watt_peg_2><div class = watt_peg></div></div><div id = watt_peg_2 ></div><div id = watt_peg_3><div class = watt_peg></div></div><div id = watt_peg_3 ></div></div><div class = watt_hand_box><div class = ""watt_hand_ball watt_Red""><div class = watt_ball_label>R</div></div></div><div class = watt_hand_label><strong>Boule en main</strong></div>","89,71,82","317","2,0,0,1,0,0,3,0,0","1","3","0,0,0,1,2,0,3,0,0","2,3,1,0,0,0,0,0,0","UA_without_intermeidate","3","practice","","",""
"514","82","poldrack-single-stim","32","123685","0.0-9.3-0.10-0.10","pilot-40_ses-03_2","","514","0","to_hand","<div class = watt_canvas><div class=""watt_vertical_line""></div></div><div class = watt_your_board><div class = watt_base></div><div class = watt_board_label><strong>Votre Planche</strong></div><div id = watt_peg_1><div class = watt_peg></div></div><div class = special id = watt_peg_1 onclick = ""pegClick(this.id)""><div class = ""watt_ball watt_Red""><div class = watt_ball_label>R</div></div></div><div id = watt_peg_2><div class = watt_peg></div></div><div class = special id = watt_peg_2 onclick = ""pegClick(this.id)""><div class = ""watt_ball watt_Blue""><div class = watt_ball_label>B</div></div></div><div id = watt_peg_3><div class = watt_peg></div></div><div class = special id = watt_peg_3 onclick = ""pegClick(this.id)""><div class = ""watt_ball watt_Green""><div class = watt_ball_label>G</div></div></div></div><div class = watt_peg_board><div class = watt_base></div><div class = watt_board_label><strong>Planche Cible</strong></div><div id = watt_peg_1><div class = watt_peg></div></div><div id = watt_peg_1 ><div class = ""watt_ball watt_Red""><div class = watt_ball_label>R</div></div><div class = ""watt_ball watt_Green""><div class = watt_ball_label>G</div></div><div class = ""watt_ball watt_Blue""><div class = watt_ball_label>B</div></div></div><div id = watt_peg_2><div class = watt_peg></div></div><div id = watt_peg_2 ></div><div id = watt_peg_3><div class = watt_peg></div></div><div id = watt_peg_3 ></div></div><div class = watt_hand_box></div><div class = watt_hand_label><strong>Boule en main</strong></div>","89,71,82","514","2,0,0,1,0,0,0,0,0","2","3","0,0,0,1,2,0,3,0,0","2,3,1,0,0,0,0,0,0","UA_without_intermeidate","3","practice","","",""
"739","89","poldrack-single-stim","33","124429","0.0-9.3-0.10-1.10","pilot-40_ses-03_2","","739","0","to_board","<div class = watt_canvas><div class=""watt_vertical_line""></div></div><div class = watt_your_board><div class = watt_base></div><div class = watt_board_label><strong>Votre Planche</strong></div><div id = watt_peg_1><div class = watt_peg></div></div><div class = special id = watt_peg_1 onclick = ""pegClick(this.id)""><div class = ""watt_ball watt_Red""><div class = watt_ball_label>R</div></div></div><div id = watt_peg_2><div class = watt_peg></div></div><div class = special id = watt_peg_2 onclick = ""pegClick(this.id)""><div class = ""watt_ball watt_Blue""><div class = watt_ball_label>B</div></div></div><div id = watt_peg_3><div class = watt_peg></div></div><div class = special id = watt_peg_3 onclick = ""pegClick(this.id)""></div></div><div class = watt_peg_board><div class = watt_base></div><div class = watt_board_label><strong>Planche Cible</strong></div><div id = watt_peg_1><div class = watt_peg></div></div><div id = watt_peg_1 ><div class = ""watt_ball watt_Red""><div class = watt_ball_label>R</div></div><div class = ""watt_ball watt_Green""><div class = watt_ball_label>G</div></div><div class = ""watt_ball watt_Blue""><div class = watt_ball_label>B</div></div></div><div id = watt_peg_2><div class = watt_peg></div></div><div id = watt_peg_2 ></div><div id = watt_peg_3><div class = watt_peg></div></div><div id = watt_peg_3 ></div></div><div class = watt_hand_box><div class = ""watt_hand_ball watt_Green""><div class = watt_ball_label>G</div></div></div><div class = watt_hand_label><strong>Boule en main</strong></div>","89,71,82","739","2,3,0,1,0,0,0,0,0","2","3","0,0,0,1,2,0,3,0,0","2,3,1,0,0,0,0,0,0","UA_without_intermeidate","3","practice","","",""
"487","71","poldrack-single-stim","34","124928","0.0-9.3-0.11-0.11","pilot-40_ses-03_2","","487","0","to_hand","<div class = watt_canvas><div class=""watt_vertical_line""></div></div><div class = watt_your_board><div class = watt_base></div><div class = watt_board_label><strong>Votre Planche</strong></div><div id = watt_peg_1><div class = watt_peg></div></div><div class = special id = watt_peg_1 onclick = ""pegClick(this.id)""><div class = ""watt_ball watt_Red""><div class = watt_ball_label>R</div></div><div class = ""watt_ball watt_Green""><div class = watt_ball_label>G</div></div></div><div id = watt_peg_2><div class = watt_peg></div></div><div class = special id = watt_peg_2 onclick = ""pegClick(this.id)""><div class = ""watt_ball watt_Blue""><div class = watt_ball_label>B</div></div></div><div id = watt_peg_3><div class = watt_peg></div></div><div id = watt_peg_3 onclick = ""pegClick(this.id)""></div></div><div class = watt_peg_board><div class = watt_base></div><div class = watt_board_label><strong>Planche Cible</strong></div><div id = watt_peg_1><div class = watt_peg></div></div><div id = watt_peg_1 ><div class = ""watt_ball watt_Red""><div class = watt_ball_label>R</div></div><div class = ""watt_ball watt_Green""><div class = watt_ball_label>G</div></div><div class = ""watt_ball watt_Blue""><div class = watt_ball_label>B</div></div></div><div id = watt_peg_2><div class = watt_peg></div></div><div id = watt_peg_2 ></div><div id = watt_peg_3><div class = watt_peg></div></div><div id = watt_peg_3 ></div></div><div class = watt_hand_box></div><div class = watt_hand_label><strong>Boule en main</strong></div>","89,71","487","2,3,0,0,0,0,0,0,0","3","3","0,0,0,1,2,0,3,0,0","2,3,1,0,0,0,0,0,0","UA_without_intermeidate","3","practice","","",""
"387","89","poldrack-single-stim","35","125319","0.0-9.3-0.11-1.11","pilot-40_ses-03_2","","387","0","to_board","<div class = watt_canvas><div class=""watt_vertical_line""></div></div><div class = watt_your_board><div class = watt_base></div><div class = watt_board_label><strong>Votre Planche</strong></div><div id = watt_peg_1><div class = watt_peg></div></div><div class = special id = watt_peg_1 onclick = ""pegClick(this.id)""><div class = ""watt_ball watt_Red""><div class = watt_ball_label>R</div></div><div class = ""watt_ball watt_Green""><div class = watt_ball_label>G</div></div></div><div id = watt_peg_2><div class = watt_peg></div></div><div class = special id = watt_peg_2 onclick = ""pegClick(this.id)""></div><div id = watt_peg_3><div class = watt_peg></div></div><div class = special id = watt_peg_3 onclick = ""pegClick(this.id)""></div></div><div class = watt_peg_board><div class = watt_base></div><div class = watt_board_label><strong>Planche Cible</strong></div><div id = watt_peg_1><div class = watt_peg></div></div><div id = watt_peg_1 ><div class = ""watt_ball watt_Red""><div class = watt_ball_label>R</div></div><div class = ""watt_ball watt_Green""><div class = watt_ball_label>G</div></div><div class = ""watt_ball watt_Blue""><div class = watt_ball_label>B</div></div></div><div id = watt_peg_2><div class = watt_peg></div></div><div id = watt_peg_2 ></div><div id = watt_peg_3><div class = watt_peg></div></div><div id = watt_peg_3 ></div></div><div class = watt_hand_box><div class = ""watt_hand_ball watt_Blue""><div class = watt_ball_label>B</div></div></div><div class = watt_hand_label><strong>Boule en main</strong></div>","89,71,82","387","2,3,1,0,0,0,0,0,0","3","3","0,0,0,1,2,0,3,0,0","2,3,1,0,0,0,0,0,0","UA_without_intermeidate","3","practice","","",""
"-1","-1","poldrack-single-stim","36","127341","0.0-9.3-1.3","pilot-40_ses-03_2","","2000","0","feedback","<div class = watt_canvas><div class=""watt_vertical_line""></div></div><div class = watt_your_board><div class = watt_base></div><div class = watt_board_label><strong>Votre Planche</strong></div><div id = watt_peg_1><div class = watt_peg></div></div><div id = watt_peg_1 ><div class = ""watt_ball watt_Red""><div class = watt_ball_label>R</div></div><div class = ""watt_ball watt_Green""><div class = watt_ball_label>G</div></div><div class = ""watt_ball watt_Blue""><div class = watt_ball_label>B</div></div></div><div id = watt_peg_2><div class = watt_peg></div></div><div id = watt_peg_2 ></div><div id = watt_peg_3><div class = watt_peg></div></div><div id = watt_peg_3 ></div></div><div class = watt_peg_board><div class = watt_base></div><div class = watt_board_label><strong>Planche Cible</strong></div><div id = watt_peg_1><div class = watt_peg></div></div><div id = watt_peg_1 ><div class = ""watt_ball watt_Red""><div class = watt_ball_label>R</div></div><div class = ""watt_ball watt_Green""><div class = watt_ball_label>G</div></div><div class = ""watt_ball watt_Blue""><div class = watt_ball_label>B</div></div></div><div id = watt_peg_2><div class = watt_peg></div></div><div id = watt_peg_2 ></div><div id = watt_peg_3><div class = watt_peg></div></div><div id = watt_peg_3 ></div></div><div class = watt_feedbackbox><p class = center-text>Complete</p></div>","none","1000","","3","3","","","","","practice","6291","true",""
"-1","-1","poldrack-single-stim","37","128861","0.0-10.0","pilot-40_ses-03_2","","1500","500","test_start_block","<div class = centerbox><div class = center-text>Preparez-vous!</p></div>","none","1500","","","","","","","","","","",""
"1866","89","poldrack-single-stim","38","131249","0.0-11.0-0.0-0.0","pilot-40_ses-03_2","","1866","0","to_hand","<div class = watt_canvas><div class=""watt_vertical_line""></div></div><div class = watt_your_board><div class = watt_base></div><div class = watt_board_label><strong>Votre Planche</strong></div><div id = watt_peg_1><div class = watt_peg></div></div><div class = special id = watt_peg_1 onclick = ""pegClick(this.id)""><div class = ""watt_ball watt_Green""><div class = watt_ball_label>G</div></div><div class = ""watt_ball watt_Blue""><div class = watt_ball_label>B</div></div><div class = ""watt_ball watt_Red""><div class = watt_ball_label>R</div></div></div><div id = watt_peg_2><div class = watt_peg></div></div><div id = watt_peg_2 onclick = ""pegClick(this.id)""></div><div id = watt_peg_3><div class = watt_peg></div></div><div id = watt_peg_3 onclick = ""pegClick(this.id)""></div></div><div class = watt_peg_board><div class = watt_base></div><div class = watt_board_label><strong>Planche Cible</strong></div><div id = watt_peg_1><div class = watt_peg></div></div><div id = watt_peg_1 ></div><div id = watt_peg_2><div class = watt_peg></div></div><div id = watt_peg_2 ><div class = ""watt_ball watt_Red""><div class = watt_ball_label>R</div></div><div class = ""watt_ball watt_Blue""><div class = watt_ball_label>B</div></div></div><div id = watt_peg_3><div class = watt_peg></div></div><div id = watt_peg_3 ><div class = ""watt_ball watt_Green""><div class = watt_ball_label>G</div></div></div></div><div class = watt_hand_box></div><div class = watt_hand_label><strong>Boule en main</strong></div>","89","1866","1,2,0,0,0,0,0,0,0","1","3","1,2,3,0,0,0,0,0,0","0,0,0,3,2,0,1,0,0","PA_without_intermediate","0","test","","",""
"490","71","poldrack-single-stim","39","131745","0.0-11.0-0.0-1.0","pilot-40_ses-03_2","","490","0","to_board","<div class = watt_canvas><div class=""watt_vertical_line""></div></div><div class = watt_your_board><div class = watt_base></div><div class = watt_board_label><strong>Votre Planche</strong></div><div id = watt_peg_1><div class = watt_peg></div></div><div class = special id = watt_peg_1 onclick = ""pegClick(this.id)""><div class = ""watt_ball watt_Green""><div class = watt_ball_label>G</div></div><div class = ""watt_ball watt_Blue""><div class = watt_ball_label>B</div></div></div><div id = watt_peg_2><div class = watt_peg></div></div><div class = special id = watt_peg_2 onclick = ""pegClick(this.id)""></div><div id = watt_peg_3><div class = watt_peg></div></div><div class = special id = watt_peg_3 onclick = ""pegClick(this.id)""></div></div><div class = watt_peg_board><div class = watt_base></div><div class = watt_board_label><strong>Planche Cible</strong></div><div id = watt_peg_1><div class = watt_peg></div></div><div id = watt_peg_1 ></div><div id = watt_peg_2><div class = watt_peg></div></div><div id = watt_peg_2 ><div class = ""watt_ball watt_Red""><div class = watt_ball_label>R</div></div><div class = ""watt_ball watt_Blue""><div class = watt_ball_label>B</div></div></div><div id = watt_peg_3><div class = watt_peg></div></div><div id = watt_peg_3 ><div class = ""watt_ball watt_Green""><div class = watt_ball_label>G</div></div></div></div><div class = watt_hand_box><div class = ""watt_hand_ball watt_Red""><div class = watt_ball_label>R</div></div></div><div class = watt_hand_label><strong>Boule en main</strong></div>","89,71,82","490","1,2,0,3,0,0,0,0,0","1","3","1,2,3,0,0,0,0,0,0","0,0,0,3,2,0,1,0,0","PA_without_intermediate","0","test","","",""
"768","89","poldrack-single-stim","40","132524","0.0-11.0-0.1-0.1","pilot-40_ses-03_2","","768","0","to_hand","<div class = watt_canvas><div class=""watt_vertical_line""></div></div><div class = watt_your_board><div class = watt_base></div><div class = watt_board_label><strong>Votre Planche</strong></div><div id = watt_peg_1><div class = watt_peg></div></div><div class = special id = watt_peg_1 onclick = ""pegClick(this.id)""><div class = ""watt_ball watt_Green""><div class = watt_ball_label>G</div></div><div class = ""watt_ball watt_Blue""><div class = watt_ball_label>B</div></div></div><div id = watt_peg_2><div class = watt_peg></div></div><div class = special id = watt_peg_2 onclick = ""pegClick(this.id)""><div class = ""watt_ball watt_Red""><div class = watt_ball_label>R</div></div></div><div id = watt_peg_3><div class = watt_peg></div></div><div id = watt_peg_3 onclick = ""pegClick(this.id)""></div></div><div class = watt_peg_board><div class = watt_base></div><div class = watt_board_label><strong>Planche Cible</strong></div><div id = watt_peg_1><div class = watt_peg></div></div><div id = watt_peg_1 ></div><div id = watt_peg_2><div class = watt_peg></div></div><div id = watt_peg_2 ><div class = ""watt_ball watt_Red""><div class = watt_ball_label>R</div></div><div class = ""watt_ball watt_Blue""><div class = watt_ball_label>B</div></div></div><div id = watt_peg_3><div class = watt_peg></div></div><div id = watt_peg_3 ><div class = ""watt_ball watt_Green""><div class = watt_ball_label>G</div></div></div></div><div class = watt_hand_box></div><div class = watt_hand_label><strong>Boule en main</strong></div>","89,71","768","1,0,0,3,0,0,0,0,0","2","3","1,2,3,0,0,0,0,0,0","0,0,0,3,2,0,1,0,0","PA_without_intermediate","0","test","","",""
"663","71","poldrack-single-stim","41","133190","0.0-11.0-0.1-1.1","pilot-40_ses-03_2","","663","0","to_board","<div class = watt_canvas><div class=""watt_vertical_line""></div></div><div class = watt_your_board><div class = watt_base></div><div class = watt_board_label><strong>Votre Planche</strong></div><div id = watt_peg_1><div class = watt_peg></div></div><div class = special id = watt_peg_1 onclick = ""pegClick(this.id)""><div class = ""watt_ball watt_Green""><div class = watt_ball_label>G</div></div></div><div id = watt_peg_2><div class = watt_peg></div></div><div class = special id = watt_peg_2 onclick = ""pegClick(this.id)""><div class = ""watt_ball watt_Red""><div class = watt_ball_label>R</div></div></div><div id = watt_peg_3><div class = watt_peg></div></div><div class = special id = watt_peg_3 onclick = ""pegClick(this.id)""></div></div><div class = watt_peg_board><div class = watt_base></div><div class = watt_board_label><strong>Planche Cible</strong></div><div id = watt_peg_1><div class = watt_peg></div></div><div id = watt_peg_1 ></div><div id = watt_peg_2><div class = watt_peg></div></div><div id = watt_peg_2 ><div class = ""watt_ball watt_Red""><div class = watt_ball_label>R</div></div><div class = ""watt_ball watt_Blue""><div class = watt_ball_label>B</div></div></div><div id = watt_peg_3><div class = watt_peg></div></div><div id = watt_peg_3 ><div class = ""watt_ball watt_Green""><div class = watt_ball_label>G</div></div></div></div><div class = watt_hand_box><div class = ""watt_hand_ball watt_Blue""><div class = watt_ball_label>B</div></div></div><div class = watt_hand_label><strong>Boule en main</strong></div>","89,71,82","663","1,0,0,3,2,0,0,0,0","2","3","1,2,3,0,0,0,0,0,0","0,0,0,3,2,0,1,0,0","PA_without_intermediate","0","test","","",""
"449","89","poldrack-single-stim","42","133652","0.0-11.0-0.2-0.2","pilot-40_ses-03_2","","449","0","to_hand","<div class = watt_canvas><div class=""watt_vertical_line""></div></div><div class = watt_your_board><div class = watt_base></div><div class = watt_board_label><strong>Votre Planche</strong></div><div id = watt_peg_1><div class = watt_peg></div></div><div class = special id = watt_peg_1 onclick = ""pegClick(this.id)""><div class = ""watt_ball watt_Green""><div class = watt_ball_label>G</div></div></div><div id = watt_peg_2><div class = watt_peg></div></div><div class = special id = watt_peg_2 onclick = ""pegClick(this.id)""><div class = ""watt_ball watt_Red""><div class = watt_ball_label>R</div></div><div class = ""watt_ball watt_Blue""><div class = watt_ball_label>B</div></div></div><div id = watt_peg_3><div class = watt_peg></div></div><div id = watt_peg_3 onclick = ""pegClick(this.id)""></div></div><div class = watt_peg_board><div class = watt_base></div><div class = watt_board_label><strong>Planche Cible</strong></div><div id = watt_peg_1><div class = watt_peg></div></div><div id = watt_peg_1 ></div><div id = watt_peg_2><div class = watt_peg></div></div><div id = watt_peg_2 ><div class = ""watt_ball watt_Red""><div class = watt_ball_label>R</div></div><div class = ""watt_ball watt_Blue""><div class = watt_ball_label>B</div></div></div><div id = watt_peg_3><div class = watt_peg></div></div><div id = watt_peg_3 ><div class = ""watt_ball watt_Green""><div class = watt_ball_label>G</div></div></div></div><div class = watt_hand_box></div><div class = watt_hand_label><strong>Boule en main</strong></div>","89,71","449","0,0,0,3,2,0,0,0,0","3","3","1,2,3,0,0,0,0,0,0","0,0,0,3,2,0,1,0,0","PA_without_intermediate","0","test","","",""
"373","82","poldrack-single-stim","43","134030","0.0-11.0-0.2-1.2","pilot-40_ses-03_2","","373","0","to_board","<div class = watt_canvas><div class=""watt_vertical_line""></div></div><div class = watt_your_board><div class = watt_base></div><div class = watt_board_label><strong>Votre Planche</strong></div><div id = watt_peg_1><div class = watt_peg></div></div><div class = special id = watt_peg_1 onclick = ""pegClick(this.id)""></div><div id = watt_peg_2><div class = watt_peg></div></div><div class = special id = watt_peg_2 onclick = ""pegClick(this.id)""><div class = ""watt_ball watt_Red""><div class = watt_ball_label>R</div></div><div class = ""watt_ball watt_Blue""><div class = watt_ball_label>B</div></div></div><div id = watt_peg_3><div class = watt_peg></div></div><div class = special id = watt_peg_3 onclick = ""pegClick(this.id)""></div></div><div class = watt_peg_board><div class = watt_base></div><div class = watt_board_label><strong>Planche Cible</strong></div><div id = watt_peg_1><div class = watt_peg></div></div><div id = watt_peg_1 ></div><div id = watt_peg_2><div class = watt_peg></div></div><div id = watt_peg_2 ><div class = ""watt_ball watt_Red""><div class = watt_ball_label>R</div></div><div class = ""watt_ball watt_Blue""><div class = watt_ball_label>B</div></div></div><div id = watt_peg_3><div class = watt_peg></div></div><div id = watt_peg_3 ><div class = ""watt_ball watt_Green""><div class = watt_ball_label>G</div></div></div></div><div class = watt_hand_box><div class = ""watt_hand_ball watt_Green""><div class = watt_ball_label>G</div></div></div><div class = watt_hand_label><strong>Boule en main</strong></div>","89,71,82","373","0,0,0,3,2,0,1,0,0","3","3","1,2,3,0,0,0,0,0,0","0,0,0,3,2,0,1,0,0","PA_without_intermediate","0","test","","",""
"-1","-1","poldrack-single-stim","44","137140","0.0-11.0-1.0","pilot-40_ses-03_2","","3088","0","feedback","<div class = watt_canvas><div class=""watt_vertical_line""></div></div><div class = watt_your_board><div class = watt_base></div><div class = watt_board_label><strong>Votre Planche</strong></div><div id = watt_peg_1><div class = watt_peg></div></div><div id = watt_peg_1 ></div><div id = watt_peg_2><div class = watt_peg></div></div><div id = watt_peg_2 ><div class = ""watt_ball watt_Red""><div class = watt_ball_label>R</div></div><div class = ""watt_ball watt_Blue""><div class = watt_ball_label>B</div></div></div><div id = watt_peg_3><div class = watt_peg></div></div><div id = watt_peg_3 ><div class = ""watt_ball watt_Green""><div class = watt_ball_label>G</div></div></div></div><div class = watt_peg_board><div class = watt_base></div><div class = watt_board_label><strong>Planche Cible</strong></div><div id = watt_peg_1><div class = watt_peg></div></div><div id = watt_peg_1 ></div><div id = watt_peg_2><div class = watt_peg></div></div><div id = watt_peg_2 ><div class = ""watt_ball watt_Red""><div class = watt_ball_label>R</div></div><div class = ""watt_ball watt_Blue""><div class = watt_ball_label>B</div></div></div><div id = watt_peg_3><div class = watt_peg></div></div><div id = watt_peg_3 ><div class = ""watt_ball watt_Green""><div class = watt_ball_label>G</div></div></div></div><div class = watt_feedbackbox><p class = center-text>Complete</p></div>","none","1000","","3","3","","","","","test","8279","true",""
"1299","71","poldrack-single-stim","45","138450","0.0-11.1-0.3-0.3","pilot-40_ses-03_2","","1299","0","to_hand","<div class = watt_canvas><div class=""watt_vertical_line""></div></div><div class = watt_your_board><div class = watt_base></div><div class = watt_board_label><strong>Votre Planche</strong></div><div id = watt_peg_1><div class = watt_peg></div></div><div id = watt_peg_1 onclick = ""pegClick(this.id)""></div><div id = watt_peg_2><div class = watt_peg></div></div><div class = special id = watt_peg_2 onclick = ""pegClick(this.id)""><div class = ""watt_ball watt_Green""><div class = watt_ball_label>G</div></div><div class = ""watt_ball watt_Blue""><div class = watt_ball_label>B</div></div><div class = ""watt_ball watt_Red""><div class = watt_ball_label>R</div></div></div><div id = watt_peg_3><div class = watt_peg></div></div><div id = watt_peg_3 onclick = ""pegClick(this.id)""></div></div><div class = watt_peg_board><div class = watt_base></div><div class = watt_board_label><strong>Planche Cible</strong></div><div id = watt_peg_1><div class = watt_peg></div></div><div id = watt_peg_1 ><div class = ""watt_ball watt_Blue""><div class = watt_ball_label>B</div></div></div><div id = watt_peg_2><div class = watt_peg></div></div><div id = watt_peg_2 ><div class = ""watt_ball watt_Green""><div class = watt_ball_label>G</div></div><div class = ""watt_ball watt_Red""><div class = watt_ball_label>R</div></div></div><div id = watt_peg_3><div class = watt_peg></div></div><div id = watt_peg_3 ></div></div><div class = watt_hand_box></div><div class = watt_hand_label><strong>Boule en main</strong></div>","71","1299","0,0,0,1,2,0,0,0,0","1","3","0,0,0,1,2,3,0,0,0","2,0,0,1,3,0,0,0,0","PA_with_intermediate","1","test","","",""
"1171","82","poldrack-single-stim","46","139625","0.0-11.1-0.3-1.3","pilot-40_ses-03_2","","1171","0","to_board","<div class = watt_canvas><div class=""watt_vertical_line""></div></div><div class = watt_your_board><div class = watt_base></div><div class = watt_board_label><strong>Votre Planche</strong></div><div id = watt_peg_1><div class = watt_peg></div></div><div class = special id = watt_peg_1 onclick = ""pegClick(this.id)""></div><div id = watt_peg_2><div class = watt_peg></div></div><div class = special id = watt_peg_2 onclick = ""pegClick(this.id)""><div class = ""watt_ball watt_Green""><div class = watt_ball_label>G</div></div><div class = ""watt_ball watt_Blue""><div class = watt_ball_label>B</div></div></div><div id = watt_peg_3><div class = watt_peg></div></div><div class = special id = watt_peg_3 onclick = ""pegClick(this.id)""></div></div><div class = watt_peg_board><div class = watt_base></div><div class = watt_board_label><strong>Planche Cible</strong></div><div id = watt_peg_1><div class = watt_peg></div></div><div id = watt_peg_1 ><div class = ""watt_ball watt_Blue""><div class = watt_ball_label>B</div></div></div><div id = watt_peg_2><div class = watt_peg></div></div><div id = watt_peg_2 ><div class = ""watt_ball watt_Green""><div class = watt_ball_label>G</div></div><div class = ""watt_ball watt_Red""><div class = watt_ball_label>R</div></div></div><div id = watt_peg_3><div class = watt_peg></div></div><div id = watt_peg_3 ></div></div><div class = watt_hand_box><div class = ""watt_hand_ball watt_Red""><div class = watt_ball_label>R</div></div></div><div class = watt_hand_label><strong>Boule en main</strong></div>","89,71,82","1171","0,0,0,1,2,0,3,0,0","1","3","0,0,0,1,2,3,0,0,0","2,0,0,1,3,0,0,0,0","PA_with_intermediate","1","test","","",""
"651","71","poldrack-single-stim","47","140286","0.0-11.1-0.4-0.4","pilot-40_ses-03_2","","651","0","to_hand","<div class = watt_canvas><div class=""watt_vertical_line""></div></div><div class = watt_your_board><div class = watt_base></div><div class = watt_board_label><strong>Votre Planche</strong></div><div id = watt_peg_1><div class = watt_peg></div></div><div id = watt_peg_1 onclick = ""pegClick(this.id)""></div><div id = watt_peg_2><div class = watt_peg></div></div><div class = special id = watt_peg_2 onclick = ""pegClick(this.id)""><div class = ""watt_ball watt_Green""><div class = watt_ball_label>G</div></div><div class = ""watt_ball watt_Blue""><div class = watt_ball_label>B</div></div></div><div id = watt_peg_3><div class = watt_peg></div></div><div class = special id = watt_peg_3 onclick = ""pegClick(this.id)""><div class = ""watt_ball watt_Red""><div class = watt_ball_label>R</div></div></div></div><div class = watt_peg_board><div class = watt_base></div><div class = watt_board_label><strong>Planche Cible</strong></div><div id = watt_peg_1><div class = watt_peg></div></div><div id = watt_peg_1 ><div class = ""watt_ball watt_Blue""><div class = watt_ball_label>B</div></div></div><div id = watt_peg_2><div class = watt_peg></div></div><div id = watt_peg_2 ><div class = ""watt_ball watt_Green""><div class = watt_ball_label>G</div></div><div class = ""watt_ball watt_Red""><div class = watt_ball_label>R</div></div></div><div id = watt_peg_3><div class = watt_peg></div></div><div id = watt_peg_3 ></div></div><div class = watt_hand_box></div><div class = watt_hand_label><strong>Boule en main</strong></div>","71,82","651","0,0,0,1,0,0,3,0,0","2","3","0,0,0,1,2,3,0,0,0","2,0,0,1,3,0,0,0,0","PA_with_intermediate","1","test","","",""
"516","89","poldrack-single-stim","48","140851","0.0-11.1-0.4-1.4","pilot-40_ses-03_2","","516","0","to_board","<div class = watt_canvas><div class=""watt_vertical_line""></div></div><div class = watt_your_board><div class = watt_base></div><div class = watt_board_label><strong>Votre Planche</strong></div><div id = watt_peg_1><div class = watt_peg></div></div><div class = special id = watt_peg_1 onclick = ""pegClick(this.id)""></div><div id = watt_peg_2><div class = watt_peg></div></div><div class = special id = watt_peg_2 onclick = ""pegClick(this.id)""><div class = ""watt_ball watt_Green""><div class = watt_ball_label>G</div></div></div><div id = watt_peg_3><div class = watt_peg></div></div><div class = special id = watt_peg_3 onclick = ""pegClick(this.id)""><div class = ""watt_ball watt_Red""><div class = watt_ball_label>R</div></div></div></div><div class = watt_peg_board><div class = watt_base></div><div class = watt_board_label><strong>Planche Cible</strong></div><div id = watt_peg_1><div class = watt_peg></div></div><div id = watt_peg_1 ><div class = ""watt_ball watt_Blue""><div class = watt_ball_label>B</div></div></div><div id = watt_peg_2><div class = watt_peg></div></div><div id = watt_peg_2 ><div class = ""watt_ball watt_Green""><div class = watt_ball_label>G</div></div><div class = ""watt_ball watt_Red""><div class = watt_ball_label>R</div></div></div><div id = watt_peg_3><div class = watt_peg></div></div><div id = watt_peg_3 ></div></div><div class = watt_hand_box><div class = ""watt_hand_ball watt_Blue""><div class = watt_ball_label>B</div></div></div><div class = watt_hand_label><strong>Boule en main</strong></div>","89,71,82","516","2,0,0,1,0,0,3,0,0","2","3","0,0,0,1,2,3,0,0,0","2,0,0,1,3,0,0,0,0","PA_with_intermediate","1","test","","",""
"884","82","poldrack-single-stim","49","141748","0.0-11.1-0.5-0.5","pilot-40_ses-03_2","","884","0","to_hand","<div class = watt_canvas><div class=""watt_vertical_line""></div></div><div class = watt_your_board><div class = watt_base></div><div class = watt_board_label><strong>Votre Planche</strong></div><div id = watt_peg_1><div class = watt_peg></div></div><div class = special id = watt_peg_1 onclick = ""pegClick(this.id)""><div class = ""watt_ball watt_Blue""><div class = watt_ball_label>B</div></div></div><div id = watt_peg_2><div class = watt_peg></div></div><div class = special id = watt_peg_2 onclick = ""pegClick(this.id)""><div class = ""watt_ball watt_Green""><div class = watt_ball_label>G</div></div></div><div id = watt_peg_3><div class = watt_peg></div></div><div class = special id = watt_peg_3 onclick = ""pegClick(this.id)""><div class = ""watt_ball watt_Red""><div class = watt_ball_label>R</div></div></div></div><div class = watt_peg_board><div class = watt_base></div><div class = watt_board_label><strong>Planche Cible</strong></div><div id = watt_peg_1><div class = watt_peg></div></div><div id = watt_peg_1 ><div class = ""watt_ball watt_Blue""><div class = watt_ball_label>B</div></div></div><div id = watt_peg_2><div class = watt_peg></div></div><div id = watt_peg_2 ><div class = ""watt_ball watt_Green""><div class = watt_ball_label>G</div></div><div class = ""watt_ball watt_Red""><div class = watt_ball_label>R</div></div></div><div id = watt_peg_3><div class = watt_peg></div></div><div id = watt_peg_3 ></div></div><div class = watt_hand_box></div><div class = watt_hand_label><strong>Boule en main</strong></div>","89,71,82","884","2,0,0,1,0,0,0,0,0","3","3","0,0,0,1,2,3,0,0,0","2,0,0,1,3,0,0,0,0","PA_with_intermediate","1","test","","",""
"396","71","poldrack-single-stim","50","142148","0.0-11.1-0.5-1.5","pilot-40_ses-03_2","","396","0","to_board","<div class = watt_canvas><div class=""watt_vertical_line""></div></div><div class = watt_your_board><div class = watt_base></div><div class = watt_board_label><strong>Votre Planche</strong></div><div id = watt_peg_1><div class = watt_peg></div></div><div class = special id = watt_peg_1 onclick = ""pegClick(this.id)""><div class = ""watt_ball watt_Blue""><div class = watt_ball_label>B</div></div></div><div id = watt_peg_2><div class = watt_peg></div></div><div class = special id = watt_peg_2 onclick = ""pegClick(this.id)""><div class = ""watt_ball watt_Green""><div class = watt_ball_label>G</div></div></div><div id = watt_peg_3><div class = watt_peg></div></div><div class = special id = watt_peg_3 onclick = ""pegClick(this.id)""></div></div><div class = watt_peg_board><div class = watt_base></div><div class = watt_board_label><strong>Planche Cible</strong></div><div id = watt_peg_1><div class = watt_peg></div></div><div id = watt_peg_1 ><div class = ""watt_ball watt_Blue""><div class = watt_ball_label>B</div></div></div><div id = watt_peg_2><div class = watt_peg></div></div><div id = watt_peg_2 ><div class = ""watt_ball watt_Green""><div class = watt_ball_label>G</div></div><div class = ""watt_ball watt_Red""><div class = watt_ball_label>R</div></div></div><div id = watt_peg_3><div class = watt_peg></div></div><div id = watt_peg_3 ></div></div><div class = watt_hand_box><div class = ""watt_hand_ball watt_Red""><div class = watt_ball_label>R</div></div></div><div class = watt_hand_label><strong>Boule en main</strong></div>","89,71,82","396","2,0,0,1,3,0,0,0,0","3","3","0,0,0,1,2,3,0,0,0","2,0,0,1,3,0,0,0,0","PA_with_intermediate","1","test","","",""
"-1","-1","poldrack-single-stim","51","144161","0.0-11.1-1.1","pilot-40_ses-03_2","","2000","0","feedback","<div class = watt_canvas><div class=""watt_vertical_line""></div></div><div class = watt_your_board><div class = watt_base></div><div class = watt_board_label><strong>Votre Planche</strong></div><div id = watt_peg_1><div class = watt_peg></div></div><div id = watt_peg_1 ><div class = ""watt_ball watt_Blue""><div class = watt_ball_label>B</div></div></div><div id = watt_peg_2><div class = watt_peg></div></div><div id = watt_peg_2 ><div class = ""watt_ball watt_Green""><div class = watt_ball_label>G</div></div><div class = ""watt_ball watt_Red""><div class = watt_ball_label>R</div></div></div><div id = watt_peg_3><div class = watt_peg></div></div><div id = watt_peg_3 ></div></div><div class = watt_peg_board><div class = watt_base></div><div class = watt_board_label><strong>Planche Cible</strong></div><div id = watt_peg_1><div class = watt_peg></div></div><div id = watt_peg_1 ><div class = ""watt_ball watt_Blue""><div class = watt_ball_label>B</div></div></div><div id = watt_peg_2><div class = watt_peg></div></div><div id = watt_peg_2 ><div class = ""watt_ball watt_Green""><div class = watt_ball_label>G</div></div><div class = ""watt_ball watt_Red""><div class = watt_ball_label>R</div></div></div><div id = watt_peg_3><div class = watt_peg></div></div><div id = watt_peg_3 ></div></div><div class = watt_feedbackbox><p class = center-text>Complete</p></div>","none","1000","","3","3","","","","","test","7019","true",""
"1073","82","poldrack-single-stim","52","145245","0.0-11.2-0.6-0.6","pilot-40_ses-03_2","","1073","0","to_hand","<div class = watt_canvas><div class=""watt_vertical_line""></div></div><div class = watt_your_board><div class = watt_base></div><div class = watt_board_label><strong>Votre Planche</strong></div><div id = watt_peg_1><div class = watt_peg></div></div><div id = watt_peg_1 onclick = ""pegClick(this.id)""></div><div id = watt_peg_2><div class = watt_peg></div></div><div id = watt_peg_2 onclick = ""pegClick(this.id)""></div><div id = watt_peg_3><div class = watt_peg></div></div><div class = special id = watt_peg_3 onclick = ""pegClick(this.id)""><div class = ""watt_ball watt_Red""><div class = watt_ball_label>R</div></div><div class = ""watt_ball watt_Green""><div class = watt_ball_label>G</div></div><div class = ""watt_ball watt_Blue""><div class = watt_ball_label>B</div></div></div></div><div class = watt_peg_board><div class = watt_base></div><div class = watt_board_label><strong>Planche Cible</strong></div><div id = watt_peg_1><div class = watt_peg></div></div><div id = watt_peg_1 ><div class = ""watt_ball watt_Red""><div class = watt_ball_label>R</div></div></div><div id = watt_peg_2><div class = watt_peg></div></div><div id = watt_peg_2 ><div class = ""watt_ball watt_Blue""><div class = watt_ball_label>B</div></div><div class = ""watt_ball watt_Green""><div class = watt_ball_label>G</div></div></div><div id = watt_peg_3><div class = watt_peg></div></div><div id = watt_peg_3 ></div></div><div class = watt_hand_box></div><div class = watt_hand_label><strong>Boule en main</strong></div>","82","1073","0,0,0,0,0,0,1,2,0","1","3","0,0,0,0,0,0,1,2,3","1,0,0,3,2,0,0,0,0","PA_without_intermediate","2","test","","",""
"517","71","poldrack-single-stim","53","145766","0.0-11.2-0.6-1.6","pilot-40_ses-03_2","","517","0","to_board","<div class = watt_canvas><div class=""watt_vertical_line""></div></div><div class = watt_your_board><div class = watt_base></div><div class = watt_board_label><strong>Votre Planche</strong></div><div id = watt_peg_1><div class = watt_peg></div></div><div class = special id = watt_peg_1 onclick = ""pegClick(this.id)""></div><div id = watt_peg_2><div class = watt_peg></div></div><div class = special id = watt_peg_2 onclick = ""pegClick(this.id)""></div><div id = watt_peg_3><div class = watt_peg></div></div><div class = special id = watt_peg_3 onclick = ""pegClick(this.id)""><div class = ""watt_ball watt_Red""><div class = watt_ball_label>R</div></div><div class = ""watt_ball watt_Green""><div class = watt_ball_label>G</div></div></div></div><div class = watt_peg_board><div class = watt_base></div><div class = watt_board_label><strong>Planche Cible</strong></div><div id = watt_peg_1><div class = watt_peg></div></div><div id = watt_peg_1 ><div class = ""watt_ball watt_Red""><div class = watt_ball_label>R</div></div></div><div id = watt_peg_2><div class = watt_peg></div></div><div id = watt_peg_2 ><div class = ""watt_ball watt_Blue""><div class = watt_ball_label>B</div></div><div class = ""watt_ball watt_Green""><div class = watt_ball_label>G</div></div></div><div id = watt_peg_3><div class = watt_peg></div></div><div id = watt_peg_3 ></div></div><div class = watt_hand_box><div class = ""watt_hand_ball watt_Blue""><div class = watt_ball_label>B</div></div></div><div class = watt_hand_label><strong>Boule en main</strong></div>","89,71,82","517","0,0,0,3,0,0,1,2,0","1","3","0,0,0,0,0,0,1,2,3","1,0,0,3,2,0,0,0,0","PA_without_intermediate","2","test","","",""
"1025","82","poldrack-single-stim","54","146802","0.0-11.2-0.7-0.7","pilot-40_ses-03_2","","1025","0","to_hand","<div class = watt_canvas><div class=""watt_vertical_line""></div></div><div class = watt_your_board><div class = watt_base></div><div class = watt_board_label><strong>Votre Planche</strong></div><div id = watt_peg_1><div class = watt_peg></div></div><div id = watt_peg_1 onclick = ""pegClick(this.id)""></div><div id = watt_peg_2><div class = watt_peg></div></div><div class = special id = watt_peg_2 onclick = ""pegClick(this.id)""><div class = ""watt_ball watt_Blue""><div class = watt_ball_label>B</div></div></div><div id = watt_peg_3><div class = watt_peg></div></div><div class = special id = watt_peg_3 onclick = ""pegClick(this.id)""><div class = ""watt_ball watt_Red""><div class = watt_ball_label>R</div></div><div class = ""watt_ball watt_Green""><div class = watt_ball_label>G</div></div></div></div><div class = watt_peg_board><div class = watt_base></div><div class = watt_board_label><strong>Planche Cible</strong></div><div id = watt_peg_1><div class = watt_peg></div></div><div id = watt_peg_1 ><div class = ""watt_ball watt_Red""><div class = watt_ball_label>R</div></div></div><div id = watt_peg_2><div class = watt_peg></div></div><div id = watt_peg_2 ><div class = ""watt_ball watt_Blue""><div class = watt_ball_label>B</div></div><div class = ""watt_ball watt_Green""><div class = watt_ball_label>G</div></div></div><div id = watt_peg_3><div class = watt_peg></div></div><div id = watt_peg_3 ></div></div><div class = watt_hand_box></div><div class = watt_hand_label><strong>Boule en main</strong></div>","71,82","1025","0,0,0,3,0,0,1,0,0","2","3","0,0,0,0,0,0,1,2,3","1,0,0,3,2,0,0,0,0","PA_without_intermediate","2","test","","",""
"418","71","poldrack-single-stim","55","147224","0.0-11.2-0.7-1.7","pilot-40_ses-03_2","","418","0","to_board","<div class = watt_canvas><div class=""watt_vertical_line""></div></div><div class = watt_your_board><div class = watt_base></div><div class = watt_board_label><strong>Votre Planche</strong></div><div id = watt_peg_1><div class = watt_peg></div></div><div class = special id = watt_peg_1 onclick = ""pegClick(this.id)""></div><div id = watt_peg_2><div class = watt_peg></div></div><div class = special id = watt_peg_2 onclick = ""pegClick(this.id)""><div class = ""watt_ball watt_Blue""><div class = watt_ball_label>B</div></div></div><div id = watt_peg_3><div class = watt_peg></div></div><div class = special id = watt_peg_3 onclick = ""pegClick(this.id)""><div class = ""watt_ball watt_Red""><div class = watt_ball_label>R</div></div></div></div><div class = watt_peg_board><div class = watt_base></div><div class = watt_board_label><strong>Planche Cible</strong></div><div id = watt_peg_1><div class = watt_peg></div></div><div id = watt_peg_1 ><div class = ""watt_ball watt_Red""><div class = watt_ball_label>R</div></div></div><div id = watt_peg_2><div class = watt_peg></div></div><div id = watt_peg_2 ><div class = ""watt_ball watt_Blue""><div class = watt_ball_label>B</div></div><div class = ""watt_ball watt_Green""><div class = watt_ball_label>G</div></div></div><div id = watt_peg_3><div class = watt_peg></div></div><div id = watt_peg_3 ></div></div><div class = watt_hand_box><div class = ""watt_hand_ball watt_Green""><div class = watt_ball_label>G</div></div></div><div class = watt_hand_label><strong>Boule en main</strong></div>","89,71,82","418","0,0,0,3,2,0,1,0,0","2","3","0,0,0,0,0,0,1,2,3","1,0,0,3,2,0,0,0,0","PA_without_intermediate","2","test","","",""
"536","82","poldrack-single-stim","56","147769","0.0-11.2-0.8-0.8","pilot-40_ses-03_2","","536","0","to_hand","<div class = watt_canvas><div class=""watt_vertical_line""></div></div><div class = watt_your_board><div class = watt_base></div><div class = watt_board_label><strong>Votre Planche</strong></div><div id = watt_peg_1><div class = watt_peg></div></div><div id = watt_peg_1 onclick = ""pegClick(this.id)""></div><div id = watt_peg_2><div class = watt_peg></div></div><div class = special id = watt_peg_2 onclick = ""pegClick(this.id)""><div class = ""watt_ball watt_Blue""><div class = watt_ball_label>B</div></div><div class = ""watt_ball watt_Green""><div class = watt_ball_label>G</div></div></div><div id = watt_peg_3><div class = watt_peg></div></div><div class = special id = watt_peg_3 onclick = ""pegClick(this.id)""><div class = ""watt_ball watt_Red""><div class = watt_ball_label>R</div></div></div></div><div class = watt_peg_board><div class = watt_base></div><div class = watt_board_label><strong>Planche Cible</strong></div><div id = watt_peg_1><div class = watt_peg></div></div><div id = watt_peg_1 ><div class = ""watt_ball watt_Red""><div class = watt_ball_label>R</div></div></div><div id = watt_peg_2><div class = watt_peg></div></div><div id = watt_peg_2 ><div class = ""watt_ball watt_Blue""><div class = watt_ball_label>B</div></div><div class = ""watt_ball watt_Green""><div class = watt_ball_label>G</div></div></div><div id = watt_peg_3><div class = watt_peg></div></div><div id = watt_peg_3 ></div></div><div class = watt_hand_box></div><div class = watt_hand_label><strong>Boule en main</strong></div>","71,82","536","0,0,0,3,2,0,0,0,0","3","3","0,0,0,0,0,0,1,2,3","1,0,0,3,2,0,0,0,0","PA_without_intermediate","2","test","","",""
"370","89","poldrack-single-stim","57","148142","0.0-11.2-0.8-1.8","pilot-40_ses-03_2","","370","0","to_board","<div class = watt_canvas><div class=""watt_vertical_line""></div></div><div class = watt_your_board><div class = watt_base></div><div class = watt_board_label><strong>Votre Planche</strong></div><div id = watt_peg_1><div class = watt_peg></div></div><div class = special id = watt_peg_1 onclick = ""pegClick(this.id)""></div><div id = watt_peg_2><div class = watt_peg></div></div><div class = special id = watt_peg_2 onclick = ""pegClick(this.id)""><div class = ""watt_ball watt_Blue""><div class = watt_ball_label>B</div></div><div class = ""watt_ball watt_Green""><div class = watt_ball_label>G</div></div></div><div id = watt_peg_3><div class = watt_peg></div></div><div class = special id = watt_peg_3 onclick = ""pegClick(this.id)""></div></div><div class = watt_peg_board><div class = watt_base></div><div class = watt_board_label><strong>Planche Cible</strong></div><div id = watt_peg_1><div class = watt_peg></div></div><div id = watt_peg_1 ><div class = ""watt_ball watt_Red""><div class = watt_ball_label>R</div></div></div><div id = watt_peg_2><div class = watt_peg></div></div><div id = watt_peg_2 ><div class = ""watt_ball watt_Blue""><div class = watt_ball_label>B</div></div><div class = ""watt_ball watt_Green""><div class = watt_ball_label>G</div></div></div><div id = watt_peg_3><div class = watt_peg></div></div><div id = watt_peg_3 ></div></div><div class = watt_hand_box><div class = ""watt_hand_ball watt_Red""><div class = watt_ball_label>R</div></div></div><div class = watt_hand_label><strong>Boule en main</strong></div>","89,71,82","370","1,0,0,3,2,0,0,0,0","3","3","0,0,0,0,0,0,1,2,3","1,0,0,3,2,0,0,0,0","PA_without_intermediate","2","test","","",""
"-1","-1","poldrack-single-stim","58","150171","0.0-11.2-1.2","pilot-40_ses-03_2","","2000","0","feedback","<div class = watt_canvas><div class=""watt_vertical_line""></div></div><div class = watt_your_board><div class = watt_base></div><div class = watt_board_label><strong>Votre Planche</strong></div><div id = watt_peg_1><div class = watt_peg></div></div><div id = watt_peg_1 ><div class = ""watt_ball watt_Red""><div class = watt_ball_label>R</div></div></div><div id = watt_peg_2><div class = watt_peg></div></div><div id = watt_peg_2 ><div class = ""watt_ball watt_Blue""><div class = watt_ball_label>B</div></div><div class = ""watt_ball watt_Green""><div class = watt_ball_label>G</div></div></div><div id = watt_peg_3><div class = watt_peg></div></div><div id = watt_peg_3 ></div></div><div class = watt_peg_board><div class = watt_base></div><div class = watt_board_label><strong>Planche Cible</strong></div><div id = watt_peg_1><div class = watt_peg></div></div><div id = watt_peg_1 ><div class = ""watt_ball watt_Red""><div class = watt_ball_label>R</div></div></div><div id = watt_peg_2><div class = watt_peg></div></div><div id = watt_peg_2 ><div class = ""watt_ball watt_Blue""><div class = watt_ball_label>B</div></div><div class = ""watt_ball watt_Green""><div class = watt_ball_label>G</div></div></div><div id = watt_peg_3><div class = watt_peg></div></div><div id = watt_peg_3 ></div></div><div class = watt_feedbackbox><p class = center-text>Complete</p></div>","none","1000","","3","3","","","","","test","6010","true",""
"968","71","poldrack-single-stim","59","151151","0.0-11.3-0.9-0.9","pilot-40_ses-03_2","","968","0","to_hand","<div class = watt_canvas><div class=""watt_vertical_line""></div></div><div class = watt_your_board><div class = watt_base></div><div class = watt_board_label><strong>Votre Planche</strong></div><div id = watt_peg_1><div class = watt_peg></div></div><div id = watt_peg_1 onclick = ""pegClick(this.id)""></div><div id = watt_peg_2><div class = watt_peg></div></div><div class = special id = watt_peg_2 onclick = ""pegClick(this.id)""><div class = ""watt_ball watt_Green""><div class = watt_ball_label>G</div></div><div class = ""watt_ball watt_Red""><div class = watt_ball_label>R</div></div><div class = ""watt_ball watt_Blue""><div class = watt_ball_label>B</div></div></div><div id = watt_peg_3><div class = watt_peg></div></div><div id = watt_peg_3 onclick = ""pegClick(this.id)""></div></div><div class = watt_peg_board><div class = watt_base></div><div class = watt_board_label><strong>Planche Cible</strong></div><div id = watt_peg_1><div class = watt_peg></div></div><div id = watt_peg_1 ><div class = ""watt_ball watt_Green""><div class = watt_ball_label>G</div></div></div><div id = watt_peg_2><div class = watt_peg></div></div><div id = watt_peg_2 ></div><div id = watt_peg_3><div class = watt_peg></div></div><div id = watt_peg_3 ><div class = ""watt_ball watt_Blue""><div class = watt_ball_label>B</div></div><div class = ""watt_ball watt_Red""><div class = watt_ball_label>R</div></div></div></div><div class = watt_hand_box></div><div class = watt_hand_label><strong>Boule en main</strong></div>","71","968","0,0,0,1,2,0,0,0,0","1","3","0,0,0,1,2,3,0,0,0","1,0,0,0,0,0,3,2,0","PA_without_intermediate","3","test","","",""
"485","82","poldrack-single-stim","60","151640","0.0-11.3-0.9-1.9","pilot-40_ses-03_2","","485","0","to_board","<div class = watt_canvas><div class=""watt_vertical_line""></div></div><div class = watt_your_board><div class = watt_base></div><div class = watt_board_label><strong>Votre Planche</strong></div><div id = watt_peg_1><div class = watt_peg></div></div><div class = special id = watt_peg_1 onclick = ""pegClick(this.id)""></div><div id = watt_peg_2><div class = watt_peg></div></div><div class = special id = watt_peg_2 onclick = ""pegClick(this.id)""><div class = ""watt_ball watt_Green""><div class = watt_ball_label>G</div></div><div class = ""watt_ball watt_Red""><div class = watt_ball_label>R</div></div></div><div id = watt_peg_3><div class = watt_peg></div></div><div class = special id = watt_peg_3 onclick = ""pegClick(this.id)""></div></div><div class = watt_peg_board><div class = watt_base></div><div class = watt_board_label><strong>Planche Cible</strong></div><div id = watt_peg_1><div class = watt_peg></div></div><div id = watt_peg_1 ><div class = ""watt_ball watt_Green""><div class = watt_ball_label>G</div></div></div><div id = watt_peg_2><div class = watt_peg></div></div><div id = watt_peg_2 ></div><div id = watt_peg_3><div class = watt_peg></div></div><div id = watt_peg_3 ><div class = ""watt_ball watt_Blue""><div class = watt_ball_label>B</div></div><div class = ""watt_ball watt_Red""><div class = watt_ball_label>R</div></div></div></div><div class = watt_hand_box><div class = ""watt_hand_ball watt_Blue""><div class = watt_ball_label>B</div></div></div><div class = watt_hand_label><strong>Boule en main</strong></div>","89,71,82","485","0,0,0,1,2,0,3,0,0","1","3","0,0,0,1,2,3,0,0,0","1,0,0,0,0,0,3,2,0","PA_without_intermediate","3","test","","",""
"416","71","poldrack-single-stim","61","152073","0.0-11.3-0.10-0.10","pilot-40_ses-03_2","","416","0","to_hand","<div class = watt_canvas><div class=""watt_vertical_line""></div></div><div class = watt_your_board><div class = watt_base></div><div class = watt_board_label><strong>Votre Planche</strong></div><div id = watt_peg_1><div class = watt_peg></div></div><div id = watt_peg_1 onclick = ""pegClick(this.id)""></div><div id = watt_peg_2><div class = watt_peg></div></div><div class = special id = watt_peg_2 onclick = ""pegClick(this.id)""><div class = ""watt_ball watt_Green""><div class = watt_ball_label>G</div></div><div class = ""watt_ball watt_Red""><div class = watt_ball_label>R</div></div></div><div id = watt_peg_3><div class = watt_peg></div></div><div class = special id = watt_peg_3 onclick = ""pegClick(this.id)""><div class = ""watt_ball watt_Blue""><div class = watt_ball_label>B</div></div></div></div><div class = watt_peg_board><div class = watt_base></div><div class = watt_board_label><strong>Planche Cible</strong></div><div id = watt_peg_1><div class = watt_peg></div></div><div id = watt_peg_1 ><div class = ""watt_ball watt_Green""><div class = watt_ball_label>G</div></div></div><div id = watt_peg_2><div class = watt_peg></div></div><div id = watt_peg_2 ></div><div id = watt_peg_3><div class = watt_peg></div></div><div id = watt_peg_3 ><div class = ""watt_ball watt_Blue""><div class = watt_ball_label>B</div></div><div class = ""watt_ball watt_Red""><div class = watt_ball_label>R</div></div></div></div><div class = watt_hand_box></div><div class = watt_hand_label><strong>Boule en main</strong></div>","71,82","416","0,0,0,1,0,0,3,0,0","2","3","0,0,0,1,2,3,0,0,0","1,0,0,0,0,0,3,2,0","PA_without_intermediate","3","test","","",""
"428","82","poldrack-single-stim","62","152505","0.0-11.3-0.10-1.10","pilot-40_ses-03_2","","428","0","to_board","<div class = watt_canvas><div class=""watt_vertical_line""></div></div><div class = watt_your_board><div class = watt_base></div><div class = watt_board_label><strong>Votre Planche</strong></div><div id = watt_peg_1><div class = watt_peg></div></div><div class = special id = watt_peg_1 onclick = ""pegClick(this.id)""></div><div id = watt_peg_2><div class = watt_peg></div></div><div class = special id = watt_peg_2 onclick = ""pegClick(this.id)""><div class = ""watt_ball watt_Green""><div class = watt_ball_label>G</div></div></div><div id = watt_peg_3><div class = watt_peg></div></div><div class = special id = watt_peg_3 onclick = ""pegClick(this.id)""><div class = ""watt_ball watt_Blue""><div class = watt_ball_label>B</div></div></div></div><div class = watt_peg_board><div class = watt_base></div><div class = watt_board_label><strong>Planche Cible</strong></div><div id = watt_peg_1><div class = watt_peg></div></div><div id = watt_peg_1 ><div class = ""watt_ball watt_Green""><div class = watt_ball_label>G</div></div></div><div id = watt_peg_2><div class = watt_peg></div></div><div id = watt_peg_2 ></div><div id = watt_peg_3><div class = watt_peg></div></div><div id = watt_peg_3 ><div class = ""watt_ball watt_Blue""><div class = watt_ball_label>B</div></div><div class = ""watt_ball watt_Red""><div class = watt_ball_label>R</div></div></div></div><div class = watt_hand_box><div class = ""watt_hand_ball watt_Red""><div class = watt_ball_label>R</div></div></div><div class = watt_hand_label><strong>Boule en main</strong></div>","89,71,82","428","0,0,0,1,0,0,3,2,0","2","3","0,0,0,1,2,3,0,0,0","1,0,0,0,0,0,3,2,0","PA_without_intermediate","3","test","","",""
"503","71","poldrack-single-stim","63","153021","0.0-11.3-0.11-0.11","pilot-40_ses-03_2","","503","0","to_hand","<div class = watt_canvas><div class=""watt_vertical_line""></div></div><div class = watt_your_board><div class = watt_base></div><div class = watt_board_label><strong>Votre Planche</strong></div><div id = watt_peg_1><div class = watt_peg></div></div><div id = watt_peg_1 onclick = ""pegClick(this.id)""></div><div id = watt_peg_2><div class = watt_peg></div></div><div class = special id = watt_peg_2 onclick = ""pegClick(this.id)""><div class = ""watt_ball watt_Green""><div class = watt_ball_label>G</div></div></div><div id = watt_peg_3><div class = watt_peg></div></div><div class = special id = watt_peg_3 onclick = ""pegClick(this.id)""><div class = ""watt_ball watt_Blue""><div class = watt_ball_label>B</div></div><div class = ""watt_ball watt_Red""><div class = watt_ball_label>R</div></div></div></div><div class = watt_peg_board><div class = watt_base></div><div class = watt_board_label><strong>Planche Cible</strong></div><div id = watt_peg_1><div class = watt_peg></div></div><div id = watt_peg_1 ><div class = ""watt_ball watt_Green""><div class = watt_ball_label>G</div></div></div><div id = watt_peg_2><div class = watt_peg></div></div><div id = watt_peg_2 ></div><div id = watt_peg_3><div class = watt_peg></div></div><div id = watt_peg_3 ><div class = ""watt_ball watt_Blue""><div class = watt_ball_label>B</div></div><div class = ""watt_ball watt_Red""><div class = watt_ball_label>R</div></div></div></div><div class = watt_hand_box></div><div class = watt_hand_label><strong>Boule en main</strong></div>","71,82","503","0,0,0,0,0,0,3,2,0","3","3","0,0,0,1,2,3,0,0,0","1,0,0,0,0,0,3,2,0","PA_without_intermediate","3","test","","",""
"339","89","poldrack-single-stim","64","153363","0.0-11.3-0.11-1.11","pilot-40_ses-03_2","","339","0","to_board","<div class = watt_canvas><div class=""watt_vertical_line""></div></div><div class = watt_your_board><div class = watt_base></div><div class = watt_board_label><strong>Votre Planche</strong></div><div id = watt_peg_1><div class = watt_peg></div></div><div class = special id = watt_peg_1 onclick = ""pegClick(this.id)""></div><div id = watt_peg_2><div class = watt_peg></div></div><div class = special id = watt_peg_2 onclick = ""pegClick(this.id)""></div><div id = watt_peg_3><div class = watt_peg></div></div><div class = special id = watt_peg_3 onclick = ""pegClick(this.id)""><div class = ""watt_ball watt_Blue""><div class = watt_ball_label>B</div></div><div class = ""watt_ball watt_Red""><div class = watt_ball_label>R</div></div></div></div><div class = watt_peg_board><div class = watt_base></div><div class = watt_board_label><strong>Planche Cible</strong></div><div id = watt_peg_1><div class = watt_peg></div></div><div id = watt_peg_1 ><div class = ""watt_ball watt_Green""><div class = watt_ball_label>G</div></div></div><div id = watt_peg_2><div class = watt_peg></div></div><div id = watt_peg_2 ></div><div id = watt_peg_3><div class = watt_peg></div></div><div id = watt_peg_3 ><div class = ""watt_ball watt_Blue""><div class = watt_ball_label>B</div></div><div class = ""watt_ball watt_Red""><div class = watt_ball_label>R</div></div></div></div><div class = watt_hand_box><div class = ""watt_hand_ball watt_Green""><div class = watt_ball_label>G</div></div></div><div class = watt_hand_label><strong>Boule en main</strong></div>","89,71,82","339","1,0,0,0,0,0,3,2,0","3","3","0,0,0,1,2,3,0,0,0","1,0,0,0,0,0,3,2,0","PA_without_intermediate","3","test","","",""
