"rt","key_press","trial_type","trial_index","time_elapsed","internal_node_id","subject","text","block_duration","timing_post_trial","trial_id","stimulus","possible_responses","stim_duration","current_position","num_moves_made","min_moves","start_state","goal_state","condition","problem_id","exp_stage","problem_time","correct","exp_id"
"21616","13","text","0","21620","0.0-0.0","pilot-38_ses-01","","","","","","","","","","","","","","","","","",""
"1392","89","poldrack-text","1","24039","0.0-1.0","pilot-38_ses-01","<div class = centerbox><div style = 'font-size: 50px' class = center-text>Veuillez appuyer avec votre index</p></div>","1392","500","fmri_response_test","","","","","","","","","","","","","",""
"912","71","poldrack-text","2","25465","0.0-2.0","pilot-38_ses-01","<div class = centerbox><div style = 'font-size: 50px' class = center-text>Veuillez appuyer avec votre majeur</p></div>","912","500","fmri_response_test","","","","","","","","","","","","","",""
"1452","82","poldrack-text","3","27446","0.0-3.0","pilot-38_ses-01","<div class = centerbox><div style = 'font-size: 50px' class = center-text>Veuillez appuyer avec votre annulaire</p></div>","1452","500","fmri_response_test","","","","","","","","","","","","","",""
"3550","32","poldrack-single-stim","4","31523","0.0-4.0","pilot-38_ses-01","","3550","0","instructions","<div class = centerbox><div class = center-text>Resolvez les taches de la tour !<br><br>Planifiez d'avance et travaillez rapidement!<br><br>Nous allons commencer par un peu de pratique.</div></div>","32","3550","","","","","","","","","","",""
"3986","32","poldrack-text","5","35511","0.0-5.0","pilot-38_ses-01","<div class = centerbox><div  class = center-text>Scanner Setup</div></div>","3986","0","fmri_scanner_wait","","","","","","","","","","","","","",""
"59418","84","poldrack-text","6","94930","0.0-6.0","pilot-38_ses-01","<div class = centerbox><div style='color:red'; class = center-text>+</div></div>","59418","0","fmri_trigger_wait","","","","","","","","","","","","","",""
"-1","-1","poldrack-single-stim","7","95957","0.0-7.0","pilot-38_ses-01","","1000","0","fmri_buffer","","none","1000","","","","","","","","","","",""
"-1","-1","poldrack-single-stim","8","97481","0.0-8.0","pilot-38_ses-01","","1500","500","practice_start_block","<div class = centerbox><div class = center-text>Sur le point de commencer l'entrainement</p></div>","none","1500","","","","","","","","","","",""
"4931","71","poldrack-single-stim","9","102937","0.0-9.0-0.0-0.0","pilot-38_ses-01","","4931","0","to_hand","<div class = watt_canvas><div class=""watt_vertical_line""></div></div><div class = watt_your_board><div class = watt_base></div><div class = watt_board_label><strong>Votre Planche</strong></div><div id = watt_peg_1><div class = watt_peg></div></div><div class = special id = watt_peg_1 onclick = ""pegClick(this.id)""><div class = ""watt_ball watt_Blue""><div class = watt_ball_label>B</div></div></div><div id = watt_peg_2><div class = watt_peg></div></div><div class = special id = watt_peg_2 onclick = ""pegClick(this.id)""><div class = ""watt_ball watt_Red""><div class = watt_ball_label>R</div></div><div class = ""watt_ball watt_Green""><div class = watt_ball_label>G</div></div></div><div id = watt_peg_3><div class = watt_peg></div></div><div id = watt_peg_3 onclick = ""pegClick(this.id)""></div></div><div class = watt_peg_board><div class = watt_base></div><div class = watt_board_label><strong>Planche Cible</strong></div><div id = watt_peg_1><div class = watt_peg></div></div><div id = watt_peg_1 ><div class = ""watt_ball watt_Blue""><div class = watt_ball_label>B</div></div><div class = ""watt_ball watt_Red""><div class = watt_ball_label>R</div></div><div class = ""watt_ball watt_Green""><div class = watt_ball_label>G</div></div></div><div id = watt_peg_2><div class = watt_peg></div></div><div id = watt_peg_2 ></div><div id = watt_peg_3><div class = watt_peg></div></div><div id = watt_peg_3 ></div></div><div class = watt_hand_box></div><div class = watt_hand_label><strong>Boule en main</strong></div>","89,71","4931","1,0,0,2,0,0,0,0,0","1","3","1,0,0,2,3,0,0,0,0","1,2,3,0,0,0,0,0,0","UA_with_intermeidate","0","practice","","",""
"689","82","poldrack-single-stim","10","103632","0.0-9.0-0.0-1.0","pilot-38_ses-01","","689","0","to_board","<div class = watt_canvas><div class=""watt_vertical_line""></div></div><div class = watt_your_board><div class = watt_base></div><div class = watt_board_label><strong>Votre Planche</strong></div><div id = watt_peg_1><div class = watt_peg></div></div><div class = special id = watt_peg_1 onclick = ""pegClick(this.id)""><div class = ""watt_ball watt_Blue""><div class = watt_ball_label>B</div></div></div><div id = watt_peg_2><div class = watt_peg></div></div><div class = special id = watt_peg_2 onclick = ""pegClick(this.id)""><div class = ""watt_ball watt_Red""><div class = watt_ball_label>R</div></div></div><div id = watt_peg_3><div class = watt_peg></div></div><div class = special id = watt_peg_3 onclick = ""pegClick(this.id)""></div></div><div class = watt_peg_board><div class = watt_base></div><div class = watt_board_label><strong>Planche Cible</strong></div><div id = watt_peg_1><div class = watt_peg></div></div><div id = watt_peg_1 ><div class = ""watt_ball watt_Blue""><div class = watt_ball_label>B</div></div><div class = ""watt_ball watt_Red""><div class = watt_ball_label>R</div></div><div class = ""watt_ball watt_Green""><div class = watt_ball_label>G</div></div></div><div id = watt_peg_2><div class = watt_peg></div></div><div id = watt_peg_2 ></div><div id = watt_peg_3><div class = watt_peg></div></div><div id = watt_peg_3 ></div></div><div class = watt_hand_box><div class = ""watt_hand_ball watt_Green""><div class = watt_ball_label>G</div></div></div><div class = watt_hand_label><strong>Boule en main</strong></div>","89,71,82","689","1,0,0,2,0,0,3,0,0","1","3","1,0,0,2,3,0,0,0,0","1,2,3,0,0,0,0,0,0","UA_with_intermeidate","0","practice","","",""
"852","71","poldrack-single-stim","11","104490","0.0-9.0-0.1-0.1","pilot-38_ses-01","","852","0","to_hand","<div class = watt_canvas><div class=""watt_vertical_line""></div></div><div class = watt_your_board><div class = watt_base></div><div class = watt_board_label><strong>Votre Planche</strong></div><div id = watt_peg_1><div class = watt_peg></div></div><div class = special id = watt_peg_1 onclick = ""pegClick(this.id)""><div class = ""watt_ball watt_Blue""><div class = watt_ball_label>B</div></div></div><div id = watt_peg_2><div class = watt_peg></div></div><div class = special id = watt_peg_2 onclick = ""pegClick(this.id)""><div class = ""watt_ball watt_Red""><div class = watt_ball_label>R</div></div></div><div id = watt_peg_3><div class = watt_peg></div></div><div class = special id = watt_peg_3 onclick = ""pegClick(this.id)""><div class = ""watt_ball watt_Green""><div class = watt_ball_label>G</div></div></div></div><div class = watt_peg_board><div class = watt_base></div><div class = watt_board_label><strong>Planche Cible</strong></div><div id = watt_peg_1><div class = watt_peg></div></div><div id = watt_peg_1 ><div class = ""watt_ball watt_Blue""><div class = watt_ball_label>B</div></div><div class = ""watt_ball watt_Red""><div class = watt_ball_label>R</div></div><div class = ""watt_ball watt_Green""><div class = watt_ball_label>G</div></div></div><div id = watt_peg_2><div class = watt_peg></div></div><div id = watt_peg_2 ></div><div id = watt_peg_3><div class = watt_peg></div></div><div id = watt_peg_3 ></div></div><div class = watt_hand_box></div><div class = watt_hand_label><strong>Boule en main</strong></div>","89,71,82","852","1,0,0,0,0,0,3,0,0","2","3","1,0,0,2,3,0,0,0,0","1,2,3,0,0,0,0,0,0","UA_with_intermeidate","0","practice","","",""
"533","89","poldrack-single-stim","12","105026","0.0-9.0-0.1-1.1","pilot-38_ses-01","","533","0","to_board","<div class = watt_canvas><div class=""watt_vertical_line""></div></div><div class = watt_your_board><div class = watt_base></div><div class = watt_board_label><strong>Votre Planche</strong></div><div id = watt_peg_1><div class = watt_peg></div></div><div class = special id = watt_peg_1 onclick = ""pegClick(this.id)""><div class = ""watt_ball watt_Blue""><div class = watt_ball_label>B</div></div></div><div id = watt_peg_2><div class = watt_peg></div></div><div class = special id = watt_peg_2 onclick = ""pegClick(this.id)""></div><div id = watt_peg_3><div class = watt_peg></div></div><div class = special id = watt_peg_3 onclick = ""pegClick(this.id)""><div class = ""watt_ball watt_Green""><div class = watt_ball_label>G</div></div></div></div><div class = watt_peg_board><div class = watt_base></div><div class = watt_board_label><strong>Planche Cible</strong></div><div id = watt_peg_1><div class = watt_peg></div></div><div id = watt_peg_1 ><div class = ""watt_ball watt_Blue""><div class = watt_ball_label>B</div></div><div class = ""watt_ball watt_Red""><div class = watt_ball_label>R</div></div><div class = ""watt_ball watt_Green""><div class = watt_ball_label>G</div></div></div><div id = watt_peg_2><div class = watt_peg></div></div><div id = watt_peg_2 ></div><div id = watt_peg_3><div class = watt_peg></div></div><div id = watt_peg_3 ></div></div><div class = watt_hand_box><div class = ""watt_hand_ball watt_Red""><div class = watt_ball_label>R</div></div></div><div class = watt_hand_label><strong>Boule en main</strong></div>","89,71,82","533","1,2,0,0,0,0,3,0,0","2","3","1,0,0,2,3,0,0,0,0","1,2,3,0,0,0,0,0,0","UA_with_intermeidate","0","practice","","",""
"1000","82","poldrack-single-stim","13","106031","0.0-9.0-0.2-0.2","pilot-38_ses-01","","1000","0","to_hand","<div class = watt_canvas><div class=""watt_vertical_line""></div></div><div class = watt_your_board><div class = watt_base></div><div class = watt_board_label><strong>Votre Planche</strong></div><div id = watt_peg_1><div class = watt_peg></div></div><div class = special id = watt_peg_1 onclick = ""pegClick(this.id)""><div class = ""watt_ball watt_Blue""><div class = watt_ball_label>B</div></div><div class = ""watt_ball watt_Red""><div class = watt_ball_label>R</div></div></div><div id = watt_peg_2><div class = watt_peg></div></div><div id = watt_peg_2 onclick = ""pegClick(this.id)""></div><div id = watt_peg_3><div class = watt_peg></div></div><div class = special id = watt_peg_3 onclick = ""pegClick(this.id)""><div class = ""watt_ball watt_Green""><div class = watt_ball_label>G</div></div></div></div><div class = watt_peg_board><div class = watt_base></div><div class = watt_board_label><strong>Planche Cible</strong></div><div id = watt_peg_1><div class = watt_peg></div></div><div id = watt_peg_1 ><div class = ""watt_ball watt_Blue""><div class = watt_ball_label>B</div></div><div class = ""watt_ball watt_Red""><div class = watt_ball_label>R</div></div><div class = ""watt_ball watt_Green""><div class = watt_ball_label>G</div></div></div><div id = watt_peg_2><div class = watt_peg></div></div><div id = watt_peg_2 ></div><div id = watt_peg_3><div class = watt_peg></div></div><div id = watt_peg_3 ></div></div><div class = watt_hand_box></div><div class = watt_hand_label><strong>Boule en main</strong></div>","89,82","1000","1,2,0,0,0,0,0,0,0","3","3","1,0,0,2,3,0,0,0,0","1,2,3,0,0,0,0,0,0","UA_with_intermeidate","0","practice","","",""
"385","89","poldrack-single-stim","14","106422","0.0-9.0-0.2-1.2","pilot-38_ses-01","","385","0","to_board","<div class = watt_canvas><div class=""watt_vertical_line""></div></div><div class = watt_your_board><div class = watt_base></div><div class = watt_board_label><strong>Votre Planche</strong></div><div id = watt_peg_1><div class = watt_peg></div></div><div class = special id = watt_peg_1 onclick = ""pegClick(this.id)""><div class = ""watt_ball watt_Blue""><div class = watt_ball_label>B</div></div><div class = ""watt_ball watt_Red""><div class = watt_ball_label>R</div></div></div><div id = watt_peg_2><div class = watt_peg></div></div><div class = special id = watt_peg_2 onclick = ""pegClick(this.id)""></div><div id = watt_peg_3><div class = watt_peg></div></div><div class = special id = watt_peg_3 onclick = ""pegClick(this.id)""></div></div><div class = watt_peg_board><div class = watt_base></div><div class = watt_board_label><strong>Planche Cible</strong></div><div id = watt_peg_1><div class = watt_peg></div></div><div id = watt_peg_1 ><div class = ""watt_ball watt_Blue""><div class = watt_ball_label>B</div></div><div class = ""watt_ball watt_Red""><div class = watt_ball_label>R</div></div><div class = ""watt_ball watt_Green""><div class = watt_ball_label>G</div></div></div><div id = watt_peg_2><div class = watt_peg></div></div><div id = watt_peg_2 ></div><div id = watt_peg_3><div class = watt_peg></div></div><div id = watt_peg_3 ></div></div><div class = watt_hand_box><div class = ""watt_hand_ball watt_Green""><div class = watt_ball_label>G</div></div></div><div class = watt_hand_label><strong>Boule en main</strong></div>","89,71,82","385","1,2,3,0,0,0,0,0,0","3","3","1,0,0,2,3,0,0,0,0","1,2,3,0,0,0,0,0,0","UA_with_intermeidate","0","practice","","",""
"-1","-1","poldrack-single-stim","15","108943","0.0-9.0-1.0","pilot-38_ses-01","","2500","0","feedback","<div class = watt_canvas><div class=""watt_vertical_line""></div></div><div class = watt_your_board><div class = watt_base></div><div class = watt_board_label><strong>Votre Planche</strong></div><div id = watt_peg_1><div class = watt_peg></div></div><div id = watt_peg_1 ><div class = ""watt_ball watt_Blue""><div class = watt_ball_label>B</div></div><div class = ""watt_ball watt_Red""><div class = watt_ball_label>R</div></div><div class = ""watt_ball watt_Green""><div class = watt_ball_label>G</div></div></div><div id = watt_peg_2><div class = watt_peg></div></div><div id = watt_peg_2 ></div><div id = watt_peg_3><div class = watt_peg></div></div><div id = watt_peg_3 ></div></div><div class = watt_peg_board><div class = watt_base></div><div class = watt_board_label><strong>Planche Cible</strong></div><div id = watt_peg_1><div class = watt_peg></div></div><div id = watt_peg_1 ><div class = ""watt_ball watt_Blue""><div class = watt_ball_label>B</div></div><div class = ""watt_ball watt_Red""><div class = watt_ball_label>R</div></div><div class = ""watt_ball watt_Green""><div class = watt_ball_label>G</div></div></div><div id = watt_peg_2><div class = watt_peg></div></div><div id = watt_peg_2 ></div><div id = watt_peg_3><div class = watt_peg></div></div><div id = watt_peg_3 ></div></div><div class = watt_feedbackbox><p class = center-text>Complete</p></div>","none","1000","","3","3","","","","","practice","11463","true",""
"2890","89","poldrack-single-stim","16","111840","0.0-9.1-0.3-0.3","pilot-38_ses-01","","2890","0","to_hand","<div class = watt_canvas><div class=""watt_vertical_line""></div></div><div class = watt_your_board><div class = watt_base></div><div class = watt_board_label><strong>Votre Planche</strong></div><div id = watt_peg_1><div class = watt_peg></div></div><div class = special id = watt_peg_1 onclick = ""pegClick(this.id)""><div class = ""watt_ball watt_Green""><div class = watt_ball_label>G</div></div><div class = ""watt_ball watt_Blue""><div class = watt_ball_label>B</div></div></div><div id = watt_peg_2><div class = watt_peg></div></div><div class = special id = watt_peg_2 onclick = ""pegClick(this.id)""><div class = ""watt_ball watt_Red""><div class = watt_ball_label>R</div></div></div><div id = watt_peg_3><div class = watt_peg></div></div><div id = watt_peg_3 onclick = ""pegClick(this.id)""></div></div><div class = watt_peg_board><div class = watt_base></div><div class = watt_board_label><strong>Planche Cible</strong></div><div id = watt_peg_1><div class = watt_peg></div></div><div id = watt_peg_1 ><div class = ""watt_ball watt_Green""><div class = watt_ball_label>G</div></div><div class = ""watt_ball watt_Red""><div class = watt_ball_label>R</div></div><div class = ""watt_ball watt_Blue""><div class = watt_ball_label>B</div></div></div><div id = watt_peg_2><div class = watt_peg></div></div><div id = watt_peg_2 ></div><div id = watt_peg_3><div class = watt_peg></div></div><div id = watt_peg_3 ></div></div><div class = watt_hand_box></div><div class = watt_hand_label><strong>Boule en main</strong></div>","89,71","2890","1,0,0,3,0,0,0,0,0","1","3","1,2,0,3,0,0,0,0,0","1,3,2,0,0,0,0,0,0","UA_with_intermeidate","1","practice","","",""
"477","82","poldrack-single-stim","17","112323","0.0-9.1-0.3-1.3","pilot-38_ses-01","","477","0","to_board","<div class = watt_canvas><div class=""watt_vertical_line""></div></div><div class = watt_your_board><div class = watt_base></div><div class = watt_board_label><strong>Votre Planche</strong></div><div id = watt_peg_1><div class = watt_peg></div></div><div class = special id = watt_peg_1 onclick = ""pegClick(this.id)""><div class = ""watt_ball watt_Green""><div class = watt_ball_label>G</div></div></div><div id = watt_peg_2><div class = watt_peg></div></div><div class = special id = watt_peg_2 onclick = ""pegClick(this.id)""><div class = ""watt_ball watt_Red""><div class = watt_ball_label>R</div></div></div><div id = watt_peg_3><div class = watt_peg></div></div><div class = special id = watt_peg_3 onclick = ""pegClick(this.id)""></div></div><div class = watt_peg_board><div class = watt_base></div><div class = watt_board_label><strong>Planche Cible</strong></div><div id = watt_peg_1><div class = watt_peg></div></div><div id = watt_peg_1 ><div class = ""watt_ball watt_Green""><div class = watt_ball_label>G</div></div><div class = ""watt_ball watt_Red""><div class = watt_ball_label>R</div></div><div class = ""watt_ball watt_Blue""><div class = watt_ball_label>B</div></div></div><div id = watt_peg_2><div class = watt_peg></div></div><div id = watt_peg_2 ></div><div id = watt_peg_3><div class = watt_peg></div></div><div id = watt_peg_3 ></div></div><div class = watt_hand_box><div class = ""watt_hand_ball watt_Blue""><div class = watt_ball_label>B</div></div></div><div class = watt_hand_label><strong>Boule en main</strong></div>","89,71,82","477","1,0,0,3,0,0,2,0,0","1","3","1,2,0,3,0,0,0,0,0","1,3,2,0,0,0,0,0,0","UA_with_intermeidate","1","practice","","",""
"580","71","poldrack-single-stim","18","112907","0.0-9.1-0.4-0.4","pilot-38_ses-01","","580","0","to_hand","<div class = watt_canvas><div class=""watt_vertical_line""></div></div><div class = watt_your_board><div class = watt_base></div><div class = watt_board_label><strong>Votre Planche</strong></div><div id = watt_peg_1><div class = watt_peg></div></div><div class = special id = watt_peg_1 onclick = ""pegClick(this.id)""><div class = ""watt_ball watt_Green""><div class = watt_ball_label>G</div></div></div><div id = watt_peg_2><div class = watt_peg></div></div><div class = special id = watt_peg_2 onclick = ""pegClick(this.id)""><div class = ""watt_ball watt_Red""><div class = watt_ball_label>R</div></div></div><div id = watt_peg_3><div class = watt_peg></div></div><div class = special id = watt_peg_3 onclick = ""pegClick(this.id)""><div class = ""watt_ball watt_Blue""><div class = watt_ball_label>B</div></div></div></div><div class = watt_peg_board><div class = watt_base></div><div class = watt_board_label><strong>Planche Cible</strong></div><div id = watt_peg_1><div class = watt_peg></div></div><div id = watt_peg_1 ><div class = ""watt_ball watt_Green""><div class = watt_ball_label>G</div></div><div class = ""watt_ball watt_Red""><div class = watt_ball_label>R</div></div><div class = ""watt_ball watt_Blue""><div class = watt_ball_label>B</div></div></div><div id = watt_peg_2><div class = watt_peg></div></div><div id = watt_peg_2 ></div><div id = watt_peg_3><div class = watt_peg></div></div><div id = watt_peg_3 ></div></div><div class = watt_hand_box></div><div class = watt_hand_label><strong>Boule en main</strong></div>","89,71,82","580","1,0,0,0,0,0,2,0,0","2","3","1,2,0,3,0,0,0,0,0","1,3,2,0,0,0,0,0,0","UA_with_intermeidate","1","practice","","",""
"498","89","poldrack-single-stim","19","113410","0.0-9.1-0.4-1.4","pilot-38_ses-01","","498","0","to_board","<div class = watt_canvas><div class=""watt_vertical_line""></div></div><div class = watt_your_board><div class = watt_base></div><div class = watt_board_label><strong>Votre Planche</strong></div><div id = watt_peg_1><div class = watt_peg></div></div><div class = special id = watt_peg_1 onclick = ""pegClick(this.id)""><div class = ""watt_ball watt_Green""><div class = watt_ball_label>G</div></div></div><div id = watt_peg_2><div class = watt_peg></div></div><div class = special id = watt_peg_2 onclick = ""pegClick(this.id)""></div><div id = watt_peg_3><div class = watt_peg></div></div><div class = special id = watt_peg_3 onclick = ""pegClick(this.id)""><div class = ""watt_ball watt_Blue""><div class = watt_ball_label>B</div></div></div></div><div class = watt_peg_board><div class = watt_base></div><div class = watt_board_label><strong>Planche Cible</strong></div><div id = watt_peg_1><div class = watt_peg></div></div><div id = watt_peg_1 ><div class = ""watt_ball watt_Green""><div class = watt_ball_label>G</div></div><div class = ""watt_ball watt_Red""><div class = watt_ball_label>R</div></div><div class = ""watt_ball watt_Blue""><div class = watt_ball_label>B</div></div></div><div id = watt_peg_2><div class = watt_peg></div></div><div id = watt_peg_2 ></div><div id = watt_peg_3><div class = watt_peg></div></div><div id = watt_peg_3 ></div></div><div class = watt_hand_box><div class = ""watt_hand_ball watt_Red""><div class = watt_ball_label>R</div></div></div><div class = watt_hand_label><strong>Boule en main</strong></div>","89,71,82","498","1,3,0,0,0,0,2,0,0","2","3","1,2,0,3,0,0,0,0,0","1,3,2,0,0,0,0,0,0","UA_with_intermeidate","1","practice","","",""
"532","82","poldrack-single-stim","20","113947","0.0-9.1-0.5-0.5","pilot-38_ses-01","","532","0","to_hand","<div class = watt_canvas><div class=""watt_vertical_line""></div></div><div class = watt_your_board><div class = watt_base></div><div class = watt_board_label><strong>Votre Planche</strong></div><div id = watt_peg_1><div class = watt_peg></div></div><div class = special id = watt_peg_1 onclick = ""pegClick(this.id)""><div class = ""watt_ball watt_Green""><div class = watt_ball_label>G</div></div><div class = ""watt_ball watt_Red""><div class = watt_ball_label>R</div></div></div><div id = watt_peg_2><div class = watt_peg></div></div><div id = watt_peg_2 onclick = ""pegClick(this.id)""></div><div id = watt_peg_3><div class = watt_peg></div></div><div class = special id = watt_peg_3 onclick = ""pegClick(this.id)""><div class = ""watt_ball watt_Blue""><div class = watt_ball_label>B</div></div></div></div><div class = watt_peg_board><div class = watt_base></div><div class = watt_board_label><strong>Planche Cible</strong></div><div id = watt_peg_1><div class = watt_peg></div></div><div id = watt_peg_1 ><div class = ""watt_ball watt_Green""><div class = watt_ball_label>G</div></div><div class = ""watt_ball watt_Red""><div class = watt_ball_label>R</div></div><div class = ""watt_ball watt_Blue""><div class = watt_ball_label>B</div></div></div><div id = watt_peg_2><div class = watt_peg></div></div><div id = watt_peg_2 ></div><div id = watt_peg_3><div class = watt_peg></div></div><div id = watt_peg_3 ></div></div><div class = watt_hand_box></div><div class = watt_hand_label><strong>Boule en main</strong></div>","89,82","532","1,3,0,0,0,0,0,0,0","3","3","1,2,0,3,0,0,0,0,0","1,3,2,0,0,0,0,0,0","UA_with_intermeidate","1","practice","","",""
"411","89","poldrack-single-stim","21","114363","0.0-9.1-0.5-1.5","pilot-38_ses-01","","411","0","to_board","<div class = watt_canvas><div class=""watt_vertical_line""></div></div><div class = watt_your_board><div class = watt_base></div><div class = watt_board_label><strong>Votre Planche</strong></div><div id = watt_peg_1><div class = watt_peg></div></div><div class = special id = watt_peg_1 onclick = ""pegClick(this.id)""><div class = ""watt_ball watt_Green""><div class = watt_ball_label>G</div></div><div class = ""watt_ball watt_Red""><div class = watt_ball_label>R</div></div></div><div id = watt_peg_2><div class = watt_peg></div></div><div class = special id = watt_peg_2 onclick = ""pegClick(this.id)""></div><div id = watt_peg_3><div class = watt_peg></div></div><div class = special id = watt_peg_3 onclick = ""pegClick(this.id)""></div></div><div class = watt_peg_board><div class = watt_base></div><div class = watt_board_label><strong>Planche Cible</strong></div><div id = watt_peg_1><div class = watt_peg></div></div><div id = watt_peg_1 ><div class = ""watt_ball watt_Green""><div class = watt_ball_label>G</div></div><div class = ""watt_ball watt_Red""><div class = watt_ball_label>R</div></div><div class = ""watt_ball watt_Blue""><div class = watt_ball_label>B</div></div></div><div id = watt_peg_2><div class = watt_peg></div></div><div id = watt_peg_2 ></div><div id = watt_peg_3><div class = watt_peg></div></div><div id = watt_peg_3 ></div></div><div class = watt_hand_box><div class = ""watt_hand_ball watt_Blue""><div class = watt_ball_label>B</div></div></div><div class = watt_hand_label><strong>Boule en main</strong></div>","89,71,82","411","1,3,2,0,0,0,0,0,0","3","3","1,2,0,3,0,0,0,0,0","1,3,2,0,0,0,0,0,0","UA_with_intermeidate","1","practice","","",""
"-1","-1","poldrack-single-stim","22","116480","0.0-9.1-1.1","pilot-38_ses-01","","2100","0","feedback","<div class = watt_canvas><div class=""watt_vertical_line""></div></div><div class = watt_your_board><div class = watt_base></div><div class = watt_board_label><strong>Votre Planche</strong></div><div id = watt_peg_1><div class = watt_peg></div></div><div id = watt_peg_1 ><div class = ""watt_ball watt_Green""><div class = watt_ball_label>G</div></div><div class = ""watt_ball watt_Red""><div class = watt_ball_label>R</div></div><div class = ""watt_ball watt_Blue""><div class = watt_ball_label>B</div></div></div><div id = watt_peg_2><div class = watt_peg></div></div><div id = watt_peg_2 ></div><div id = watt_peg_3><div class = watt_peg></div></div><div id = watt_peg_3 ></div></div><div class = watt_peg_board><div class = watt_base></div><div class = watt_board_label><strong>Planche Cible</strong></div><div id = watt_peg_1><div class = watt_peg></div></div><div id = watt_peg_1 ><div class = ""watt_ball watt_Green""><div class = watt_ball_label>G</div></div><div class = ""watt_ball watt_Red""><div class = watt_ball_label>R</div></div><div class = ""watt_ball watt_Blue""><div class = watt_ball_label>B</div></div></div><div id = watt_peg_2><div class = watt_peg></div></div><div id = watt_peg_2 ></div><div id = watt_peg_3><div class = watt_peg></div></div><div id = watt_peg_3 ></div></div><div class = watt_feedbackbox><p class = center-text>Complete</p></div>","none","1000","","3","3","","","","","practice","7536","true",""
"2374","82","poldrack-single-stim","23","118859","0.0-9.2-0.6-0.6","pilot-38_ses-01","","2374","0","to_hand","<div class = watt_canvas><div class=""watt_vertical_line""></div></div><div class = watt_your_board><div class = watt_base></div><div class = watt_board_label><strong>Votre Planche</strong></div><div id = watt_peg_1><div class = watt_peg></div></div><div id = watt_peg_1 onclick = ""pegClick(this.id)""></div><div id = watt_peg_2><div class = watt_peg></div></div><div class = special id = watt_peg_2 onclick = ""pegClick(this.id)""><div class = ""watt_ball watt_Red""><div class = watt_ball_label>R</div></div><div class = ""watt_ball watt_Green""><div class = watt_ball_label>G</div></div></div><div id = watt_peg_3><div class = watt_peg></div></div><div class = special id = watt_peg_3 onclick = ""pegClick(this.id)""><div class = ""watt_ball watt_Blue""><div class = watt_ball_label>B</div></div></div></div><div class = watt_peg_board><div class = watt_base></div><div class = watt_board_label><strong>Planche Cible</strong></div><div id = watt_peg_1><div class = watt_peg></div></div><div id = watt_peg_1 ><div class = ""watt_ball watt_Blue""><div class = watt_ball_label>B</div></div><div class = ""watt_ball watt_Green""><div class = watt_ball_label>G</div></div><div class = ""watt_ball watt_Red""><div class = watt_ball_label>R</div></div></div><div id = watt_peg_2><div class = watt_peg></div></div><div id = watt_peg_2 ></div><div id = watt_peg_3><div class = watt_peg></div></div><div id = watt_peg_3 ></div></div><div class = watt_hand_box></div><div class = watt_hand_label><strong>Boule en main</strong></div>","71,82","2374","0,0,0,1,2,0,0,0,0","1","3","0,0,0,1,2,0,3,0,0","3,2,1,0,0,0,0,0,0","UA_without_intermeidate","2","practice","","",""
"478","89","poldrack-single-stim","24","119341","0.0-9.2-0.6-1.6","pilot-38_ses-01","","478","0","to_board","<div class = watt_canvas><div class=""watt_vertical_line""></div></div><div class = watt_your_board><div class = watt_base></div><div class = watt_board_label><strong>Votre Planche</strong></div><div id = watt_peg_1><div class = watt_peg></div></div><div class = special id = watt_peg_1 onclick = ""pegClick(this.id)""></div><div id = watt_peg_2><div class = watt_peg></div></div><div class = special id = watt_peg_2 onclick = ""pegClick(this.id)""><div class = ""watt_ball watt_Red""><div class = watt_ball_label>R</div></div><div class = ""watt_ball watt_Green""><div class = watt_ball_label>G</div></div></div><div id = watt_peg_3><div class = watt_peg></div></div><div class = special id = watt_peg_3 onclick = ""pegClick(this.id)""></div></div><div class = watt_peg_board><div class = watt_base></div><div class = watt_board_label><strong>Planche Cible</strong></div><div id = watt_peg_1><div class = watt_peg></div></div><div id = watt_peg_1 ><div class = ""watt_ball watt_Blue""><div class = watt_ball_label>B</div></div><div class = ""watt_ball watt_Green""><div class = watt_ball_label>G</div></div><div class = ""watt_ball watt_Red""><div class = watt_ball_label>R</div></div></div><div id = watt_peg_2><div class = watt_peg></div></div><div id = watt_peg_2 ></div><div id = watt_peg_3><div class = watt_peg></div></div><div id = watt_peg_3 ></div></div><div class = watt_hand_box><div class = ""watt_hand_ball watt_Blue""><div class = watt_ball_label>B</div></div></div><div class = watt_hand_label><strong>Boule en main</strong></div>","89,71,82","478","3,0,0,1,2,0,0,0,0","1","3","0,0,0,1,2,0,3,0,0","3,2,1,0,0,0,0,0,0","UA_without_intermeidate","2","practice","","",""
"1340","71","poldrack-single-stim","25","120687","0.0-9.2-0.7-0.7","pilot-38_ses-01","","1340","0","to_hand","<div class = watt_canvas><div class=""watt_vertical_line""></div></div><div class = watt_your_board><div class = watt_base></div><div class = watt_board_label><strong>Votre Planche</strong></div><div id = watt_peg_1><div class = watt_peg></div></div><div class = special id = watt_peg_1 onclick = ""pegClick(this.id)""><div class = ""watt_ball watt_Blue""><div class = watt_ball_label>B</div></div></div><div id = watt_peg_2><div class = watt_peg></div></div><div class = special id = watt_peg_2 onclick = ""pegClick(this.id)""><div class = ""watt_ball watt_Red""><div class = watt_ball_label>R</div></div><div class = ""watt_ball watt_Green""><div class = watt_ball_label>G</div></div></div><div id = watt_peg_3><div class = watt_peg></div></div><div id = watt_peg_3 onclick = ""pegClick(this.id)""></div></div><div class = watt_peg_board><div class = watt_base></div><div class = watt_board_label><strong>Planche Cible</strong></div><div id = watt_peg_1><div class = watt_peg></div></div><div id = watt_peg_1 ><div class = ""watt_ball watt_Blue""><div class = watt_ball_label>B</div></div><div class = ""watt_ball watt_Green""><div class = watt_ball_label>G</div></div><div class = ""watt_ball watt_Red""><div class = watt_ball_label>R</div></div></div><div id = watt_peg_2><div class = watt_peg></div></div><div id = watt_peg_2 ></div><div id = watt_peg_3><div class = watt_peg></div></div><div id = watt_peg_3 ></div></div><div class = watt_hand_box></div><div class = watt_hand_label><strong>Boule en main</strong></div>","89,71","1340","3,0,0,1,0,0,0,0,0","2","3","0,0,0,1,2,0,3,0,0","3,2,1,0,0,0,0,0,0","UA_without_intermeidate","2","practice","","",""
"270","89","poldrack-single-stim","26","120961","0.0-9.2-0.7-1.7","pilot-38_ses-01","","270","0","to_board","<div class = watt_canvas><div class=""watt_vertical_line""></div></div><div class = watt_your_board><div class = watt_base></div><div class = watt_board_label><strong>Votre Planche</strong></div><div id = watt_peg_1><div class = watt_peg></div></div><div class = special id = watt_peg_1 onclick = ""pegClick(this.id)""><div class = ""watt_ball watt_Blue""><div class = watt_ball_label>B</div></div></div><div id = watt_peg_2><div class = watt_peg></div></div><div class = special id = watt_peg_2 onclick = ""pegClick(this.id)""><div class = ""watt_ball watt_Red""><div class = watt_ball_label>R</div></div></div><div id = watt_peg_3><div class = watt_peg></div></div><div class = special id = watt_peg_3 onclick = ""pegClick(this.id)""></div></div><div class = watt_peg_board><div class = watt_base></div><div class = watt_board_label><strong>Planche Cible</strong></div><div id = watt_peg_1><div class = watt_peg></div></div><div id = watt_peg_1 ><div class = ""watt_ball watt_Blue""><div class = watt_ball_label>B</div></div><div class = ""watt_ball watt_Green""><div class = watt_ball_label>G</div></div><div class = ""watt_ball watt_Red""><div class = watt_ball_label>R</div></div></div><div id = watt_peg_2><div class = watt_peg></div></div><div id = watt_peg_2 ></div><div id = watt_peg_3><div class = watt_peg></div></div><div id = watt_peg_3 ></div></div><div class = watt_hand_box><div class = ""watt_hand_ball watt_Green""><div class = watt_ball_label>G</div></div></div><div class = watt_hand_label><strong>Boule en main</strong></div>","89,71,82","270","3,2,0,1,0,0,0,0,0","2","3","0,0,0,1,2,0,3,0,0","3,2,1,0,0,0,0,0,0","UA_without_intermeidate","2","practice","","",""
"609","71","poldrack-single-stim","27","121575","0.0-9.2-0.8-0.8","pilot-38_ses-01","","609","0","to_hand","<div class = watt_canvas><div class=""watt_vertical_line""></div></div><div class = watt_your_board><div class = watt_base></div><div class = watt_board_label><strong>Votre Planche</strong></div><div id = watt_peg_1><div class = watt_peg></div></div><div class = special id = watt_peg_1 onclick = ""pegClick(this.id)""><div class = ""watt_ball watt_Blue""><div class = watt_ball_label>B</div></div><div class = ""watt_ball watt_Green""><div class = watt_ball_label>G</div></div></div><div id = watt_peg_2><div class = watt_peg></div></div><div class = special id = watt_peg_2 onclick = ""pegClick(this.id)""><div class = ""watt_ball watt_Red""><div class = watt_ball_label>R</div></div></div><div id = watt_peg_3><div class = watt_peg></div></div><div id = watt_peg_3 onclick = ""pegClick(this.id)""></div></div><div class = watt_peg_board><div class = watt_base></div><div class = watt_board_label><strong>Planche Cible</strong></div><div id = watt_peg_1><div class = watt_peg></div></div><div id = watt_peg_1 ><div class = ""watt_ball watt_Blue""><div class = watt_ball_label>B</div></div><div class = ""watt_ball watt_Green""><div class = watt_ball_label>G</div></div><div class = ""watt_ball watt_Red""><div class = watt_ball_label>R</div></div></div><div id = watt_peg_2><div class = watt_peg></div></div><div id = watt_peg_2 ></div><div id = watt_peg_3><div class = watt_peg></div></div><div id = watt_peg_3 ></div></div><div class = watt_hand_box></div><div class = watt_hand_label><strong>Boule en main</strong></div>","89,71","609","3,2,0,0,0,0,0,0,0","3","3","0,0,0,1,2,0,3,0,0","3,2,1,0,0,0,0,0,0","UA_without_intermeidate","2","practice","","",""
"279","89","poldrack-single-stim","28","121857","0.0-9.2-0.8-1.8","pilot-38_ses-01","","279","0","to_board","<div class = watt_canvas><div class=""watt_vertical_line""></div></div><div class = watt_your_board><div class = watt_base></div><div class = watt_board_label><strong>Votre Planche</strong></div><div id = watt_peg_1><div class = watt_peg></div></div><div class = special id = watt_peg_1 onclick = ""pegClick(this.id)""><div class = ""watt_ball watt_Blue""><div class = watt_ball_label>B</div></div><div class = ""watt_ball watt_Green""><div class = watt_ball_label>G</div></div></div><div id = watt_peg_2><div class = watt_peg></div></div><div class = special id = watt_peg_2 onclick = ""pegClick(this.id)""></div><div id = watt_peg_3><div class = watt_peg></div></div><div class = special id = watt_peg_3 onclick = ""pegClick(this.id)""></div></div><div class = watt_peg_board><div class = watt_base></div><div class = watt_board_label><strong>Planche Cible</strong></div><div id = watt_peg_1><div class = watt_peg></div></div><div id = watt_peg_1 ><div class = ""watt_ball watt_Blue""><div class = watt_ball_label>B</div></div><div class = ""watt_ball watt_Green""><div class = watt_ball_label>G</div></div><div class = ""watt_ball watt_Red""><div class = watt_ball_label>R</div></div></div><div id = watt_peg_2><div class = watt_peg></div></div><div id = watt_peg_2 ></div><div id = watt_peg_3><div class = watt_peg></div></div><div id = watt_peg_3 ></div></div><div class = watt_hand_box><div class = ""watt_hand_ball watt_Red""><div class = watt_ball_label>R</div></div></div><div class = watt_hand_label><strong>Boule en main</strong></div>","89,71,82","279","3,2,1,0,0,0,0,0,0","3","3","0,0,0,1,2,0,3,0,0","3,2,1,0,0,0,0,0,0","UA_without_intermeidate","2","practice","","",""
"-1","-1","poldrack-single-stim","29","124090","0.0-9.2-1.2","pilot-38_ses-01","","2200","0","feedback","<div class = watt_canvas><div class=""watt_vertical_line""></div></div><div class = watt_your_board><div class = watt_base></div><div class = watt_board_label><strong>Votre Planche</strong></div><div id = watt_peg_1><div class = watt_peg></div></div><div id = watt_peg_1 ><div class = ""watt_ball watt_Blue""><div class = watt_ball_label>B</div></div><div class = ""watt_ball watt_Green""><div class = watt_ball_label>G</div></div><div class = ""watt_ball watt_Red""><div class = watt_ball_label>R</div></div></div><div id = watt_peg_2><div class = watt_peg></div></div><div id = watt_peg_2 ></div><div id = watt_peg_3><div class = watt_peg></div></div><div id = watt_peg_3 ></div></div><div class = watt_peg_board><div class = watt_base></div><div class = watt_board_label><strong>Planche Cible</strong></div><div id = watt_peg_1><div class = watt_peg></div></div><div id = watt_peg_1 ><div class = ""watt_ball watt_Blue""><div class = watt_ball_label>B</div></div><div class = ""watt_ball watt_Green""><div class = watt_ball_label>G</div></div><div class = ""watt_ball watt_Red""><div class = watt_ball_label>R</div></div></div><div id = watt_peg_2><div class = watt_peg></div></div><div id = watt_peg_2 ></div><div id = watt_peg_3><div class = watt_peg></div></div><div id = watt_peg_3 ></div></div><div class = watt_feedbackbox><p class = center-text>Complete</p></div>","none","1000","","3","3","","","","","practice","7611","true",""
"2742","71","poldrack-single-stim","30","126840","0.0-9.3-0.9-0.9","pilot-38_ses-01","","2742","0","to_hand","<div class = watt_canvas><div class=""watt_vertical_line""></div></div><div class = watt_your_board><div class = watt_base></div><div class = watt_board_label><strong>Votre Planche</strong></div><div id = watt_peg_1><div class = watt_peg></div></div><div id = watt_peg_1 onclick = ""pegClick(this.id)""></div><div id = watt_peg_2><div class = watt_peg></div></div><div class = special id = watt_peg_2 onclick = ""pegClick(this.id)""><div class = ""watt_ball watt_Green""><div class = watt_ball_label>G</div></div><div class = ""watt_ball watt_Blue""><div class = watt_ball_label>B</div></div></div><div id = watt_peg_3><div class = watt_peg></div></div><div class = special id = watt_peg_3 onclick = ""pegClick(this.id)""><div class = ""watt_ball watt_Red""><div class = watt_ball_label>R</div></div></div></div><div class = watt_peg_board><div class = watt_base></div><div class = watt_board_label><strong>Planche Cible</strong></div><div id = watt_peg_1><div class = watt_peg></div></div><div id = watt_peg_1 ><div class = ""watt_ball watt_Blue""><div class = watt_ball_label>B</div></div><div class = ""watt_ball watt_Red""><div class = watt_ball_label>R</div></div><div class = ""watt_ball watt_Green""><div class = watt_ball_label>G</div></div></div><div id = watt_peg_2><div class = watt_peg></div></div><div id = watt_peg_2 ></div><div id = watt_peg_3><div class = watt_peg></div></div><div id = watt_peg_3 ></div></div><div class = watt_hand_box></div><div class = watt_hand_label><strong>Boule en main</strong></div>","71,82","2742","0,0,0,1,0,0,3,0,0","1","3","0,0,0,1,2,0,3,0,0","2,3,1,0,0,0,0,0,0","UA_without_intermeidate","3","practice","","",""
"479","89","poldrack-single-stim","31","127322","0.0-9.3-0.9-1.9","pilot-38_ses-01","","479","0","to_board","<div class = watt_canvas><div class=""watt_vertical_line""></div></div><div class = watt_your_board><div class = watt_base></div><div class = watt_board_label><strong>Votre Planche</strong></div><div id = watt_peg_1><div class = watt_peg></div></div><div class = special id = watt_peg_1 onclick = ""pegClick(this.id)""></div><div id = watt_peg_2><div class = watt_peg></div></div><div class = special id = watt_peg_2 onclick = ""pegClick(this.id)""><div class = ""watt_ball watt_Green""><div class = watt_ball_label>G</div></div></div><div id = watt_peg_3><div class = watt_peg></div></div><div class = special id = watt_peg_3 onclick = ""pegClick(this.id)""><div class = ""watt_ball watt_Red""><div class = watt_ball_label>R</div></div></div></div><div class = watt_peg_board><div class = watt_base></div><div class = watt_board_label><strong>Planche Cible</strong></div><div id = watt_peg_1><div class = watt_peg></div></div><div id = watt_peg_1 ><div class = ""watt_ball watt_Blue""><div class = watt_ball_label>B</div></div><div class = ""watt_ball watt_Red""><div class = watt_ball_label>R</div></div><div class = ""watt_ball watt_Green""><div class = watt_ball_label>G</div></div></div><div id = watt_peg_2><div class = watt_peg></div></div><div id = watt_peg_2 ></div><div id = watt_peg_3><div class = watt_peg></div></div><div id = watt_peg_3 ></div></div><div class = watt_hand_box><div class = ""watt_hand_ball watt_Blue""><div class = watt_ball_label>B</div></div></div><div class = watt_hand_label><strong>Boule en main</strong></div>","89,71,82","479","2,0,0,1,0,0,3,0,0","1","3","0,0,0,1,2,0,3,0,0","2,3,1,0,0,0,0,0,0","UA_without_intermeidate","3","practice","","",""
"692","82","poldrack-single-stim","32","128022","0.0-9.3-0.10-0.10","pilot-38_ses-01","","692","0","to_hand","<div class = watt_canvas><div class=""watt_vertical_line""></div></div><div class = watt_your_board><div class = watt_base></div><div class = watt_board_label><strong>Votre Planche</strong></div><div id = watt_peg_1><div class = watt_peg></div></div><div class = special id = watt_peg_1 onclick = ""pegClick(this.id)""><div class = ""watt_ball watt_Blue""><div class = watt_ball_label>B</div></div></div><div id = watt_peg_2><div class = watt_peg></div></div><div class = special id = watt_peg_2 onclick = ""pegClick(this.id)""><div class = ""watt_ball watt_Green""><div class = watt_ball_label>G</div></div></div><div id = watt_peg_3><div class = watt_peg></div></div><div class = special id = watt_peg_3 onclick = ""pegClick(this.id)""><div class = ""watt_ball watt_Red""><div class = watt_ball_label>R</div></div></div></div><div class = watt_peg_board><div class = watt_base></div><div class = watt_board_label><strong>Planche Cible</strong></div><div id = watt_peg_1><div class = watt_peg></div></div><div id = watt_peg_1 ><div class = ""watt_ball watt_Blue""><div class = watt_ball_label>B</div></div><div class = ""watt_ball watt_Red""><div class = watt_ball_label>R</div></div><div class = ""watt_ball watt_Green""><div class = watt_ball_label>G</div></div></div><div id = watt_peg_2><div class = watt_peg></div></div><div id = watt_peg_2 ></div><div id = watt_peg_3><div class = watt_peg></div></div><div id = watt_peg_3 ></div></div><div class = watt_hand_box></div><div class = watt_hand_label><strong>Boule en main</strong></div>","89,71,82","692","2,0,0,1,0,0,0,0,0","2","3","0,0,0,1,2,0,3,0,0","2,3,1,0,0,0,0,0,0","UA_without_intermeidate","3","practice","","",""
"635","89","poldrack-single-stim","33","128660","0.0-9.3-0.10-1.10","pilot-38_ses-01","","635","0","to_board","<div class = watt_canvas><div class=""watt_vertical_line""></div></div><div class = watt_your_board><div class = watt_base></div><div class = watt_board_label><strong>Votre Planche</strong></div><div id = watt_peg_1><div class = watt_peg></div></div><div class = special id = watt_peg_1 onclick = ""pegClick(this.id)""><div class = ""watt_ball watt_Blue""><div class = watt_ball_label>B</div></div></div><div id = watt_peg_2><div class = watt_peg></div></div><div class = special id = watt_peg_2 onclick = ""pegClick(this.id)""><div class = ""watt_ball watt_Green""><div class = watt_ball_label>G</div></div></div><div id = watt_peg_3><div class = watt_peg></div></div><div class = special id = watt_peg_3 onclick = ""pegClick(this.id)""></div></div><div class = watt_peg_board><div class = watt_base></div><div class = watt_board_label><strong>Planche Cible</strong></div><div id = watt_peg_1><div class = watt_peg></div></div><div id = watt_peg_1 ><div class = ""watt_ball watt_Blue""><div class = watt_ball_label>B</div></div><div class = ""watt_ball watt_Red""><div class = watt_ball_label>R</div></div><div class = ""watt_ball watt_Green""><div class = watt_ball_label>G</div></div></div><div id = watt_peg_2><div class = watt_peg></div></div><div id = watt_peg_2 ></div><div id = watt_peg_3><div class = watt_peg></div></div><div id = watt_peg_3 ></div></div><div class = watt_hand_box><div class = ""watt_hand_ball watt_Red""><div class = watt_ball_label>R</div></div></div><div class = watt_hand_label><strong>Boule en main</strong></div>","89,71,82","635","2,3,0,1,0,0,0,0,0","2","3","0,0,0,1,2,0,3,0,0","2,3,1,0,0,0,0,0,0","UA_without_intermeidate","3","practice","","",""
"468","71","poldrack-single-stim","34","129129","0.0-9.3-0.11-0.11","pilot-38_ses-01","","468","0","to_hand","<div class = watt_canvas><div class=""watt_vertical_line""></div></div><div class = watt_your_board><div class = watt_base></div><div class = watt_board_label><strong>Votre Planche</strong></div><div id = watt_peg_1><div class = watt_peg></div></div><div class = special id = watt_peg_1 onclick = ""pegClick(this.id)""><div class = ""watt_ball watt_Blue""><div class = watt_ball_label>B</div></div><div class = ""watt_ball watt_Red""><div class = watt_ball_label>R</div></div></div><div id = watt_peg_2><div class = watt_peg></div></div><div class = special id = watt_peg_2 onclick = ""pegClick(this.id)""><div class = ""watt_ball watt_Green""><div class = watt_ball_label>G</div></div></div><div id = watt_peg_3><div class = watt_peg></div></div><div id = watt_peg_3 onclick = ""pegClick(this.id)""></div></div><div class = watt_peg_board><div class = watt_base></div><div class = watt_board_label><strong>Planche Cible</strong></div><div id = watt_peg_1><div class = watt_peg></div></div><div id = watt_peg_1 ><div class = ""watt_ball watt_Blue""><div class = watt_ball_label>B</div></div><div class = ""watt_ball watt_Red""><div class = watt_ball_label>R</div></div><div class = ""watt_ball watt_Green""><div class = watt_ball_label>G</div></div></div><div id = watt_peg_2><div class = watt_peg></div></div><div id = watt_peg_2 ></div><div id = watt_peg_3><div class = watt_peg></div></div><div id = watt_peg_3 ></div></div><div class = watt_hand_box></div><div class = watt_hand_label><strong>Boule en main</strong></div>","89,71","468","2,3,0,0,0,0,0,0,0","3","3","0,0,0,1,2,0,3,0,0","2,3,1,0,0,0,0,0,0","UA_without_intermeidate","3","practice","","",""
"380","89","poldrack-single-stim","35","129512","0.0-9.3-0.11-1.11","pilot-38_ses-01","","380","0","to_board","<div class = watt_canvas><div class=""watt_vertical_line""></div></div><div class = watt_your_board><div class = watt_base></div><div class = watt_board_label><strong>Votre Planche</strong></div><div id = watt_peg_1><div class = watt_peg></div></div><div class = special id = watt_peg_1 onclick = ""pegClick(this.id)""><div class = ""watt_ball watt_Blue""><div class = watt_ball_label>B</div></div><div class = ""watt_ball watt_Red""><div class = watt_ball_label>R</div></div></div><div id = watt_peg_2><div class = watt_peg></div></div><div class = special id = watt_peg_2 onclick = ""pegClick(this.id)""></div><div id = watt_peg_3><div class = watt_peg></div></div><div class = special id = watt_peg_3 onclick = ""pegClick(this.id)""></div></div><div class = watt_peg_board><div class = watt_base></div><div class = watt_board_label><strong>Planche Cible</strong></div><div id = watt_peg_1><div class = watt_peg></div></div><div id = watt_peg_1 ><div class = ""watt_ball watt_Blue""><div class = watt_ball_label>B</div></div><div class = ""watt_ball watt_Red""><div class = watt_ball_label>R</div></div><div class = ""watt_ball watt_Green""><div class = watt_ball_label>G</div></div></div><div id = watt_peg_2><div class = watt_peg></div></div><div id = watt_peg_2 ></div><div id = watt_peg_3><div class = watt_peg></div></div><div id = watt_peg_3 ></div></div><div class = watt_hand_box><div class = ""watt_hand_ball watt_Green""><div class = watt_ball_label>G</div></div></div><div class = watt_hand_label><strong>Boule en main</strong></div>","89,71,82","380","2,3,1,0,0,0,0,0,0","3","3","0,0,0,1,2,0,3,0,0","2,3,1,0,0,0,0,0,0","UA_without_intermeidate","3","practice","","",""
"-1","-1","poldrack-single-stim","36","131544","0.0-9.3-1.3","pilot-38_ses-01","","2000","0","feedback","<div class = watt_canvas><div class=""watt_vertical_line""></div></div><div class = watt_your_board><div class = watt_base></div><div class = watt_board_label><strong>Votre Planche</strong></div><div id = watt_peg_1><div class = watt_peg></div></div><div id = watt_peg_1 ><div class = ""watt_ball watt_Blue""><div class = watt_ball_label>B</div></div><div class = ""watt_ball watt_Red""><div class = watt_ball_label>R</div></div><div class = ""watt_ball watt_Green""><div class = watt_ball_label>G</div></div></div><div id = watt_peg_2><div class = watt_peg></div></div><div id = watt_peg_2 ></div><div id = watt_peg_3><div class = watt_peg></div></div><div id = watt_peg_3 ></div></div><div class = watt_peg_board><div class = watt_base></div><div class = watt_board_label><strong>Planche Cible</strong></div><div id = watt_peg_1><div class = watt_peg></div></div><div id = watt_peg_1 ><div class = ""watt_ball watt_Blue""><div class = watt_ball_label>B</div></div><div class = ""watt_ball watt_Red""><div class = watt_ball_label>R</div></div><div class = ""watt_ball watt_Green""><div class = watt_ball_label>G</div></div></div><div id = watt_peg_2><div class = watt_peg></div></div><div id = watt_peg_2 ></div><div id = watt_peg_3><div class = watt_peg></div></div><div id = watt_peg_3 ></div></div><div class = watt_feedbackbox><p class = center-text>Complete</p></div>","none","1000","","3","3","","","","","practice","7454","true",""
"-1","-1","poldrack-single-stim","37","133063","0.0-10.0","pilot-38_ses-01","","1500","500","test_start_block","<div class = centerbox><div class = center-text>Preparez-vous!</p></div>","none","1500","","","","","","","","","","",""
"2351","71","poldrack-single-stim","38","135937","0.0-11.0-0.0-0.0","pilot-38_ses-01","","2351","0","to_hand","<div class = watt_canvas><div class=""watt_vertical_line""></div></div><div class = watt_your_board><div class = watt_base></div><div class = watt_board_label><strong>Votre Planche</strong></div><div id = watt_peg_1><div class = watt_peg></div></div><div id = watt_peg_1 onclick = ""pegClick(this.id)""></div><div id = watt_peg_2><div class = watt_peg></div></div><div class = special id = watt_peg_2 onclick = ""pegClick(this.id)""><div class = ""watt_ball watt_Blue""><div class = watt_ball_label>B</div></div><div class = ""watt_ball watt_Green""><div class = watt_ball_label>G</div></div><div class = ""watt_ball watt_Red""><div class = watt_ball_label>R</div></div></div><div id = watt_peg_3><div class = watt_peg></div></div><div id = watt_peg_3 onclick = ""pegClick(this.id)""></div></div><div class = watt_peg_board><div class = watt_base></div><div class = watt_board_label><strong>Planche Cible</strong></div><div id = watt_peg_1><div class = watt_peg></div></div><div id = watt_peg_1 ><div class = ""watt_ball watt_Red""><div class = watt_ball_label>R</div></div><div class = ""watt_ball watt_Blue""><div class = watt_ball_label>B</div></div></div><div id = watt_peg_2><div class = watt_peg></div></div><div id = watt_peg_2 ></div><div id = watt_peg_3><div class = watt_peg></div></div><div id = watt_peg_3 ><div class = ""watt_ball watt_Green""><div class = watt_ball_label>G</div></div></div></div><div class = watt_hand_box></div><div class = watt_hand_label><strong>Boule en main</strong></div>","71","2351","0,0,0,1,2,0,0,0,0","1","3","0,0,0,1,2,3,0,0,0","3,1,0,0,0,0,2,0,0","PA_without_intermediate","0","test","","",""
"509","89","poldrack-single-stim","39","136450","0.0-11.0-0.0-1.0","pilot-38_ses-01","","509","0","to_board","<div class = watt_canvas><div class=""watt_vertical_line""></div></div><div class = watt_your_board><div class = watt_base></div><div class = watt_board_label><strong>Votre Planche</strong></div><div id = watt_peg_1><div class = watt_peg></div></div><div class = special id = watt_peg_1 onclick = ""pegClick(this.id)""></div><div id = watt_peg_2><div class = watt_peg></div></div><div class = special id = watt_peg_2 onclick = ""pegClick(this.id)""><div class = ""watt_ball watt_Blue""><div class = watt_ball_label>B</div></div><div class = ""watt_ball watt_Green""><div class = watt_ball_label>G</div></div></div><div id = watt_peg_3><div class = watt_peg></div></div><div class = special id = watt_peg_3 onclick = ""pegClick(this.id)""></div></div><div class = watt_peg_board><div class = watt_base></div><div class = watt_board_label><strong>Planche Cible</strong></div><div id = watt_peg_1><div class = watt_peg></div></div><div id = watt_peg_1 ><div class = ""watt_ball watt_Red""><div class = watt_ball_label>R</div></div><div class = ""watt_ball watt_Blue""><div class = watt_ball_label>B</div></div></div><div id = watt_peg_2><div class = watt_peg></div></div><div id = watt_peg_2 ></div><div id = watt_peg_3><div class = watt_peg></div></div><div id = watt_peg_3 ><div class = ""watt_ball watt_Green""><div class = watt_ball_label>G</div></div></div></div><div class = watt_hand_box><div class = ""watt_hand_ball watt_Red""><div class = watt_ball_label>R</div></div></div><div class = watt_hand_label><strong>Boule en main</strong></div>","89,71,82","509","3,0,0,1,2,0,0,0,0","1","3","0,0,0,1,2,3,0,0,0","3,1,0,0,0,0,2,0,0","PA_without_intermediate","0","test","","",""
"2362","71","poldrack-single-stim","40","138817","0.0-11.0-0.1-0.1","pilot-38_ses-01","","2362","0","to_hand","<div class = watt_canvas><div class=""watt_vertical_line""></div></div><div class = watt_your_board><div class = watt_base></div><div class = watt_board_label><strong>Votre Planche</strong></div><div id = watt_peg_1><div class = watt_peg></div></div><div class = special id = watt_peg_1 onclick = ""pegClick(this.id)""><div class = ""watt_ball watt_Red""><div class = watt_ball_label>R</div></div></div><div id = watt_peg_2><div class = watt_peg></div></div><div class = special id = watt_peg_2 onclick = ""pegClick(this.id)""><div class = ""watt_ball watt_Blue""><div class = watt_ball_label>B</div></div><div class = ""watt_ball watt_Green""><div class = watt_ball_label>G</div></div></div><div id = watt_peg_3><div class = watt_peg></div></div><div id = watt_peg_3 onclick = ""pegClick(this.id)""></div></div><div class = watt_peg_board><div class = watt_base></div><div class = watt_board_label><strong>Planche Cible</strong></div><div id = watt_peg_1><div class = watt_peg></div></div><div id = watt_peg_1 ><div class = ""watt_ball watt_Red""><div class = watt_ball_label>R</div></div><div class = ""watt_ball watt_Blue""><div class = watt_ball_label>B</div></div></div><div id = watt_peg_2><div class = watt_peg></div></div><div id = watt_peg_2 ></div><div id = watt_peg_3><div class = watt_peg></div></div><div id = watt_peg_3 ><div class = ""watt_ball watt_Green""><div class = watt_ball_label>G</div></div></div></div><div class = watt_hand_box></div><div class = watt_hand_label><strong>Boule en main</strong></div>","89,71","2362","3,0,0,1,0,0,0,0,0","2","3","0,0,0,1,2,3,0,0,0","3,1,0,0,0,0,2,0,0","PA_without_intermediate","0","test","","",""
"535","82","poldrack-single-stim","41","139356","0.0-11.0-0.1-1.1","pilot-38_ses-01","","535","0","to_board","<div class = watt_canvas><div class=""watt_vertical_line""></div></div><div class = watt_your_board><div class = watt_base></div><div class = watt_board_label><strong>Votre Planche</strong></div><div id = watt_peg_1><div class = watt_peg></div></div><div class = special id = watt_peg_1 onclick = ""pegClick(this.id)""><div class = ""watt_ball watt_Red""><div class = watt_ball_label>R</div></div></div><div id = watt_peg_2><div class = watt_peg></div></div><div class = special id = watt_peg_2 onclick = ""pegClick(this.id)""><div class = ""watt_ball watt_Blue""><div class = watt_ball_label>B</div></div></div><div id = watt_peg_3><div class = watt_peg></div></div><div class = special id = watt_peg_3 onclick = ""pegClick(this.id)""></div></div><div class = watt_peg_board><div class = watt_base></div><div class = watt_board_label><strong>Planche Cible</strong></div><div id = watt_peg_1><div class = watt_peg></div></div><div id = watt_peg_1 ><div class = ""watt_ball watt_Red""><div class = watt_ball_label>R</div></div><div class = ""watt_ball watt_Blue""><div class = watt_ball_label>B</div></div></div><div id = watt_peg_2><div class = watt_peg></div></div><div id = watt_peg_2 ></div><div id = watt_peg_3><div class = watt_peg></div></div><div id = watt_peg_3 ><div class = ""watt_ball watt_Green""><div class = watt_ball_label>G</div></div></div></div><div class = watt_hand_box><div class = ""watt_hand_ball watt_Green""><div class = watt_ball_label>G</div></div></div><div class = watt_hand_label><strong>Boule en main</strong></div>","89,71,82","535","3,0,0,1,0,0,2,0,0","2","3","0,0,0,1,2,3,0,0,0","3,1,0,0,0,0,2,0,0","PA_without_intermediate","0","test","","",""
"707","71","poldrack-single-stim","42","140067","0.0-11.0-0.2-0.2","pilot-38_ses-01","","707","0","to_hand","<div class = watt_canvas><div class=""watt_vertical_line""></div></div><div class = watt_your_board><div class = watt_base></div><div class = watt_board_label><strong>Votre Planche</strong></div><div id = watt_peg_1><div class = watt_peg></div></div><div class = special id = watt_peg_1 onclick = ""pegClick(this.id)""><div class = ""watt_ball watt_Red""><div class = watt_ball_label>R</div></div></div><div id = watt_peg_2><div class = watt_peg></div></div><div class = special id = watt_peg_2 onclick = ""pegClick(this.id)""><div class = ""watt_ball watt_Blue""><div class = watt_ball_label>B</div></div></div><div id = watt_peg_3><div class = watt_peg></div></div><div class = special id = watt_peg_3 onclick = ""pegClick(this.id)""><div class = ""watt_ball watt_Green""><div class = watt_ball_label>G</div></div></div></div><div class = watt_peg_board><div class = watt_base></div><div class = watt_board_label><strong>Planche Cible</strong></div><div id = watt_peg_1><div class = watt_peg></div></div><div id = watt_peg_1 ><div class = ""watt_ball watt_Red""><div class = watt_ball_label>R</div></div><div class = ""watt_ball watt_Blue""><div class = watt_ball_label>B</div></div></div><div id = watt_peg_2><div class = watt_peg></div></div><div id = watt_peg_2 ></div><div id = watt_peg_3><div class = watt_peg></div></div><div id = watt_peg_3 ><div class = ""watt_ball watt_Green""><div class = watt_ball_label>G</div></div></div></div><div class = watt_hand_box></div><div class = watt_hand_label><strong>Boule en main</strong></div>","89,71,82","707","3,0,0,0,0,0,2,0,0","3","3","0,0,0,1,2,3,0,0,0","3,1,0,0,0,0,2,0,0","PA_without_intermediate","0","test","","",""
"342","89","poldrack-single-stim","43","140412","0.0-11.0-0.2-1.2","pilot-38_ses-01","","342","0","to_board","<div class = watt_canvas><div class=""watt_vertical_line""></div></div><div class = watt_your_board><div class = watt_base></div><div class = watt_board_label><strong>Votre Planche</strong></div><div id = watt_peg_1><div class = watt_peg></div></div><div class = special id = watt_peg_1 onclick = ""pegClick(this.id)""><div class = ""watt_ball watt_Red""><div class = watt_ball_label>R</div></div></div><div id = watt_peg_2><div class = watt_peg></div></div><div class = special id = watt_peg_2 onclick = ""pegClick(this.id)""></div><div id = watt_peg_3><div class = watt_peg></div></div><div class = special id = watt_peg_3 onclick = ""pegClick(this.id)""><div class = ""watt_ball watt_Green""><div class = watt_ball_label>G</div></div></div></div><div class = watt_peg_board><div class = watt_base></div><div class = watt_board_label><strong>Planche Cible</strong></div><div id = watt_peg_1><div class = watt_peg></div></div><div id = watt_peg_1 ><div class = ""watt_ball watt_Red""><div class = watt_ball_label>R</div></div><div class = ""watt_ball watt_Blue""><div class = watt_ball_label>B</div></div></div><div id = watt_peg_2><div class = watt_peg></div></div><div id = watt_peg_2 ></div><div id = watt_peg_3><div class = watt_peg></div></div><div id = watt_peg_3 ><div class = ""watt_ball watt_Green""><div class = watt_ball_label>G</div></div></div></div><div class = watt_hand_box><div class = ""watt_hand_ball watt_Blue""><div class = watt_ball_label>B</div></div></div><div class = watt_hand_label><strong>Boule en main</strong></div>","89,71,82","342","3,1,0,0,0,0,2,0,0","3","3","0,0,0,1,2,3,0,0,0","3,1,0,0,0,0,2,0,0","PA_without_intermediate","0","test","","",""
"-1","-1","poldrack-single-stim","44","143531","0.0-11.0-1.0","pilot-38_ses-01","","3088","0","feedback","<div class = watt_canvas><div class=""watt_vertical_line""></div></div><div class = watt_your_board><div class = watt_base></div><div class = watt_board_label><strong>Votre Planche</strong></div><div id = watt_peg_1><div class = watt_peg></div></div><div id = watt_peg_1 ><div class = ""watt_ball watt_Red""><div class = watt_ball_label>R</div></div><div class = ""watt_ball watt_Blue""><div class = watt_ball_label>B</div></div></div><div id = watt_peg_2><div class = watt_peg></div></div><div id = watt_peg_2 ></div><div id = watt_peg_3><div class = watt_peg></div></div><div id = watt_peg_3 ><div class = ""watt_ball watt_Green""><div class = watt_ball_label>G</div></div></div></div><div class = watt_peg_board><div class = watt_base></div><div class = watt_board_label><strong>Planche Cible</strong></div><div id = watt_peg_1><div class = watt_peg></div></div><div id = watt_peg_1 ><div class = ""watt_ball watt_Red""><div class = watt_ball_label>R</div></div><div class = ""watt_ball watt_Blue""><div class = watt_ball_label>B</div></div></div><div id = watt_peg_2><div class = watt_peg></div></div><div id = watt_peg_2 ></div><div id = watt_peg_3><div class = watt_peg></div></div><div id = watt_peg_3 ><div class = ""watt_ball watt_Green""><div class = watt_ball_label>G</div></div></div></div><div class = watt_feedbackbox><p class = center-text>Complete</p></div>","none","1000","","3","3","","","","","test","10469","true",""
"3559","89","poldrack-single-stim","45","147099","0.0-11.1-0.3-0.3","pilot-38_ses-01","","3559","0","to_hand","<div class = watt_canvas><div class=""watt_vertical_line""></div></div><div class = watt_your_board><div class = watt_base></div><div class = watt_board_label><strong>Votre Planche</strong></div><div id = watt_peg_1><div class = watt_peg></div></div><div class = special id = watt_peg_1 onclick = ""pegClick(this.id)""><div class = ""watt_ball watt_Blue""><div class = watt_ball_label>B</div></div><div class = ""watt_ball watt_Red""><div class = watt_ball_label>R</div></div><div class = ""watt_ball watt_Green""><div class = watt_ball_label>G</div></div></div><div id = watt_peg_2><div class = watt_peg></div></div><div id = watt_peg_2 onclick = ""pegClick(this.id)""></div><div id = watt_peg_3><div class = watt_peg></div></div><div id = watt_peg_3 onclick = ""pegClick(this.id)""></div></div><div class = watt_peg_board><div class = watt_base></div><div class = watt_board_label><strong>Planche Cible</strong></div><div id = watt_peg_1><div class = watt_peg></div></div><div id = watt_peg_1 ><div class = ""watt_ball watt_Blue""><div class = watt_ball_label>B</div></div><div class = ""watt_ball watt_Green""><div class = watt_ball_label>G</div></div></div><div id = watt_peg_2><div class = watt_peg></div></div><div id = watt_peg_2 ><div class = ""watt_ball watt_Red""><div class = watt_ball_label>R</div></div></div><div id = watt_peg_3><div class = watt_peg></div></div><div id = watt_peg_3 ></div></div><div class = watt_hand_box></div><div class = watt_hand_label><strong>Boule en main</strong></div>","89","3559","1,2,0,0,0,0,0,0,0","1","3","1,2,3,0,0,0,0,0,0","1,3,0,2,0,0,0,0,0","PA_with_intermediate","1","test","","",""
"670","82","poldrack-single-stim","46","147773","0.0-11.1-0.3-1.3","pilot-38_ses-01","","670","0","to_board","<div class = watt_canvas><div class=""watt_vertical_line""></div></div><div class = watt_your_board><div class = watt_base></div><div class = watt_board_label><strong>Votre Planche</strong></div><div id = watt_peg_1><div class = watt_peg></div></div><div class = special id = watt_peg_1 onclick = ""pegClick(this.id)""><div class = ""watt_ball watt_Blue""><div class = watt_ball_label>B</div></div><div class = ""watt_ball watt_Red""><div class = watt_ball_label>R</div></div></div><div id = watt_peg_2><div class = watt_peg></div></div><div class = special id = watt_peg_2 onclick = ""pegClick(this.id)""></div><div id = watt_peg_3><div class = watt_peg></div></div><div class = special id = watt_peg_3 onclick = ""pegClick(this.id)""></div></div><div class = watt_peg_board><div class = watt_base></div><div class = watt_board_label><strong>Planche Cible</strong></div><div id = watt_peg_1><div class = watt_peg></div></div><div id = watt_peg_1 ><div class = ""watt_ball watt_Blue""><div class = watt_ball_label>B</div></div><div class = ""watt_ball watt_Green""><div class = watt_ball_label>G</div></div></div><div id = watt_peg_2><div class = watt_peg></div></div><div id = watt_peg_2 ><div class = ""watt_ball watt_Red""><div class = watt_ball_label>R</div></div></div><div id = watt_peg_3><div class = watt_peg></div></div><div id = watt_peg_3 ></div></div><div class = watt_hand_box><div class = ""watt_hand_ball watt_Green""><div class = watt_ball_label>G</div></div></div><div class = watt_hand_label><strong>Boule en main</strong></div>","89,71,82","670","1,2,0,0,0,0,3,0,0","1","3","1,2,3,0,0,0,0,0,0","1,3,0,2,0,0,0,0,0","PA_with_intermediate","1","test","","",""
"841","89","poldrack-single-stim","47","148621","0.0-11.1-0.4-0.4","pilot-38_ses-01","","841","0","to_hand","<div class = watt_canvas><div class=""watt_vertical_line""></div></div><div class = watt_your_board><div class = watt_base></div><div class = watt_board_label><strong>Votre Planche</strong></div><div id = watt_peg_1><div class = watt_peg></div></div><div class = special id = watt_peg_1 onclick = ""pegClick(this.id)""><div class = ""watt_ball watt_Blue""><div class = watt_ball_label>B</div></div><div class = ""watt_ball watt_Red""><div class = watt_ball_label>R</div></div></div><div id = watt_peg_2><div class = watt_peg></div></div><div id = watt_peg_2 onclick = ""pegClick(this.id)""></div><div id = watt_peg_3><div class = watt_peg></div></div><div class = special id = watt_peg_3 onclick = ""pegClick(this.id)""><div class = ""watt_ball watt_Green""><div class = watt_ball_label>G</div></div></div></div><div class = watt_peg_board><div class = watt_base></div><div class = watt_board_label><strong>Planche Cible</strong></div><div id = watt_peg_1><div class = watt_peg></div></div><div id = watt_peg_1 ><div class = ""watt_ball watt_Blue""><div class = watt_ball_label>B</div></div><div class = ""watt_ball watt_Green""><div class = watt_ball_label>G</div></div></div><div id = watt_peg_2><div class = watt_peg></div></div><div id = watt_peg_2 ><div class = ""watt_ball watt_Red""><div class = watt_ball_label>R</div></div></div><div id = watt_peg_3><div class = watt_peg></div></div><div id = watt_peg_3 ></div></div><div class = watt_hand_box></div><div class = watt_hand_label><strong>Boule en main</strong></div>","89,82","841","1,0,0,0,0,0,3,0,0","2","3","1,2,3,0,0,0,0,0,0","1,3,0,2,0,0,0,0,0","PA_with_intermediate","1","test","","",""
"503","71","poldrack-single-stim","48","149129","0.0-11.1-0.4-1.4","pilot-38_ses-01","","503","0","to_board","<div class = watt_canvas><div class=""watt_vertical_line""></div></div><div class = watt_your_board><div class = watt_base></div><div class = watt_board_label><strong>Votre Planche</strong></div><div id = watt_peg_1><div class = watt_peg></div></div><div class = special id = watt_peg_1 onclick = ""pegClick(this.id)""><div class = ""watt_ball watt_Blue""><div class = watt_ball_label>B</div></div></div><div id = watt_peg_2><div class = watt_peg></div></div><div class = special id = watt_peg_2 onclick = ""pegClick(this.id)""></div><div id = watt_peg_3><div class = watt_peg></div></div><div class = special id = watt_peg_3 onclick = ""pegClick(this.id)""><div class = ""watt_ball watt_Green""><div class = watt_ball_label>G</div></div></div></div><div class = watt_peg_board><div class = watt_base></div><div class = watt_board_label><strong>Planche Cible</strong></div><div id = watt_peg_1><div class = watt_peg></div></div><div id = watt_peg_1 ><div class = ""watt_ball watt_Blue""><div class = watt_ball_label>B</div></div><div class = ""watt_ball watt_Green""><div class = watt_ball_label>G</div></div></div><div id = watt_peg_2><div class = watt_peg></div></div><div id = watt_peg_2 ><div class = ""watt_ball watt_Red""><div class = watt_ball_label>R</div></div></div><div id = watt_peg_3><div class = watt_peg></div></div><div id = watt_peg_3 ></div></div><div class = watt_hand_box><div class = ""watt_hand_ball watt_Red""><div class = watt_ball_label>R</div></div></div><div class = watt_hand_label><strong>Boule en main</strong></div>","89,71,82","503","1,0,0,2,0,0,3,0,0","2","3","1,2,3,0,0,0,0,0,0","1,3,0,2,0,0,0,0,0","PA_with_intermediate","1","test","","",""
"982","82","poldrack-single-stim","49","150119","0.0-11.1-0.5-0.5","pilot-38_ses-01","","982","0","to_hand","<div class = watt_canvas><div class=""watt_vertical_line""></div></div><div class = watt_your_board><div class = watt_base></div><div class = watt_board_label><strong>Votre Planche</strong></div><div id = watt_peg_1><div class = watt_peg></div></div><div class = special id = watt_peg_1 onclick = ""pegClick(this.id)""><div class = ""watt_ball watt_Blue""><div class = watt_ball_label>B</div></div></div><div id = watt_peg_2><div class = watt_peg></div></div><div class = special id = watt_peg_2 onclick = ""pegClick(this.id)""><div class = ""watt_ball watt_Red""><div class = watt_ball_label>R</div></div></div><div id = watt_peg_3><div class = watt_peg></div></div><div class = special id = watt_peg_3 onclick = ""pegClick(this.id)""><div class = ""watt_ball watt_Green""><div class = watt_ball_label>G</div></div></div></div><div class = watt_peg_board><div class = watt_base></div><div class = watt_board_label><strong>Planche Cible</strong></div><div id = watt_peg_1><div class = watt_peg></div></div><div id = watt_peg_1 ><div class = ""watt_ball watt_Blue""><div class = watt_ball_label>B</div></div><div class = ""watt_ball watt_Green""><div class = watt_ball_label>G</div></div></div><div id = watt_peg_2><div class = watt_peg></div></div><div id = watt_peg_2 ><div class = ""watt_ball watt_Red""><div class = watt_ball_label>R</div></div></div><div id = watt_peg_3><div class = watt_peg></div></div><div id = watt_peg_3 ></div></div><div class = watt_hand_box></div><div class = watt_hand_label><strong>Boule en main</strong></div>","89,71,82","982","1,0,0,2,0,0,0,0,0","3","3","1,2,3,0,0,0,0,0,0","1,3,0,2,0,0,0,0,0","PA_with_intermediate","1","test","","",""
"343","89","poldrack-single-stim","50","150465","0.0-11.1-0.5-1.5","pilot-38_ses-01","","343","0","to_board","<div class = watt_canvas><div class=""watt_vertical_line""></div></div><div class = watt_your_board><div class = watt_base></div><div class = watt_board_label><strong>Votre Planche</strong></div><div id = watt_peg_1><div class = watt_peg></div></div><div class = special id = watt_peg_1 onclick = ""pegClick(this.id)""><div class = ""watt_ball watt_Blue""><div class = watt_ball_label>B</div></div></div><div id = watt_peg_2><div class = watt_peg></div></div><div class = special id = watt_peg_2 onclick = ""pegClick(this.id)""><div class = ""watt_ball watt_Red""><div class = watt_ball_label>R</div></div></div><div id = watt_peg_3><div class = watt_peg></div></div><div class = special id = watt_peg_3 onclick = ""pegClick(this.id)""></div></div><div class = watt_peg_board><div class = watt_base></div><div class = watt_board_label><strong>Planche Cible</strong></div><div id = watt_peg_1><div class = watt_peg></div></div><div id = watt_peg_1 ><div class = ""watt_ball watt_Blue""><div class = watt_ball_label>B</div></div><div class = ""watt_ball watt_Green""><div class = watt_ball_label>G</div></div></div><div id = watt_peg_2><div class = watt_peg></div></div><div id = watt_peg_2 ><div class = ""watt_ball watt_Red""><div class = watt_ball_label>R</div></div></div><div id = watt_peg_3><div class = watt_peg></div></div><div id = watt_peg_3 ></div></div><div class = watt_hand_box><div class = ""watt_hand_ball watt_Green""><div class = watt_ball_label>G</div></div></div><div class = watt_hand_label><strong>Boule en main</strong></div>","89,71,82","343","1,3,0,2,0,0,0,0,0","3","3","1,2,3,0,0,0,0,0,0","1,3,0,2,0,0,0,0,0","PA_with_intermediate","1","test","","",""
"-1","-1","poldrack-single-stim","51","152490","0.0-11.1-1.1","pilot-38_ses-01","","2000","0","feedback","<div class = watt_canvas><div class=""watt_vertical_line""></div></div><div class = watt_your_board><div class = watt_base></div><div class = watt_board_label><strong>Votre Planche</strong></div><div id = watt_peg_1><div class = watt_peg></div></div><div id = watt_peg_1 ><div class = ""watt_ball watt_Blue""><div class = watt_ball_label>B</div></div><div class = ""watt_ball watt_Green""><div class = watt_ball_label>G</div></div></div><div id = watt_peg_2><div class = watt_peg></div></div><div id = watt_peg_2 ><div class = ""watt_ball watt_Red""><div class = watt_ball_label>R</div></div></div><div id = watt_peg_3><div class = watt_peg></div></div><div id = watt_peg_3 ></div></div><div class = watt_peg_board><div class = watt_base></div><div class = watt_board_label><strong>Planche Cible</strong></div><div id = watt_peg_1><div class = watt_peg></div></div><div id = watt_peg_1 ><div class = ""watt_ball watt_Blue""><div class = watt_ball_label>B</div></div><div class = ""watt_ball watt_Green""><div class = watt_ball_label>G</div></div></div><div id = watt_peg_2><div class = watt_peg></div></div><div id = watt_peg_2 ><div class = ""watt_ball watt_Red""><div class = watt_ball_label>R</div></div></div><div id = watt_peg_3><div class = watt_peg></div></div><div id = watt_peg_3 ></div></div><div class = watt_feedbackbox><p class = center-text>Complete</p></div>","none","1000","","3","3","","","","","test","8958","true",""
"5571","82","poldrack-single-stim","52","158069","0.0-11.2-0.6-0.6","pilot-38_ses-01","","5571","0","to_hand","<div class = watt_canvas><div class=""watt_vertical_line""></div></div><div class = watt_your_board><div class = watt_base></div><div class = watt_board_label><strong>Votre Planche</strong></div><div id = watt_peg_1><div class = watt_peg></div></div><div id = watt_peg_1 onclick = ""pegClick(this.id)""></div><div id = watt_peg_2><div class = watt_peg></div></div><div id = watt_peg_2 onclick = ""pegClick(this.id)""></div><div id = watt_peg_3><div class = watt_peg></div></div><div class = special id = watt_peg_3 onclick = ""pegClick(this.id)""><div class = ""watt_ball watt_Blue""><div class = watt_ball_label>B</div></div><div class = ""watt_ball watt_Red""><div class = watt_ball_label>R</div></div><div class = ""watt_ball watt_Green""><div class = watt_ball_label>G</div></div></div></div><div class = watt_peg_board><div class = watt_base></div><div class = watt_board_label><strong>Planche Cible</strong></div><div id = watt_peg_1><div class = watt_peg></div></div><div id = watt_peg_1 ><div class = ""watt_ball watt_Blue""><div class = watt_ball_label>B</div></div></div><div id = watt_peg_2><div class = watt_peg></div></div><div id = watt_peg_2 ><div class = ""watt_ball watt_Green""><div class = watt_ball_label>G</div></div><div class = ""watt_ball watt_Red""><div class = watt_ball_label>R</div></div></div><div id = watt_peg_3><div class = watt_peg></div></div><div id = watt_peg_3 ></div></div><div class = watt_hand_box></div><div class = watt_hand_label><strong>Boule en main</strong></div>","82","5571","0,0,0,0,0,0,1,2,0","1","3","0,0,0,0,0,0,1,2,3","1,0,0,3,2,0,0,0,0","PA_without_intermediate","2","test","","",""
"693","71","poldrack-single-stim","53","158765","0.0-11.2-0.6-1.6","pilot-38_ses-01","","693","0","to_board","<div class = watt_canvas><div class=""watt_vertical_line""></div></div><div class = watt_your_board><div class = watt_base></div><div class = watt_board_label><strong>Votre Planche</strong></div><div id = watt_peg_1><div class = watt_peg></div></div><div class = special id = watt_peg_1 onclick = ""pegClick(this.id)""></div><div id = watt_peg_2><div class = watt_peg></div></div><div class = special id = watt_peg_2 onclick = ""pegClick(this.id)""></div><div id = watt_peg_3><div class = watt_peg></div></div><div class = special id = watt_peg_3 onclick = ""pegClick(this.id)""><div class = ""watt_ball watt_Blue""><div class = watt_ball_label>B</div></div><div class = ""watt_ball watt_Red""><div class = watt_ball_label>R</div></div></div></div><div class = watt_peg_board><div class = watt_base></div><div class = watt_board_label><strong>Planche Cible</strong></div><div id = watt_peg_1><div class = watt_peg></div></div><div id = watt_peg_1 ><div class = ""watt_ball watt_Blue""><div class = watt_ball_label>B</div></div></div><div id = watt_peg_2><div class = watt_peg></div></div><div id = watt_peg_2 ><div class = ""watt_ball watt_Green""><div class = watt_ball_label>G</div></div><div class = ""watt_ball watt_Red""><div class = watt_ball_label>R</div></div></div><div id = watt_peg_3><div class = watt_peg></div></div><div id = watt_peg_3 ></div></div><div class = watt_hand_box><div class = ""watt_hand_ball watt_Green""><div class = watt_ball_label>G</div></div></div><div class = watt_hand_label><strong>Boule en main</strong></div>","89,71,82","693","0,0,0,3,0,0,1,2,0","1","3","0,0,0,0,0,0,1,2,3","1,0,0,3,2,0,0,0,0","PA_without_intermediate","2","test","","",""
"1976","82","poldrack-single-stim","54","160751","0.0-11.2-0.7-0.7","pilot-38_ses-01","","1976","0","to_hand","<div class = watt_canvas><div class=""watt_vertical_line""></div></div><div class = watt_your_board><div class = watt_base></div><div class = watt_board_label><strong>Votre Planche</strong></div><div id = watt_peg_1><div class = watt_peg></div></div><div id = watt_peg_1 onclick = ""pegClick(this.id)""></div><div id = watt_peg_2><div class = watt_peg></div></div><div class = special id = watt_peg_2 onclick = ""pegClick(this.id)""><div class = ""watt_ball watt_Green""><div class = watt_ball_label>G</div></div></div><div id = watt_peg_3><div class = watt_peg></div></div><div class = special id = watt_peg_3 onclick = ""pegClick(this.id)""><div class = ""watt_ball watt_Blue""><div class = watt_ball_label>B</div></div><div class = ""watt_ball watt_Red""><div class = watt_ball_label>R</div></div></div></div><div class = watt_peg_board><div class = watt_base></div><div class = watt_board_label><strong>Planche Cible</strong></div><div id = watt_peg_1><div class = watt_peg></div></div><div id = watt_peg_1 ><div class = ""watt_ball watt_Blue""><div class = watt_ball_label>B</div></div></div><div id = watt_peg_2><div class = watt_peg></div></div><div id = watt_peg_2 ><div class = ""watt_ball watt_Green""><div class = watt_ball_label>G</div></div><div class = ""watt_ball watt_Red""><div class = watt_ball_label>R</div></div></div><div id = watt_peg_3><div class = watt_peg></div></div><div id = watt_peg_3 ></div></div><div class = watt_hand_box></div><div class = watt_hand_label><strong>Boule en main</strong></div>","71,82","1976","0,0,0,3,0,0,1,0,0","2","3","0,0,0,0,0,0,1,2,3","1,0,0,3,2,0,0,0,0","PA_without_intermediate","2","test","","",""
"548","71","poldrack-single-stim","55","161303","0.0-11.2-0.7-1.7","pilot-38_ses-01","","548","0","to_board","<div class = watt_canvas><div class=""watt_vertical_line""></div></div><div class = watt_your_board><div class = watt_base></div><div class = watt_board_label><strong>Votre Planche</strong></div><div id = watt_peg_1><div class = watt_peg></div></div><div class = special id = watt_peg_1 onclick = ""pegClick(this.id)""></div><div id = watt_peg_2><div class = watt_peg></div></div><div class = special id = watt_peg_2 onclick = ""pegClick(this.id)""><div class = ""watt_ball watt_Green""><div class = watt_ball_label>G</div></div></div><div id = watt_peg_3><div class = watt_peg></div></div><div class = special id = watt_peg_3 onclick = ""pegClick(this.id)""><div class = ""watt_ball watt_Blue""><div class = watt_ball_label>B</div></div></div></div><div class = watt_peg_board><div class = watt_base></div><div class = watt_board_label><strong>Planche Cible</strong></div><div id = watt_peg_1><div class = watt_peg></div></div><div id = watt_peg_1 ><div class = ""watt_ball watt_Blue""><div class = watt_ball_label>B</div></div></div><div id = watt_peg_2><div class = watt_peg></div></div><div id = watt_peg_2 ><div class = ""watt_ball watt_Green""><div class = watt_ball_label>G</div></div><div class = ""watt_ball watt_Red""><div class = watt_ball_label>R</div></div></div><div id = watt_peg_3><div class = watt_peg></div></div><div id = watt_peg_3 ></div></div><div class = watt_hand_box><div class = ""watt_hand_ball watt_Red""><div class = watt_ball_label>R</div></div></div><div class = watt_hand_label><strong>Boule en main</strong></div>","89,71,82","548","0,0,0,3,2,0,1,0,0","2","3","0,0,0,0,0,0,1,2,3","1,0,0,3,2,0,0,0,0","PA_without_intermediate","2","test","","",""
"607","82","poldrack-single-stim","56","161916","0.0-11.2-0.8-0.8","pilot-38_ses-01","","607","0","to_hand","<div class = watt_canvas><div class=""watt_vertical_line""></div></div><div class = watt_your_board><div class = watt_base></div><div class = watt_board_label><strong>Votre Planche</strong></div><div id = watt_peg_1><div class = watt_peg></div></div><div id = watt_peg_1 onclick = ""pegClick(this.id)""></div><div id = watt_peg_2><div class = watt_peg></div></div><div class = special id = watt_peg_2 onclick = ""pegClick(this.id)""><div class = ""watt_ball watt_Green""><div class = watt_ball_label>G</div></div><div class = ""watt_ball watt_Red""><div class = watt_ball_label>R</div></div></div><div id = watt_peg_3><div class = watt_peg></div></div><div class = special id = watt_peg_3 onclick = ""pegClick(this.id)""><div class = ""watt_ball watt_Blue""><div class = watt_ball_label>B</div></div></div></div><div class = watt_peg_board><div class = watt_base></div><div class = watt_board_label><strong>Planche Cible</strong></div><div id = watt_peg_1><div class = watt_peg></div></div><div id = watt_peg_1 ><div class = ""watt_ball watt_Blue""><div class = watt_ball_label>B</div></div></div><div id = watt_peg_2><div class = watt_peg></div></div><div id = watt_peg_2 ><div class = ""watt_ball watt_Green""><div class = watt_ball_label>G</div></div><div class = ""watt_ball watt_Red""><div class = watt_ball_label>R</div></div></div><div id = watt_peg_3><div class = watt_peg></div></div><div id = watt_peg_3 ></div></div><div class = watt_hand_box></div><div class = watt_hand_label><strong>Boule en main</strong></div>","71,82","607","0,0,0,3,2,0,0,0,0","3","3","0,0,0,0,0,0,1,2,3","1,0,0,3,2,0,0,0,0","PA_without_intermediate","2","test","","",""
"808","89","poldrack-single-stim","57","162728","0.0-11.2-0.8-1.8","pilot-38_ses-01","","808","0","to_board","<div class = watt_canvas><div class=""watt_vertical_line""></div></div><div class = watt_your_board><div class = watt_base></div><div class = watt_board_label><strong>Votre Planche</strong></div><div id = watt_peg_1><div class = watt_peg></div></div><div class = special id = watt_peg_1 onclick = ""pegClick(this.id)""></div><div id = watt_peg_2><div class = watt_peg></div></div><div class = special id = watt_peg_2 onclick = ""pegClick(this.id)""><div class = ""watt_ball watt_Green""><div class = watt_ball_label>G</div></div><div class = ""watt_ball watt_Red""><div class = watt_ball_label>R</div></div></div><div id = watt_peg_3><div class = watt_peg></div></div><div class = special id = watt_peg_3 onclick = ""pegClick(this.id)""></div></div><div class = watt_peg_board><div class = watt_base></div><div class = watt_board_label><strong>Planche Cible</strong></div><div id = watt_peg_1><div class = watt_peg></div></div><div id = watt_peg_1 ><div class = ""watt_ball watt_Blue""><div class = watt_ball_label>B</div></div></div><div id = watt_peg_2><div class = watt_peg></div></div><div id = watt_peg_2 ><div class = ""watt_ball watt_Green""><div class = watt_ball_label>G</div></div><div class = ""watt_ball watt_Red""><div class = watt_ball_label>R</div></div></div><div id = watt_peg_3><div class = watt_peg></div></div><div id = watt_peg_3 ></div></div><div class = watt_hand_box><div class = ""watt_hand_ball watt_Blue""><div class = watt_ball_label>B</div></div></div><div class = watt_hand_label><strong>Boule en main</strong></div>","89,71,82","808","1,0,0,3,2,0,0,0,0","3","3","0,0,0,0,0,0,1,2,3","1,0,0,3,2,0,0,0,0","PA_without_intermediate","2","test","","",""
"-1","-1","poldrack-single-stim","58","164745","0.0-11.2-1.2","pilot-38_ses-01","","2000","0","feedback","<div class = watt_canvas><div class=""watt_vertical_line""></div></div><div class = watt_your_board><div class = watt_base></div><div class = watt_board_label><strong>Votre Planche</strong></div><div id = watt_peg_1><div class = watt_peg></div></div><div id = watt_peg_1 ><div class = ""watt_ball watt_Blue""><div class = watt_ball_label>B</div></div></div><div id = watt_peg_2><div class = watt_peg></div></div><div id = watt_peg_2 ><div class = ""watt_ball watt_Green""><div class = watt_ball_label>G</div></div><div class = ""watt_ball watt_Red""><div class = watt_ball_label>R</div></div></div><div id = watt_peg_3><div class = watt_peg></div></div><div id = watt_peg_3 ></div></div><div class = watt_peg_board><div class = watt_base></div><div class = watt_board_label><strong>Planche Cible</strong></div><div id = watt_peg_1><div class = watt_peg></div></div><div id = watt_peg_1 ><div class = ""watt_ball watt_Blue""><div class = watt_ball_label>B</div></div></div><div id = watt_peg_2><div class = watt_peg></div></div><div id = watt_peg_2 ><div class = ""watt_ball watt_Green""><div class = watt_ball_label>G</div></div><div class = ""watt_ball watt_Red""><div class = watt_ball_label>R</div></div></div><div id = watt_peg_3><div class = watt_peg></div></div><div id = watt_peg_3 ></div></div><div class = watt_feedbackbox><p class = center-text>Complete</p></div>","none","1000","","3","3","","","","","test","12256","true",""
"2716","71","poldrack-single-stim","59","167468","0.0-11.3-0.9-0.9","pilot-38_ses-01","","2716","0","to_hand","<div class = watt_canvas><div class=""watt_vertical_line""></div></div><div class = watt_your_board><div class = watt_base></div><div class = watt_board_label><strong>Votre Planche</strong></div><div id = watt_peg_1><div class = watt_peg></div></div><div id = watt_peg_1 onclick = ""pegClick(this.id)""></div><div id = watt_peg_2><div class = watt_peg></div></div><div class = special id = watt_peg_2 onclick = ""pegClick(this.id)""><div class = ""watt_ball watt_Blue""><div class = watt_ball_label>B</div></div><div class = ""watt_ball watt_Green""><div class = watt_ball_label>G</div></div><div class = ""watt_ball watt_Red""><div class = watt_ball_label>R</div></div></div><div id = watt_peg_3><div class = watt_peg></div></div><div id = watt_peg_3 onclick = ""pegClick(this.id)""></div></div><div class = watt_peg_board><div class = watt_base></div><div class = watt_board_label><strong>Planche Cible</strong></div><div id = watt_peg_1><div class = watt_peg></div></div><div id = watt_peg_1 ><div class = ""watt_ball watt_Blue""><div class = watt_ball_label>B</div></div></div><div id = watt_peg_2><div class = watt_peg></div></div><div id = watt_peg_2 ></div><div id = watt_peg_3><div class = watt_peg></div></div><div id = watt_peg_3 ><div class = ""watt_ball watt_Red""><div class = watt_ball_label>R</div></div><div class = ""watt_ball watt_Green""><div class = watt_ball_label>G</div></div></div></div><div class = watt_hand_box></div><div class = watt_hand_label><strong>Boule en main</strong></div>","71","2716","0,0,0,1,2,0,0,0,0","1","3","0,0,0,1,2,3,0,0,0","1,0,0,0,0,0,3,2,0","PA_without_intermediate","3","test","","",""
"392","82","poldrack-single-stim","60","167866","0.0-11.3-0.9-1.9","pilot-38_ses-01","","392","0","to_board","<div class = watt_canvas><div class=""watt_vertical_line""></div></div><div class = watt_your_board><div class = watt_base></div><div class = watt_board_label><strong>Votre Planche</strong></div><div id = watt_peg_1><div class = watt_peg></div></div><div class = special id = watt_peg_1 onclick = ""pegClick(this.id)""></div><div id = watt_peg_2><div class = watt_peg></div></div><div class = special id = watt_peg_2 onclick = ""pegClick(this.id)""><div class = ""watt_ball watt_Blue""><div class = watt_ball_label>B</div></div><div class = ""watt_ball watt_Green""><div class = watt_ball_label>G</div></div></div><div id = watt_peg_3><div class = watt_peg></div></div><div class = special id = watt_peg_3 onclick = ""pegClick(this.id)""></div></div><div class = watt_peg_board><div class = watt_base></div><div class = watt_board_label><strong>Planche Cible</strong></div><div id = watt_peg_1><div class = watt_peg></div></div><div id = watt_peg_1 ><div class = ""watt_ball watt_Blue""><div class = watt_ball_label>B</div></div></div><div id = watt_peg_2><div class = watt_peg></div></div><div id = watt_peg_2 ></div><div id = watt_peg_3><div class = watt_peg></div></div><div id = watt_peg_3 ><div class = ""watt_ball watt_Red""><div class = watt_ball_label>R</div></div><div class = ""watt_ball watt_Green""><div class = watt_ball_label>G</div></div></div></div><div class = watt_hand_box><div class = ""watt_hand_ball watt_Red""><div class = watt_ball_label>R</div></div></div><div class = watt_hand_label><strong>Boule en main</strong></div>","89,71,82","392","0,0,0,1,2,0,3,0,0","1","3","0,0,0,1,2,3,0,0,0","1,0,0,0,0,0,3,2,0","PA_without_intermediate","3","test","","",""
"492","71","poldrack-single-stim","61","168370","0.0-11.3-0.10-0.10","pilot-38_ses-01","","492","0","to_hand","<div class = watt_canvas><div class=""watt_vertical_line""></div></div><div class = watt_your_board><div class = watt_base></div><div class = watt_board_label><strong>Votre Planche</strong></div><div id = watt_peg_1><div class = watt_peg></div></div><div id = watt_peg_1 onclick = ""pegClick(this.id)""></div><div id = watt_peg_2><div class = watt_peg></div></div><div class = special id = watt_peg_2 onclick = ""pegClick(this.id)""><div class = ""watt_ball watt_Blue""><div class = watt_ball_label>B</div></div><div class = ""watt_ball watt_Green""><div class = watt_ball_label>G</div></div></div><div id = watt_peg_3><div class = watt_peg></div></div><div class = special id = watt_peg_3 onclick = ""pegClick(this.id)""><div class = ""watt_ball watt_Red""><div class = watt_ball_label>R</div></div></div></div><div class = watt_peg_board><div class = watt_base></div><div class = watt_board_label><strong>Planche Cible</strong></div><div id = watt_peg_1><div class = watt_peg></div></div><div id = watt_peg_1 ><div class = ""watt_ball watt_Blue""><div class = watt_ball_label>B</div></div></div><div id = watt_peg_2><div class = watt_peg></div></div><div id = watt_peg_2 ></div><div id = watt_peg_3><div class = watt_peg></div></div><div id = watt_peg_3 ><div class = ""watt_ball watt_Red""><div class = watt_ball_label>R</div></div><div class = ""watt_ball watt_Green""><div class = watt_ball_label>G</div></div></div></div><div class = watt_hand_box></div><div class = watt_hand_label><strong>Boule en main</strong></div>","71,82","492","0,0,0,1,0,0,3,0,0","2","3","0,0,0,1,2,3,0,0,0","1,0,0,0,0,0,3,2,0","PA_without_intermediate","3","test","","",""
"466","82","poldrack-single-stim","62","168838","0.0-11.3-0.10-1.10","pilot-38_ses-01","","466","0","to_board","<div class = watt_canvas><div class=""watt_vertical_line""></div></div><div class = watt_your_board><div class = watt_base></div><div class = watt_board_label><strong>Votre Planche</strong></div><div id = watt_peg_1><div class = watt_peg></div></div><div class = special id = watt_peg_1 onclick = ""pegClick(this.id)""></div><div id = watt_peg_2><div class = watt_peg></div></div><div class = special id = watt_peg_2 onclick = ""pegClick(this.id)""><div class = ""watt_ball watt_Blue""><div class = watt_ball_label>B</div></div></div><div id = watt_peg_3><div class = watt_peg></div></div><div class = special id = watt_peg_3 onclick = ""pegClick(this.id)""><div class = ""watt_ball watt_Red""><div class = watt_ball_label>R</div></div></div></div><div class = watt_peg_board><div class = watt_base></div><div class = watt_board_label><strong>Planche Cible</strong></div><div id = watt_peg_1><div class = watt_peg></div></div><div id = watt_peg_1 ><div class = ""watt_ball watt_Blue""><div class = watt_ball_label>B</div></div></div><div id = watt_peg_2><div class = watt_peg></div></div><div id = watt_peg_2 ></div><div id = watt_peg_3><div class = watt_peg></div></div><div id = watt_peg_3 ><div class = ""watt_ball watt_Red""><div class = watt_ball_label>R</div></div><div class = ""watt_ball watt_Green""><div class = watt_ball_label>G</div></div></div></div><div class = watt_hand_box><div class = ""watt_hand_ball watt_Green""><div class = watt_ball_label>G</div></div></div><div class = watt_hand_label><strong>Boule en main</strong></div>","89,71,82","466","0,0,0,1,0,0,3,2,0","2","3","0,0,0,1,2,3,0,0,0","1,0,0,0,0,0,3,2,0","PA_without_intermediate","3","test","","",""
"551","71","poldrack-single-stim","63","169399","0.0-11.3-0.11-0.11","pilot-38_ses-01","","551","0","to_hand","<div class = watt_canvas><div class=""watt_vertical_line""></div></div><div class = watt_your_board><div class = watt_base></div><div class = watt_board_label><strong>Votre Planche</strong></div><div id = watt_peg_1><div class = watt_peg></div></div><div id = watt_peg_1 onclick = ""pegClick(this.id)""></div><div id = watt_peg_2><div class = watt_peg></div></div><div class = special id = watt_peg_2 onclick = ""pegClick(this.id)""><div class = ""watt_ball watt_Blue""><div class = watt_ball_label>B</div></div></div><div id = watt_peg_3><div class = watt_peg></div></div><div class = special id = watt_peg_3 onclick = ""pegClick(this.id)""><div class = ""watt_ball watt_Red""><div class = watt_ball_label>R</div></div><div class = ""watt_ball watt_Green""><div class = watt_ball_label>G</div></div></div></div><div class = watt_peg_board><div class = watt_base></div><div class = watt_board_label><strong>Planche Cible</strong></div><div id = watt_peg_1><div class = watt_peg></div></div><div id = watt_peg_1 ><div class = ""watt_ball watt_Blue""><div class = watt_ball_label>B</div></div></div><div id = watt_peg_2><div class = watt_peg></div></div><div id = watt_peg_2 ></div><div id = watt_peg_3><div class = watt_peg></div></div><div id = watt_peg_3 ><div class = ""watt_ball watt_Red""><div class = watt_ball_label>R</div></div><div class = ""watt_ball watt_Green""><div class = watt_ball_label>G</div></div></div></div><div class = watt_hand_box></div><div class = watt_hand_label><strong>Boule en main</strong></div>","71,82","551","0,0,0,0,0,0,3,2,0","3","3","0,0,0,1,2,3,0,0,0","1,0,0,0,0,0,3,2,0","PA_without_intermediate","3","test","","",""
"333","89","poldrack-single-stim","64","169737","0.0-11.3-0.11-1.11","pilot-38_ses-01","","333","0","to_board","<div class = watt_canvas><div class=""watt_vertical_line""></div></div><div class = watt_your_board><div class = watt_base></div><div class = watt_board_label><strong>Votre Planche</strong></div><div id = watt_peg_1><div class = watt_peg></div></div><div class = special id = watt_peg_1 onclick = ""pegClick(this.id)""></div><div id = watt_peg_2><div class = watt_peg></div></div><div class = special id = watt_peg_2 onclick = ""pegClick(this.id)""></div><div id = watt_peg_3><div class = watt_peg></div></div><div class = special id = watt_peg_3 onclick = ""pegClick(this.id)""><div class = ""watt_ball watt_Red""><div class = watt_ball_label>R</div></div><div class = ""watt_ball watt_Green""><div class = watt_ball_label>G</div></div></div></div><div class = watt_peg_board><div class = watt_base></div><div class = watt_board_label><strong>Planche Cible</strong></div><div id = watt_peg_1><div class = watt_peg></div></div><div id = watt_peg_1 ><div class = ""watt_ball watt_Blue""><div class = watt_ball_label>B</div></div></div><div id = watt_peg_2><div class = watt_peg></div></div><div id = watt_peg_2 ></div><div id = watt_peg_3><div class = watt_peg></div></div><div id = watt_peg_3 ><div class = ""watt_ball watt_Red""><div class = watt_ball_label>R</div></div><div class = ""watt_ball watt_Green""><div class = watt_ball_label>G</div></div></div></div><div class = watt_hand_box><div class = ""watt_hand_ball watt_Blue""><div class = watt_ball_label>B</div></div></div><div class = watt_hand_label><strong>Boule en main</strong></div>","89,71,82","333","1,0,0,0,0,0,3,2,0","3","3","0,0,0,1,2,3,0,0,0","1,0,0,0,0,0,3,2,0","PA_without_intermediate","3","test","","",""
