"rt","key_press","trial_type","trial_index","time_elapsed","internal_node_id","subject","text","block_duration","timing_post_trial","trial_id","stimulus","possible_responses","stim_duration","exp_stage","which_round","num_click_in_round","num_cards","num_loss_cards","gain_amount","loss_amount","round_points","clicked_on_loss_card","reward","exp_id"
"2206","13","text","0","2209","0.0-0.0","pilot-40_ses-03_2","","","","","","","","","","","","","","","","","",""
"5704","89","poldrack-text","1","8930","0.0-1.0","pilot-40_ses-03_2","<div class = centerbox><div style = 'font-size: 50px' class = center-text>Veuillez appuyer avec votre index</p></div>","5704","500","fmri_response_test","","","","","","","","","","","","","",""
"907","71","poldrack-text","2","10356","0.0-2.0","pilot-40_ses-03_2","<div class = centerbox><div style = 'font-size: 50px' class = center-text>Veuillez appuyer avec votre majeur</p></div>","907","500","fmri_response_test","","","","","","","","","","","","","",""
"9500","32","poldrack-single-stim","3","20371","0.0-3.0","pilot-40_ses-03_2","","9500","500","instructions","<div class = centerbox><div class = center-text><font size=""+3"">Essayez d'obtenir autant de points que possible<br><br>Le montant des pertres, le montant du gain et le nombre de cartes de perte peuvent changer a chaque essai<br><br>Index: Prendre autre carte <br>Majeur: Fin de la ronde</font></div></div>","32","9500","","","","","","","","","","",""
"1659","32","poldrack-text","4","22534","0.0-4.0","pilot-40_ses-03_2","<div class = centerbox><div  class = center-text>Scanner Setup</div></div>","1659","0","fmri_scanner_wait","","","","","","","","","","","","","",""
"55608","84","poldrack-text","5","78144","0.0-5.0","pilot-40_ses-03_2","<div class = centerbox><div style='color:red'; class = center-text>+</div></div>","55608","0","fmri_trigger_wait","","","","","","","","","","","","","",""
"-1","-1","poldrack-single-stim","6","79166","0.0-6.0","pilot-40_ses-03_2","","1000","0","fmri_buffer","","none","1000","","","","","","","","","","",""
"-1","-1","poldrack-single-stim","7","80685","0.0-7.0","pilot-40_ses-03_2","","1500","500","test_start_block","<div class = centerbox><div class = center-text>Preparez-vous!</p></div>","none","1500","","","","","","","","","","",""
"2206","89","poldrack-single-stim","8","83421","0.0-8.0-0.0-0.0","pilot-40_ses-03_2","","2206","0","stim","<div class = cct-box><div1 class = titleBigBox>   <div class = titleboxLeft><div class = game-text id = game_round>Tour: 1</div></div>   <div class = titleboxLeft1><div class = game-text id = loss_amount>Pertes: -70</div></div>    <div class = titleboxMiddle1><div class = game-text id = gain_amount>Gains: 12</div></div>    <div class = titlebox><div class = game-text>Combien de cartes voulez-vous prendre? </div></div>     <div class = titleboxRight1><div class = game-text id = num_loss_cards>Nombre Mauvaises Cartes: </div></div>   <div class = titleboxRight><div class = game-text id = current_round>Points du tour: 0</div></div><div class = cardbox><div class = square><input type='image' id = 1 class = 'card_image' src='/static/experiments/columbia_card_task_hot/images/beforeChosen.png'></div><div class = square><input type='image' id = 2 class = 'card_image' src='/static/experiments/columbia_card_task_hot/images/beforeChosen.png'></div><div class = square><input type='image' id = 3 class = 'card_image' src='/static/experiments/columbia_card_task_hot/images/beforeChosen.png'></div><div class = square><input type='image' id = 4 class = 'card_image' src='/static/experiments/columbia_card_task_hot/images/beforeChosen.png'></div><div class = square><input type='image' id = 5 class = 'card_image' src='/static/experiments/columbia_card_task_hot/images/beforeChosen.png'></div><div class = square><input type='image' id = 6 class = 'card_image' src='/static/experiments/columbia_card_task_hot/images/beforeChosen.png'></div></div>","89,71","2206","test","1","1","6","1","12","-70","12","false","",""
"1077","89","poldrack-single-stim","9","84508","0.0-8.0-0.1-0.1","pilot-40_ses-03_2","","1077","0","stim","<div class = cct-box><div1 class = titleBigBox>   <div class = titleboxLeft><div class = game-text id = game_round>Tour: 1</div></div>   <div class = titleboxLeft1><div class = game-text id = loss_amount>Pertes: -70</div></div>    <div class = titleboxMiddle1><div class = game-text id = gain_amount>Gains: 12</div></div>    <div class = titlebox><div class = game-text>Combien de cartes voulez-vous prendre? </div></div>     <div class = titleboxRight1><div class = game-text id = num_loss_cards>Nombre Mauvaises Cartes: </div></div>   <div class = titleboxRight><div class = game-text id = current_round>Points du tour: 12</div></div><div class = cardbox><div class = square><input type='image' id = 1 class = 'card_image' src='/static/experiments/columbia_card_task_hot/images/chosen.png'></div><div class = square><input type='image' id = 2 class = 'card_image' src='/static/experiments/columbia_card_task_hot/images/beforeChosen.png'></div><div class = square><input type='image' id = 3 class = 'card_image' src='/static/experiments/columbia_card_task_hot/images/beforeChosen.png'></div><div class = square><input type='image' id = 4 class = 'card_image' src='/static/experiments/columbia_card_task_hot/images/beforeChosen.png'></div><div class = square><input type='image' id = 5 class = 'card_image' src='/static/experiments/columbia_card_task_hot/images/beforeChosen.png'></div><div class = square><input type='image' id = 6 class = 'card_image' src='/static/experiments/columbia_card_task_hot/images/beforeChosen.png'></div></div>","89,71","1077","test","1","2","6","1","12","-70","24","false","",""
"1482","89","poldrack-single-stim","10","85993","0.0-8.0-0.2-0.2","pilot-40_ses-03_2","","1482","0","stim","<div class = cct-box><div1 class = titleBigBox>   <div class = titleboxLeft><div class = game-text id = game_round>Tour: 1</div></div>   <div class = titleboxLeft1><div class = game-text id = loss_amount>Pertes: -70</div></div>    <div class = titleboxMiddle1><div class = game-text id = gain_amount>Gains: 12</div></div>    <div class = titlebox><div class = game-text>Combien de cartes voulez-vous prendre? </div></div>     <div class = titleboxRight1><div class = game-text id = num_loss_cards>Nombre Mauvaises Cartes: </div></div>   <div class = titleboxRight><div class = game-text id = current_round>Points du tour: 24</div></div><div class = cardbox><div class = square><input type='image' id = 1 class = 'card_image' src='/static/experiments/columbia_card_task_hot/images/chosen.png'></div><div class = square><input type='image' id = 2 class = 'card_image' src='/static/experiments/columbia_card_task_hot/images/beforeChosen.png'></div><div class = square><input type='image' id = 3 class = 'card_image' src='/static/experiments/columbia_card_task_hot/images/chosen.png'></div><div class = square><input type='image' id = 4 class = 'card_image' src='/static/experiments/columbia_card_task_hot/images/beforeChosen.png'></div><div class = square><input type='image' id = 5 class = 'card_image' src='/static/experiments/columbia_card_task_hot/images/beforeChosen.png'></div><div class = square><input type='image' id = 6 class = 'card_image' src='/static/experiments/columbia_card_task_hot/images/beforeChosen.png'></div></div>","89,71","1482","test","1","3","6","1","12","-70","36","false","",""
"2003","89","poldrack-single-stim","11","88001","0.0-8.0-0.3-0.3","pilot-40_ses-03_2","","2003","0","stim","<div class = cct-box><div1 class = titleBigBox>   <div class = titleboxLeft><div class = game-text id = game_round>Tour: 1</div></div>   <div class = titleboxLeft1><div class = game-text id = loss_amount>Pertes: -70</div></div>    <div class = titleboxMiddle1><div class = game-text id = gain_amount>Gains: 12</div></div>    <div class = titlebox><div class = game-text>Combien de cartes voulez-vous prendre? </div></div>     <div class = titleboxRight1><div class = game-text id = num_loss_cards>Nombre Mauvaises Cartes: </div></div>   <div class = titleboxRight><div class = game-text id = current_round>Points du tour: 36</div></div><div class = cardbox><div class = square><input type='image' id = 1 class = 'card_image' src='/static/experiments/columbia_card_task_hot/images/chosen.png'></div><div class = square><input type='image' id = 2 class = 'card_image' src='/static/experiments/columbia_card_task_hot/images/beforeChosen.png'></div><div class = square><input type='image' id = 3 class = 'card_image' src='/static/experiments/columbia_card_task_hot/images/chosen.png'></div><div class = square><input type='image' id = 4 class = 'card_image' src='/static/experiments/columbia_card_task_hot/images/chosen.png'></div><div class = square><input type='image' id = 5 class = 'card_image' src='/static/experiments/columbia_card_task_hot/images/beforeChosen.png'></div><div class = square><input type='image' id = 6 class = 'card_image' src='/static/experiments/columbia_card_task_hot/images/beforeChosen.png'></div></div>","89,71","2003","test","1","4","6","1","12","-70","-34","true","",""
"-1","-1","poldrack-single-stim","12","90483","0.0-8.0-1.0","pilot-40_ses-03_2","","2454","0","ITI","<div class = cct-box><div1 class = titleBigBox>   <div class = titleboxLeft><div class = game-text id = game_round>Tour: 1</div></div>   <div class = titleboxLeft1><div class = game-text id = loss_amount>Pertes: -70</div></div>    <div class = titleboxMiddle1><div class = game-text id = gain_amount>Gains: 12</div></div>    <div class = titlebox><div class = game-text>Combien de cartes voulez-vous prendre? </div></div>     <div class = titleboxRight1><div class = game-text id = num_loss_cards>Nombre Mauvaises Cartes: </div></div>   <div class = titleboxRight><div class = game-text id = current_round>Points du tour: -34</div></div><div class = cardbox><div class = square><input type='image' id = 1 class = 'card_image' src='/static/experiments/columbia_card_task_hot/images/chosen.png'></div><div class = square><input type='image' id = 2 class = 'card_image' src='/static/experiments/columbia_card_task_hot/images/loss.png'></div><div class = square><input type='image' id = 3 class = 'card_image' src='/static/experiments/columbia_card_task_hot/images/chosen.png'></div><div class = square><input type='image' id = 4 class = 'card_image' src='/static/experiments/columbia_card_task_hot/images/chosen.png'></div><div class = square><input type='image' id = 5 class = 'card_image' src='/static/experiments/columbia_card_task_hot/images/beforeChosen.png'></div><div class = square><input type='image' id = 6 class = 'card_image' src='/static/experiments/columbia_card_task_hot/images/beforeChosen.png'></div></div>","none","2250","","","","","","","","","","",""
"667","89","poldrack-single-stim","13","91155","0.0-8.1-0.4-0.4","pilot-40_ses-03_2","","667","0","stim","<div class = cct-box><div1 class = titleBigBox>   <div class = titleboxLeft><div class = game-text id = game_round>Tour: 2</div></div>   <div class = titleboxLeft1><div class = game-text id = loss_amount>Pertes: -75</div></div>    <div class = titleboxMiddle1><div class = game-text id = gain_amount>Gains: 14</div></div>    <div class = titlebox><div class = game-text>Combien de cartes voulez-vous prendre? </div></div>     <div class = titleboxRight1><div class = game-text id = num_loss_cards>Nombre Mauvaises Cartes: </div></div>   <div class = titleboxRight><div class = game-text id = current_round>Points du tour: 0</div></div><div class = cardbox><div class = square><input type='image' id = 1 class = 'card_image' src='/static/experiments/columbia_card_task_hot/images/beforeChosen.png'></div><div class = square><input type='image' id = 2 class = 'card_image' src='/static/experiments/columbia_card_task_hot/images/beforeChosen.png'></div><div class = square><input type='image' id = 3 class = 'card_image' src='/static/experiments/columbia_card_task_hot/images/beforeChosen.png'></div><div class = square><input type='image' id = 4 class = 'card_image' src='/static/experiments/columbia_card_task_hot/images/beforeChosen.png'></div><div class = square><input type='image' id = 5 class = 'card_image' src='/static/experiments/columbia_card_task_hot/images/beforeChosen.png'></div><div class = square><input type='image' id = 6 class = 'card_image' src='/static/experiments/columbia_card_task_hot/images/beforeChosen.png'></div></div>","89,71","667","test","2","1","6","1","14","-75","14","false","",""
"775","89","poldrack-single-stim","14","91933","0.0-8.1-0.5-0.5","pilot-40_ses-03_2","","775","0","stim","<div class = cct-box><div1 class = titleBigBox>   <div class = titleboxLeft><div class = game-text id = game_round>Tour: 2</div></div>   <div class = titleboxLeft1><div class = game-text id = loss_amount>Pertes: -75</div></div>    <div class = titleboxMiddle1><div class = game-text id = gain_amount>Gains: 14</div></div>    <div class = titlebox><div class = game-text>Combien de cartes voulez-vous prendre? </div></div>     <div class = titleboxRight1><div class = game-text id = num_loss_cards>Nombre Mauvaises Cartes: </div></div>   <div class = titleboxRight><div class = game-text id = current_round>Points du tour: 14</div></div><div class = cardbox><div class = square><input type='image' id = 1 class = 'card_image' src='/static/experiments/columbia_card_task_hot/images/beforeChosen.png'></div><div class = square><input type='image' id = 2 class = 'card_image' src='/static/experiments/columbia_card_task_hot/images/beforeChosen.png'></div><div class = square><input type='image' id = 3 class = 'card_image' src='/static/experiments/columbia_card_task_hot/images/beforeChosen.png'></div><div class = square><input type='image' id = 4 class = 'card_image' src='/static/experiments/columbia_card_task_hot/images/chosen.png'></div><div class = square><input type='image' id = 5 class = 'card_image' src='/static/experiments/columbia_card_task_hot/images/beforeChosen.png'></div><div class = square><input type='image' id = 6 class = 'card_image' src='/static/experiments/columbia_card_task_hot/images/beforeChosen.png'></div></div>","89,71","775","test","2","2","6","1","14","-75","-61","true","",""
"-1","-1","poldrack-single-stim","15","94405","0.0-8.1-1.1","pilot-40_ses-03_2","","2454","0","ITI","<div class = cct-box><div1 class = titleBigBox>   <div class = titleboxLeft><div class = game-text id = game_round>Tour: 2</div></div>   <div class = titleboxLeft1><div class = game-text id = loss_amount>Pertes: -75</div></div>    <div class = titleboxMiddle1><div class = game-text id = gain_amount>Gains: 14</div></div>    <div class = titlebox><div class = game-text>Combien de cartes voulez-vous prendre? </div></div>     <div class = titleboxRight1><div class = game-text id = num_loss_cards>Nombre Mauvaises Cartes: </div></div>   <div class = titleboxRight><div class = game-text id = current_round>Points du tour: -61</div></div><div class = cardbox><div class = square><input type='image' id = 1 class = 'card_image' src='/static/experiments/columbia_card_task_hot/images/beforeChosen.png'></div><div class = square><input type='image' id = 2 class = 'card_image' src='/static/experiments/columbia_card_task_hot/images/beforeChosen.png'></div><div class = square><input type='image' id = 3 class = 'card_image' src='/static/experiments/columbia_card_task_hot/images/loss.png'></div><div class = square><input type='image' id = 4 class = 'card_image' src='/static/experiments/columbia_card_task_hot/images/chosen.png'></div><div class = square><input type='image' id = 5 class = 'card_image' src='/static/experiments/columbia_card_task_hot/images/beforeChosen.png'></div><div class = square><input type='image' id = 6 class = 'card_image' src='/static/experiments/columbia_card_task_hot/images/beforeChosen.png'></div></div>","none","2250","","","","","","","","","","",""
"508","89","poldrack-single-stim","16","94922","0.0-8.2-0.6-0.6","pilot-40_ses-03_2","","508","0","stim","<div class = cct-box><div1 class = titleBigBox>   <div class = titleboxLeft><div class = game-text id = game_round>Tour: 3</div></div>   <div class = titleboxLeft1><div class = game-text id = loss_amount>Pertes: -70</div></div>    <div class = titleboxMiddle1><div class = game-text id = gain_amount>Gains: 15</div></div>    <div class = titlebox><div class = game-text>Combien de cartes voulez-vous prendre? </div></div>     <div class = titleboxRight1><div class = game-text id = num_loss_cards>Nombre Mauvaises Cartes: </div></div>   <div class = titleboxRight><div class = game-text id = current_round>Points du tour: 0</div></div><div class = cardbox><div class = square><input type='image' id = 1 class = 'card_image' src='/static/experiments/columbia_card_task_hot/images/beforeChosen.png'></div><div class = square><input type='image' id = 2 class = 'card_image' src='/static/experiments/columbia_card_task_hot/images/beforeChosen.png'></div><div class = square><input type='image' id = 3 class = 'card_image' src='/static/experiments/columbia_card_task_hot/images/beforeChosen.png'></div><div class = square><input type='image' id = 4 class = 'card_image' src='/static/experiments/columbia_card_task_hot/images/beforeChosen.png'></div><div class = square><input type='image' id = 5 class = 'card_image' src='/static/experiments/columbia_card_task_hot/images/beforeChosen.png'></div><div class = square><input type='image' id = 6 class = 'card_image' src='/static/experiments/columbia_card_task_hot/images/beforeChosen.png'></div></div>","89,71","508","test","3","1","6","1","15","-70","15","false","",""
"701","89","poldrack-single-stim","17","95625","0.0-8.2-0.7-0.7","pilot-40_ses-03_2","","701","0","stim","<div class = cct-box><div1 class = titleBigBox>   <div class = titleboxLeft><div class = game-text id = game_round>Tour: 3</div></div>   <div class = titleboxLeft1><div class = game-text id = loss_amount>Pertes: -70</div></div>    <div class = titleboxMiddle1><div class = game-text id = gain_amount>Gains: 15</div></div>    <div class = titlebox><div class = game-text>Combien de cartes voulez-vous prendre? </div></div>     <div class = titleboxRight1><div class = game-text id = num_loss_cards>Nombre Mauvaises Cartes: </div></div>   <div class = titleboxRight><div class = game-text id = current_round>Points du tour: 15</div></div><div class = cardbox><div class = square><input type='image' id = 1 class = 'card_image' src='/static/experiments/columbia_card_task_hot/images/beforeChosen.png'></div><div class = square><input type='image' id = 2 class = 'card_image' src='/static/experiments/columbia_card_task_hot/images/beforeChosen.png'></div><div class = square><input type='image' id = 3 class = 'card_image' src='/static/experiments/columbia_card_task_hot/images/beforeChosen.png'></div><div class = square><input type='image' id = 4 class = 'card_image' src='/static/experiments/columbia_card_task_hot/images/chosen.png'></div><div class = square><input type='image' id = 5 class = 'card_image' src='/static/experiments/columbia_card_task_hot/images/beforeChosen.png'></div><div class = square><input type='image' id = 6 class = 'card_image' src='/static/experiments/columbia_card_task_hot/images/beforeChosen.png'></div></div>","89,71","701","test","3","2","6","1","15","-70","30","false","",""
"703","89","poldrack-single-stim","18","96334","0.0-8.2-0.8-0.8","pilot-40_ses-03_2","","703","0","stim","<div class = cct-box><div1 class = titleBigBox>   <div class = titleboxLeft><div class = game-text id = game_round>Tour: 3</div></div>   <div class = titleboxLeft1><div class = game-text id = loss_amount>Pertes: -70</div></div>    <div class = titleboxMiddle1><div class = game-text id = gain_amount>Gains: 15</div></div>    <div class = titlebox><div class = game-text>Combien de cartes voulez-vous prendre? </div></div>     <div class = titleboxRight1><div class = game-text id = num_loss_cards>Nombre Mauvaises Cartes: </div></div>   <div class = titleboxRight><div class = game-text id = current_round>Points du tour: 30</div></div><div class = cardbox><div class = square><input type='image' id = 1 class = 'card_image' src='/static/experiments/columbia_card_task_hot/images/beforeChosen.png'></div><div class = square><input type='image' id = 2 class = 'card_image' src='/static/experiments/columbia_card_task_hot/images/beforeChosen.png'></div><div class = square><input type='image' id = 3 class = 'card_image' src='/static/experiments/columbia_card_task_hot/images/beforeChosen.png'></div><div class = square><input type='image' id = 4 class = 'card_image' src='/static/experiments/columbia_card_task_hot/images/chosen.png'></div><div class = square><input type='image' id = 5 class = 'card_image' src='/static/experiments/columbia_card_task_hot/images/chosen.png'></div><div class = square><input type='image' id = 6 class = 'card_image' src='/static/experiments/columbia_card_task_hot/images/beforeChosen.png'></div></div>","89,71","703","test","3","3","6","1","15","-70","45","false","",""
"1238","89","poldrack-single-stim","19","97577","0.0-8.2-0.9-0.9","pilot-40_ses-03_2","","1238","0","stim","<div class = cct-box><div1 class = titleBigBox>   <div class = titleboxLeft><div class = game-text id = game_round>Tour: 3</div></div>   <div class = titleboxLeft1><div class = game-text id = loss_amount>Pertes: -70</div></div>    <div class = titleboxMiddle1><div class = game-text id = gain_amount>Gains: 15</div></div>    <div class = titlebox><div class = game-text>Combien de cartes voulez-vous prendre? </div></div>     <div class = titleboxRight1><div class = game-text id = num_loss_cards>Nombre Mauvaises Cartes: </div></div>   <div class = titleboxRight><div class = game-text id = current_round>Points du tour: 45</div></div><div class = cardbox><div class = square><input type='image' id = 1 class = 'card_image' src='/static/experiments/columbia_card_task_hot/images/chosen.png'></div><div class = square><input type='image' id = 2 class = 'card_image' src='/static/experiments/columbia_card_task_hot/images/beforeChosen.png'></div><div class = square><input type='image' id = 3 class = 'card_image' src='/static/experiments/columbia_card_task_hot/images/beforeChosen.png'></div><div class = square><input type='image' id = 4 class = 'card_image' src='/static/experiments/columbia_card_task_hot/images/chosen.png'></div><div class = square><input type='image' id = 5 class = 'card_image' src='/static/experiments/columbia_card_task_hot/images/chosen.png'></div><div class = square><input type='image' id = 6 class = 'card_image' src='/static/experiments/columbia_card_task_hot/images/beforeChosen.png'></div></div>","89,71","1238","test","3","4","6","1","15","-70","60","false","",""
"712","71","poldrack-single-stim","20","98293","0.0-8.2-0.10-0.10","pilot-40_ses-03_2","","712","0","stim","<div class = cct-box><div1 class = titleBigBox>   <div class = titleboxLeft><div class = game-text id = game_round>Tour: 3</div></div>   <div class = titleboxLeft1><div class = game-text id = loss_amount>Pertes: -70</div></div>    <div class = titleboxMiddle1><div class = game-text id = gain_amount>Gains: 15</div></div>    <div class = titlebox><div class = game-text>Combien de cartes voulez-vous prendre? </div></div>     <div class = titleboxRight1><div class = game-text id = num_loss_cards>Nombre Mauvaises Cartes: </div></div>   <div class = titleboxRight><div class = game-text id = current_round>Points du tour: 60</div></div><div class = cardbox><div class = square><input type='image' id = 1 class = 'card_image' src='/static/experiments/columbia_card_task_hot/images/chosen.png'></div><div class = square><input type='image' id = 2 class = 'card_image' src='/static/experiments/columbia_card_task_hot/images/beforeChosen.png'></div><div class = square><input type='image' id = 3 class = 'card_image' src='/static/experiments/columbia_card_task_hot/images/beforeChosen.png'></div><div class = square><input type='image' id = 4 class = 'card_image' src='/static/experiments/columbia_card_task_hot/images/chosen.png'></div><div class = square><input type='image' id = 5 class = 'card_image' src='/static/experiments/columbia_card_task_hot/images/chosen.png'></div><div class = square><input type='image' id = 6 class = 'card_image' src='/static/experiments/columbia_card_task_hot/images/chosen.png'></div></div>","89,71","712","test","3","4","6","1","15","-70","60","false","",""
"-1","-1","poldrack-single-stim","21","100834","0.0-8.2-1.2","pilot-40_ses-03_2","","2522","0","ITI","<div class = cct-box><div1 class = titleBigBox>   <div class = titleboxLeft><div class = game-text id = game_round>Tour: 3</div></div>   <div class = titleboxLeft1><div class = game-text id = loss_amount>Pertes: -70</div></div>    <div class = titleboxMiddle1><div class = game-text id = gain_amount>Gains: 15</div></div>    <div class = titlebox><div class = game-text>Combien de cartes voulez-vous prendre? </div></div>     <div class = titleboxRight1><div class = game-text id = num_loss_cards>Nombre Mauvaises Cartes: </div></div>   <div class = titleboxRight><div class = game-text id = current_round>Points du tour: 60</div></div><div class = cardbox><div class = square><input type='image' id = 1 class = 'card_image' src='/static/experiments/columbia_card_task_hot/images/chosen.png'></div><div class = square><input type='image' id = 2 class = 'card_image' src='/static/experiments/columbia_card_task_hot/images/beforeChosen.png'></div><div class = square><input type='image' id = 3 class = 'card_image' src='/static/experiments/columbia_card_task_hot/images/beforeChosen.png'></div><div class = square><input type='image' id = 4 class = 'card_image' src='/static/experiments/columbia_card_task_hot/images/chosen.png'></div><div class = square><input type='image' id = 5 class = 'card_image' src='/static/experiments/columbia_card_task_hot/images/chosen.png'></div><div class = square><input type='image' id = 6 class = 'card_image' src='/static/experiments/columbia_card_task_hot/images/chosen.png'></div></div>","none","2250","","","","","","","","","","",""
"898","89","poldrack-single-stim","22","101736","0.0-8.3-0.11-0.11","pilot-40_ses-03_2","","898","0","stim","<div class = cct-box><div1 class = titleBigBox>   <div class = titleboxLeft><div class = game-text id = game_round>Tour: 4</div></div>   <div class = titleboxLeft1><div class = game-text id = loss_amount>Pertes: -75</div></div>    <div class = titleboxMiddle1><div class = game-text id = gain_amount>Gains: 17</div></div>    <div class = titlebox><div class = game-text>Combien de cartes voulez-vous prendre? </div></div>     <div class = titleboxRight1><div class = game-text id = num_loss_cards>Nombre Mauvaises Cartes: </div></div>   <div class = titleboxRight><div class = game-text id = current_round>Points du tour: 0</div></div><div class = cardbox><div class = square><input type='image' id = 1 class = 'card_image' src='/static/experiments/columbia_card_task_hot/images/beforeChosen.png'></div><div class = square><input type='image' id = 2 class = 'card_image' src='/static/experiments/columbia_card_task_hot/images/beforeChosen.png'></div><div class = square><input type='image' id = 3 class = 'card_image' src='/static/experiments/columbia_card_task_hot/images/beforeChosen.png'></div><div class = square><input type='image' id = 4 class = 'card_image' src='/static/experiments/columbia_card_task_hot/images/beforeChosen.png'></div><div class = square><input type='image' id = 5 class = 'card_image' src='/static/experiments/columbia_card_task_hot/images/beforeChosen.png'></div><div class = square><input type='image' id = 6 class = 'card_image' src='/static/experiments/columbia_card_task_hot/images/beforeChosen.png'></div></div>","89,71","898","test","4","1","6","1","17","-75","-75","true","",""
"-1","-1","poldrack-single-stim","23","104214","0.0-8.3-1.3","pilot-40_ses-03_2","","2454","0","ITI","<div class = cct-box><div1 class = titleBigBox>   <div class = titleboxLeft><div class = game-text id = game_round>Tour: 4</div></div>   <div class = titleboxLeft1><div class = game-text id = loss_amount>Pertes: -75</div></div>    <div class = titleboxMiddle1><div class = game-text id = gain_amount>Gains: 17</div></div>    <div class = titlebox><div class = game-text>Combien de cartes voulez-vous prendre? </div></div>     <div class = titleboxRight1><div class = game-text id = num_loss_cards>Nombre Mauvaises Cartes: </div></div>   <div class = titleboxRight><div class = game-text id = current_round>Points du tour: -75</div></div><div class = cardbox><div class = square><input type='image' id = 1 class = 'card_image' src='/static/experiments/columbia_card_task_hot/images/beforeChosen.png'></div><div class = square><input type='image' id = 2 class = 'card_image' src='/static/experiments/columbia_card_task_hot/images/beforeChosen.png'></div><div class = square><input type='image' id = 3 class = 'card_image' src='/static/experiments/columbia_card_task_hot/images/beforeChosen.png'></div><div class = square><input type='image' id = 4 class = 'card_image' src='/static/experiments/columbia_card_task_hot/images/loss.png'></div><div class = square><input type='image' id = 5 class = 'card_image' src='/static/experiments/columbia_card_task_hot/images/beforeChosen.png'></div><div class = square><input type='image' id = 6 class = 'card_image' src='/static/experiments/columbia_card_task_hot/images/beforeChosen.png'></div></div>","none","2250","","","","","","","","","","",""
"581","89","poldrack-single-stim","24","104803","0.0-8.4-0.12-0.12","pilot-40_ses-03_2","","581","0","stim","<div class = cct-box><div2 class = titleBigBox>   <div class = titleboxLeft><div class = game-text id = game_round>Tour: 5</div></div>   <div class = titleboxLeft1><div class = game-text id = loss_amount>Pertes: -60</div></div>    <div class = titleboxMiddle1><div class = game-text id = gain_amount>Gains: 24</div></div>    <div class = titlebox><div class = game-text>Combien de cartes voulez-vous prendre? </div></div>     <div class = titleboxRight1><div class = game-text id = num_loss_cards>Nombre Mauvaises Cartes: </div></div>   <div class = titleboxRight><div class = game-text id = current_round>Points du tour: 0</div></div><div class = cardbox><div class = square><input type='image' id = 1 class = 'card_image' src='/static/experiments/columbia_card_task_hot/images/beforeChosen.png'></div><div class = square><input type='image' id = 2 class = 'card_image' src='/static/experiments/columbia_card_task_hot/images/beforeChosen.png'></div><div class = square><input type='image' id = 3 class = 'card_image' src='/static/experiments/columbia_card_task_hot/images/beforeChosen.png'></div><div class = square><input type='image' id = 4 class = 'card_image' src='/static/experiments/columbia_card_task_hot/images/beforeChosen.png'></div><div class = square><input type='image' id = 5 class = 'card_image' src='/static/experiments/columbia_card_task_hot/images/beforeChosen.png'></div><div class = square><input type='image' id = 6 class = 'card_image' src='/static/experiments/columbia_card_task_hot/images/beforeChosen.png'></div><div class = square><input type='image' id = 7 class = 'card_image' src='/static/experiments/columbia_card_task_hot/images/beforeChosen.png'></div><div class = square><input type='image' id = 8 class = 'card_image' src='/static/experiments/columbia_card_task_hot/images/beforeChosen.png'></div></div>","89,71","581","test","5","1","8","2","24","-60","24","false","",""
"689","89","poldrack-single-stim","25","105496","0.0-8.4-0.13-0.13","pilot-40_ses-03_2","","689","0","stim","<div class = cct-box><div2 class = titleBigBox>   <div class = titleboxLeft><div class = game-text id = game_round>Tour: 5</div></div>   <div class = titleboxLeft1><div class = game-text id = loss_amount>Pertes: -60</div></div>    <div class = titleboxMiddle1><div class = game-text id = gain_amount>Gains: 24</div></div>    <div class = titlebox><div class = game-text>Combien de cartes voulez-vous prendre? </div></div>     <div class = titleboxRight1><div class = game-text id = num_loss_cards>Nombre Mauvaises Cartes: </div></div>   <div class = titleboxRight><div class = game-text id = current_round>Points du tour: 24</div></div><div class = cardbox><div class = square><input type='image' id = 1 class = 'card_image' src='/static/experiments/columbia_card_task_hot/images/beforeChosen.png'></div><div class = square><input type='image' id = 2 class = 'card_image' src='/static/experiments/columbia_card_task_hot/images/beforeChosen.png'></div><div class = square><input type='image' id = 3 class = 'card_image' src='/static/experiments/columbia_card_task_hot/images/beforeChosen.png'></div><div class = square><input type='image' id = 4 class = 'card_image' src='/static/experiments/columbia_card_task_hot/images/beforeChosen.png'></div><div class = square><input type='image' id = 5 class = 'card_image' src='/static/experiments/columbia_card_task_hot/images/beforeChosen.png'></div><div class = square><input type='image' id = 6 class = 'card_image' src='/static/experiments/columbia_card_task_hot/images/beforeChosen.png'></div><div class = square><input type='image' id = 7 class = 'card_image' src='/static/experiments/columbia_card_task_hot/images/chosen.png'></div><div class = square><input type='image' id = 8 class = 'card_image' src='/static/experiments/columbia_card_task_hot/images/beforeChosen.png'></div></div>","89,71","689","test","5","2","8","2","24","-60","48","false","",""
"990","89","poldrack-single-stim","26","106487","0.0-8.4-0.14-0.14","pilot-40_ses-03_2","","990","0","stim","<div class = cct-box><div2 class = titleBigBox>   <div class = titleboxLeft><div class = game-text id = game_round>Tour: 5</div></div>   <div class = titleboxLeft1><div class = game-text id = loss_amount>Pertes: -60</div></div>    <div class = titleboxMiddle1><div class = game-text id = gain_amount>Gains: 24</div></div>    <div class = titlebox><div class = game-text>Combien de cartes voulez-vous prendre? </div></div>     <div class = titleboxRight1><div class = game-text id = num_loss_cards>Nombre Mauvaises Cartes: </div></div>   <div class = titleboxRight><div class = game-text id = current_round>Points du tour: 48</div></div><div class = cardbox><div class = square><input type='image' id = 1 class = 'card_image' src='/static/experiments/columbia_card_task_hot/images/beforeChosen.png'></div><div class = square><input type='image' id = 2 class = 'card_image' src='/static/experiments/columbia_card_task_hot/images/beforeChosen.png'></div><div class = square><input type='image' id = 3 class = 'card_image' src='/static/experiments/columbia_card_task_hot/images/beforeChosen.png'></div><div class = square><input type='image' id = 4 class = 'card_image' src='/static/experiments/columbia_card_task_hot/images/beforeChosen.png'></div><div class = square><input type='image' id = 5 class = 'card_image' src='/static/experiments/columbia_card_task_hot/images/chosen.png'></div><div class = square><input type='image' id = 6 class = 'card_image' src='/static/experiments/columbia_card_task_hot/images/beforeChosen.png'></div><div class = square><input type='image' id = 7 class = 'card_image' src='/static/experiments/columbia_card_task_hot/images/chosen.png'></div><div class = square><input type='image' id = 8 class = 'card_image' src='/static/experiments/columbia_card_task_hot/images/beforeChosen.png'></div></div>","89,71","990","test","5","3","8","2","24","-60","-12","true","",""
"-1","-1","poldrack-single-stim","27","109153","0.0-8.4-1.4","pilot-40_ses-03_2","","2658","0","ITI","<div class = cct-box><div2 class = titleBigBox>   <div class = titleboxLeft><div class = game-text id = game_round>Tour: 5</div></div>   <div class = titleboxLeft1><div class = game-text id = loss_amount>Pertes: -60</div></div>    <div class = titleboxMiddle1><div class = game-text id = gain_amount>Gains: 24</div></div>    <div class = titlebox><div class = game-text>Combien de cartes voulez-vous prendre? </div></div>     <div class = titleboxRight1><div class = game-text id = num_loss_cards>Nombre Mauvaises Cartes: </div></div>   <div class = titleboxRight><div class = game-text id = current_round>Points du tour: -12</div></div><div class = cardbox><div class = square><input type='image' id = 1 class = 'card_image' src='/static/experiments/columbia_card_task_hot/images/loss.png'></div><div class = square><input type='image' id = 2 class = 'card_image' src='/static/experiments/columbia_card_task_hot/images/beforeChosen.png'></div><div class = square><input type='image' id = 3 class = 'card_image' src='/static/experiments/columbia_card_task_hot/images/beforeChosen.png'></div><div class = square><input type='image' id = 4 class = 'card_image' src='/static/experiments/columbia_card_task_hot/images/beforeChosen.png'></div><div class = square><input type='image' id = 5 class = 'card_image' src='/static/experiments/columbia_card_task_hot/images/chosen.png'></div><div class = square><input type='image' id = 6 class = 'card_image' src='/static/experiments/columbia_card_task_hot/images/beforeChosen.png'></div><div class = square><input type='image' id = 7 class = 'card_image' src='/static/experiments/columbia_card_task_hot/images/chosen.png'></div><div class = square><input type='image' id = 8 class = 'card_image' src='/static/experiments/columbia_card_task_hot/images/beforeChosen.png'></div></div>","none","2250","","","","","","","","","","",""
"562","89","poldrack-single-stim","28","109720","0.0-8.5-0.15-0.15","pilot-40_ses-03_2","","562","0","stim","<div class = cct-box><div2 class = titleBigBox>   <div class = titleboxLeft><div class = game-text id = game_round>Tour: 6</div></div>   <div class = titleboxLeft1><div class = game-text id = loss_amount>Pertes: -75</div></div>    <div class = titleboxMiddle1><div class = game-text id = gain_amount>Gains: 29</div></div>    <div class = titlebox><div class = game-text>Combien de cartes voulez-vous prendre? </div></div>     <div class = titleboxRight1><div class = game-text id = num_loss_cards>Nombre Mauvaises Cartes: </div></div>   <div class = titleboxRight><div class = game-text id = current_round>Points du tour: 0</div></div><div class = cardbox><div class = square><input type='image' id = 1 class = 'card_image' src='/static/experiments/columbia_card_task_hot/images/beforeChosen.png'></div><div class = square><input type='image' id = 2 class = 'card_image' src='/static/experiments/columbia_card_task_hot/images/beforeChosen.png'></div><div class = square><input type='image' id = 3 class = 'card_image' src='/static/experiments/columbia_card_task_hot/images/beforeChosen.png'></div><div class = square><input type='image' id = 4 class = 'card_image' src='/static/experiments/columbia_card_task_hot/images/beforeChosen.png'></div><div class = square><input type='image' id = 5 class = 'card_image' src='/static/experiments/columbia_card_task_hot/images/beforeChosen.png'></div><div class = square><input type='image' id = 6 class = 'card_image' src='/static/experiments/columbia_card_task_hot/images/beforeChosen.png'></div><div class = square><input type='image' id = 7 class = 'card_image' src='/static/experiments/columbia_card_task_hot/images/beforeChosen.png'></div><div class = square><input type='image' id = 8 class = 'card_image' src='/static/experiments/columbia_card_task_hot/images/beforeChosen.png'></div></div>","89,71","562","test","6","1","8","2","29","-75","29","false","",""
"607","89","poldrack-single-stim","29","110332","0.0-8.5-0.16-0.16","pilot-40_ses-03_2","","607","0","stim","<div class = cct-box><div2 class = titleBigBox>   <div class = titleboxLeft><div class = game-text id = game_round>Tour: 6</div></div>   <div class = titleboxLeft1><div class = game-text id = loss_amount>Pertes: -75</div></div>    <div class = titleboxMiddle1><div class = game-text id = gain_amount>Gains: 29</div></div>    <div class = titlebox><div class = game-text>Combien de cartes voulez-vous prendre? </div></div>     <div class = titleboxRight1><div class = game-text id = num_loss_cards>Nombre Mauvaises Cartes: </div></div>   <div class = titleboxRight><div class = game-text id = current_round>Points du tour: 29</div></div><div class = cardbox><div class = square><input type='image' id = 1 class = 'card_image' src='/static/experiments/columbia_card_task_hot/images/beforeChosen.png'></div><div class = square><input type='image' id = 2 class = 'card_image' src='/static/experiments/columbia_card_task_hot/images/beforeChosen.png'></div><div class = square><input type='image' id = 3 class = 'card_image' src='/static/experiments/columbia_card_task_hot/images/beforeChosen.png'></div><div class = square><input type='image' id = 4 class = 'card_image' src='/static/experiments/columbia_card_task_hot/images/chosen.png'></div><div class = square><input type='image' id = 5 class = 'card_image' src='/static/experiments/columbia_card_task_hot/images/beforeChosen.png'></div><div class = square><input type='image' id = 6 class = 'card_image' src='/static/experiments/columbia_card_task_hot/images/beforeChosen.png'></div><div class = square><input type='image' id = 7 class = 'card_image' src='/static/experiments/columbia_card_task_hot/images/beforeChosen.png'></div><div class = square><input type='image' id = 8 class = 'card_image' src='/static/experiments/columbia_card_task_hot/images/beforeChosen.png'></div></div>","89,71","607","test","6","2","8","2","29","-75","58","false","",""
"646","89","poldrack-single-stim","30","110983","0.0-8.5-0.17-0.17","pilot-40_ses-03_2","","646","0","stim","<div class = cct-box><div2 class = titleBigBox>   <div class = titleboxLeft><div class = game-text id = game_round>Tour: 6</div></div>   <div class = titleboxLeft1><div class = game-text id = loss_amount>Pertes: -75</div></div>    <div class = titleboxMiddle1><div class = game-text id = gain_amount>Gains: 29</div></div>    <div class = titlebox><div class = game-text>Combien de cartes voulez-vous prendre? </div></div>     <div class = titleboxRight1><div class = game-text id = num_loss_cards>Nombre Mauvaises Cartes: </div></div>   <div class = titleboxRight><div class = game-text id = current_round>Points du tour: 58</div></div><div class = cardbox><div class = square><input type='image' id = 1 class = 'card_image' src='/static/experiments/columbia_card_task_hot/images/beforeChosen.png'></div><div class = square><input type='image' id = 2 class = 'card_image' src='/static/experiments/columbia_card_task_hot/images/beforeChosen.png'></div><div class = square><input type='image' id = 3 class = 'card_image' src='/static/experiments/columbia_card_task_hot/images/chosen.png'></div><div class = square><input type='image' id = 4 class = 'card_image' src='/static/experiments/columbia_card_task_hot/images/chosen.png'></div><div class = square><input type='image' id = 5 class = 'card_image' src='/static/experiments/columbia_card_task_hot/images/beforeChosen.png'></div><div class = square><input type='image' id = 6 class = 'card_image' src='/static/experiments/columbia_card_task_hot/images/beforeChosen.png'></div><div class = square><input type='image' id = 7 class = 'card_image' src='/static/experiments/columbia_card_task_hot/images/beforeChosen.png'></div><div class = square><input type='image' id = 8 class = 'card_image' src='/static/experiments/columbia_card_task_hot/images/beforeChosen.png'></div></div>","89,71","646","test","6","3","8","2","29","-75","87","false","",""
"2346","89","poldrack-single-stim","31","113333","0.0-8.5-0.18-0.18","pilot-40_ses-03_2","","2346","0","stim","<div class = cct-box><div2 class = titleBigBox>   <div class = titleboxLeft><div class = game-text id = game_round>Tour: 6</div></div>   <div class = titleboxLeft1><div class = game-text id = loss_amount>Pertes: -75</div></div>    <div class = titleboxMiddle1><div class = game-text id = gain_amount>Gains: 29</div></div>    <div class = titlebox><div class = game-text>Combien de cartes voulez-vous prendre? </div></div>     <div class = titleboxRight1><div class = game-text id = num_loss_cards>Nombre Mauvaises Cartes: </div></div>   <div class = titleboxRight><div class = game-text id = current_round>Points du tour: 87</div></div><div class = cardbox><div class = square><input type='image' id = 1 class = 'card_image' src='/static/experiments/columbia_card_task_hot/images/beforeChosen.png'></div><div class = square><input type='image' id = 2 class = 'card_image' src='/static/experiments/columbia_card_task_hot/images/beforeChosen.png'></div><div class = square><input type='image' id = 3 class = 'card_image' src='/static/experiments/columbia_card_task_hot/images/chosen.png'></div><div class = square><input type='image' id = 4 class = 'card_image' src='/static/experiments/columbia_card_task_hot/images/chosen.png'></div><div class = square><input type='image' id = 5 class = 'card_image' src='/static/experiments/columbia_card_task_hot/images/beforeChosen.png'></div><div class = square><input type='image' id = 6 class = 'card_image' src='/static/experiments/columbia_card_task_hot/images/chosen.png'></div><div class = square><input type='image' id = 7 class = 'card_image' src='/static/experiments/columbia_card_task_hot/images/beforeChosen.png'></div><div class = square><input type='image' id = 8 class = 'card_image' src='/static/experiments/columbia_card_task_hot/images/beforeChosen.png'></div></div>","89,71","2346","test","6","4","8","2","29","-75","12","true","",""
"-1","-1","poldrack-single-stim","32","115735","0.0-8.5-1.5","pilot-40_ses-03_2","","2386","0","ITI","<div class = cct-box><div2 class = titleBigBox>   <div class = titleboxLeft><div class = game-text id = game_round>Tour: 6</div></div>   <div class = titleboxLeft1><div class = game-text id = loss_amount>Pertes: -75</div></div>    <div class = titleboxMiddle1><div class = game-text id = gain_amount>Gains: 29</div></div>    <div class = titlebox><div class = game-text>Combien de cartes voulez-vous prendre? </div></div>     <div class = titleboxRight1><div class = game-text id = num_loss_cards>Nombre Mauvaises Cartes: </div></div>   <div class = titleboxRight><div class = game-text id = current_round>Points du tour: 12</div></div><div class = cardbox><div class = square><input type='image' id = 1 class = 'card_image' src='/static/experiments/columbia_card_task_hot/images/beforeChosen.png'></div><div class = square><input type='image' id = 2 class = 'card_image' src='/static/experiments/columbia_card_task_hot/images/beforeChosen.png'></div><div class = square><input type='image' id = 3 class = 'card_image' src='/static/experiments/columbia_card_task_hot/images/chosen.png'></div><div class = square><input type='image' id = 4 class = 'card_image' src='/static/experiments/columbia_card_task_hot/images/chosen.png'></div><div class = square><input type='image' id = 5 class = 'card_image' src='/static/experiments/columbia_card_task_hot/images/loss.png'></div><div class = square><input type='image' id = 6 class = 'card_image' src='/static/experiments/columbia_card_task_hot/images/chosen.png'></div><div class = square><input type='image' id = 7 class = 'card_image' src='/static/experiments/columbia_card_task_hot/images/beforeChosen.png'></div><div class = square><input type='image' id = 8 class = 'card_image' src='/static/experiments/columbia_card_task_hot/images/beforeChosen.png'></div></div>","none","2250","","","","","","","","","","",""
"474","89","poldrack-single-stim","33","116214","0.0-8.6-0.19-0.19","pilot-40_ses-03_2","","474","0","stim","<div class = cct-box><div2 class = titleBigBox>   <div class = titleboxLeft><div class = game-text id = game_round>Tour: 7</div></div>   <div class = titleboxLeft1><div class = game-text id = loss_amount>Pertes: -65</div></div>    <div class = titleboxMiddle1><div class = game-text id = gain_amount>Gains: 17</div></div>    <div class = titlebox><div class = game-text>Combien de cartes voulez-vous prendre? </div></div>     <div class = titleboxRight1><div class = game-text id = num_loss_cards>Nombre Mauvaises Cartes: </div></div>   <div class = titleboxRight><div class = game-text id = current_round>Points du tour: 0</div></div><div class = cardbox><div class = square><input type='image' id = 1 class = 'card_image' src='/static/experiments/columbia_card_task_hot/images/beforeChosen.png'></div><div class = square><input type='image' id = 2 class = 'card_image' src='/static/experiments/columbia_card_task_hot/images/beforeChosen.png'></div><div class = square><input type='image' id = 3 class = 'card_image' src='/static/experiments/columbia_card_task_hot/images/beforeChosen.png'></div><div class = square><input type='image' id = 4 class = 'card_image' src='/static/experiments/columbia_card_task_hot/images/beforeChosen.png'></div><div class = square><input type='image' id = 5 class = 'card_image' src='/static/experiments/columbia_card_task_hot/images/beforeChosen.png'></div><div class = square><input type='image' id = 6 class = 'card_image' src='/static/experiments/columbia_card_task_hot/images/beforeChosen.png'></div><div class = square><input type='image' id = 7 class = 'card_image' src='/static/experiments/columbia_card_task_hot/images/beforeChosen.png'></div><div class = square><input type='image' id = 8 class = 'card_image' src='/static/experiments/columbia_card_task_hot/images/beforeChosen.png'></div><div class = square><input type='image' id = 9 class = 'card_image' src='/static/experiments/columbia_card_task_hot/images/beforeChosen.png'></div></div>","89,71","474","test","7","1","9","2","17","-65","17","false","",""
"582","89","poldrack-single-stim","34","116803","0.0-8.6-0.20-0.20","pilot-40_ses-03_2","","582","0","stim","<div class = cct-box><div2 class = titleBigBox>   <div class = titleboxLeft><div class = game-text id = game_round>Tour: 7</div></div>   <div class = titleboxLeft1><div class = game-text id = loss_amount>Pertes: -65</div></div>    <div class = titleboxMiddle1><div class = game-text id = gain_amount>Gains: 17</div></div>    <div class = titlebox><div class = game-text>Combien de cartes voulez-vous prendre? </div></div>     <div class = titleboxRight1><div class = game-text id = num_loss_cards>Nombre Mauvaises Cartes: </div></div>   <div class = titleboxRight><div class = game-text id = current_round>Points du tour: 17</div></div><div class = cardbox><div class = square><input type='image' id = 1 class = 'card_image' src='/static/experiments/columbia_card_task_hot/images/beforeChosen.png'></div><div class = square><input type='image' id = 2 class = 'card_image' src='/static/experiments/columbia_card_task_hot/images/beforeChosen.png'></div><div class = square><input type='image' id = 3 class = 'card_image' src='/static/experiments/columbia_card_task_hot/images/beforeChosen.png'></div><div class = square><input type='image' id = 4 class = 'card_image' src='/static/experiments/columbia_card_task_hot/images/beforeChosen.png'></div><div class = square><input type='image' id = 5 class = 'card_image' src='/static/experiments/columbia_card_task_hot/images/beforeChosen.png'></div><div class = square><input type='image' id = 6 class = 'card_image' src='/static/experiments/columbia_card_task_hot/images/beforeChosen.png'></div><div class = square><input type='image' id = 7 class = 'card_image' src='/static/experiments/columbia_card_task_hot/images/beforeChosen.png'></div><div class = square><input type='image' id = 8 class = 'card_image' src='/static/experiments/columbia_card_task_hot/images/beforeChosen.png'></div><div class = square><input type='image' id = 9 class = 'card_image' src='/static/experiments/columbia_card_task_hot/images/chosen.png'></div></div>","89,71","582","test","7","2","9","2","17","-65","34","false","",""
"612","89","poldrack-single-stim","35","117454","0.0-8.6-0.21-0.21","pilot-40_ses-03_2","","612","0","stim","<div class = cct-box><div2 class = titleBigBox>   <div class = titleboxLeft><div class = game-text id = game_round>Tour: 7</div></div>   <div class = titleboxLeft1><div class = game-text id = loss_amount>Pertes: -65</div></div>    <div class = titleboxMiddle1><div class = game-text id = gain_amount>Gains: 17</div></div>    <div class = titlebox><div class = game-text>Combien de cartes voulez-vous prendre? </div></div>     <div class = titleboxRight1><div class = game-text id = num_loss_cards>Nombre Mauvaises Cartes: </div></div>   <div class = titleboxRight><div class = game-text id = current_round>Points du tour: 34</div></div><div class = cardbox><div class = square><input type='image' id = 1 class = 'card_image' src='/static/experiments/columbia_card_task_hot/images/beforeChosen.png'></div><div class = square><input type='image' id = 2 class = 'card_image' src='/static/experiments/columbia_card_task_hot/images/beforeChosen.png'></div><div class = square><input type='image' id = 3 class = 'card_image' src='/static/experiments/columbia_card_task_hot/images/beforeChosen.png'></div><div class = square><input type='image' id = 4 class = 'card_image' src='/static/experiments/columbia_card_task_hot/images/chosen.png'></div><div class = square><input type='image' id = 5 class = 'card_image' src='/static/experiments/columbia_card_task_hot/images/beforeChosen.png'></div><div class = square><input type='image' id = 6 class = 'card_image' src='/static/experiments/columbia_card_task_hot/images/beforeChosen.png'></div><div class = square><input type='image' id = 7 class = 'card_image' src='/static/experiments/columbia_card_task_hot/images/beforeChosen.png'></div><div class = square><input type='image' id = 8 class = 'card_image' src='/static/experiments/columbia_card_task_hot/images/beforeChosen.png'></div><div class = square><input type='image' id = 9 class = 'card_image' src='/static/experiments/columbia_card_task_hot/images/chosen.png'></div></div>","89,71","612","test","7","3","9","2","17","-65","51","false","",""
"664","89","poldrack-single-stim","36","118125","0.0-8.6-0.22-0.22","pilot-40_ses-03_2","","664","0","stim","<div class = cct-box><div2 class = titleBigBox>   <div class = titleboxLeft><div class = game-text id = game_round>Tour: 7</div></div>   <div class = titleboxLeft1><div class = game-text id = loss_amount>Pertes: -65</div></div>    <div class = titleboxMiddle1><div class = game-text id = gain_amount>Gains: 17</div></div>    <div class = titlebox><div class = game-text>Combien de cartes voulez-vous prendre? </div></div>     <div class = titleboxRight1><div class = game-text id = num_loss_cards>Nombre Mauvaises Cartes: </div></div>   <div class = titleboxRight><div class = game-text id = current_round>Points du tour: 51</div></div><div class = cardbox><div class = square><input type='image' id = 1 class = 'card_image' src='/static/experiments/columbia_card_task_hot/images/beforeChosen.png'></div><div class = square><input type='image' id = 2 class = 'card_image' src='/static/experiments/columbia_card_task_hot/images/beforeChosen.png'></div><div class = square><input type='image' id = 3 class = 'card_image' src='/static/experiments/columbia_card_task_hot/images/beforeChosen.png'></div><div class = square><input type='image' id = 4 class = 'card_image' src='/static/experiments/columbia_card_task_hot/images/chosen.png'></div><div class = square><input type='image' id = 5 class = 'card_image' src='/static/experiments/columbia_card_task_hot/images/beforeChosen.png'></div><div class = square><input type='image' id = 6 class = 'card_image' src='/static/experiments/columbia_card_task_hot/images/beforeChosen.png'></div><div class = square><input type='image' id = 7 class = 'card_image' src='/static/experiments/columbia_card_task_hot/images/chosen.png'></div><div class = square><input type='image' id = 8 class = 'card_image' src='/static/experiments/columbia_card_task_hot/images/beforeChosen.png'></div><div class = square><input type='image' id = 9 class = 'card_image' src='/static/experiments/columbia_card_task_hot/images/chosen.png'></div></div>","89,71","664","test","7","4","9","2","17","-65","-14","true","",""
"-1","-1","poldrack-single-stim","37","120663","0.0-8.6-1.6","pilot-40_ses-03_2","","2522","0","ITI","<div class = cct-box><div2 class = titleBigBox>   <div class = titleboxLeft><div class = game-text id = game_round>Tour: 7</div></div>   <div class = titleboxLeft1><div class = game-text id = loss_amount>Pertes: -65</div></div>    <div class = titleboxMiddle1><div class = game-text id = gain_amount>Gains: 17</div></div>    <div class = titlebox><div class = game-text>Combien de cartes voulez-vous prendre? </div></div>     <div class = titleboxRight1><div class = game-text id = num_loss_cards>Nombre Mauvaises Cartes: </div></div>   <div class = titleboxRight><div class = game-text id = current_round>Points du tour: -14</div></div><div class = cardbox><div class = square><input type='image' id = 1 class = 'card_image' src='/static/experiments/columbia_card_task_hot/images/beforeChosen.png'></div><div class = square><input type='image' id = 2 class = 'card_image' src='/static/experiments/columbia_card_task_hot/images/loss.png'></div><div class = square><input type='image' id = 3 class = 'card_image' src='/static/experiments/columbia_card_task_hot/images/beforeChosen.png'></div><div class = square><input type='image' id = 4 class = 'card_image' src='/static/experiments/columbia_card_task_hot/images/chosen.png'></div><div class = square><input type='image' id = 5 class = 'card_image' src='/static/experiments/columbia_card_task_hot/images/beforeChosen.png'></div><div class = square><input type='image' id = 6 class = 'card_image' src='/static/experiments/columbia_card_task_hot/images/beforeChosen.png'></div><div class = square><input type='image' id = 7 class = 'card_image' src='/static/experiments/columbia_card_task_hot/images/chosen.png'></div><div class = square><input type='image' id = 8 class = 'card_image' src='/static/experiments/columbia_card_task_hot/images/beforeChosen.png'></div><div class = square><input type='image' id = 9 class = 'card_image' src='/static/experiments/columbia_card_task_hot/images/chosen.png'></div></div>","none","2250","","","","","","","","","","",""
"503","89","poldrack-single-stim","38","121170","0.0-8.7-0.23-0.23","pilot-40_ses-03_2","","503","0","stim","<div class = cct-box><div1 class = titleBigBox>   <div class = titleboxLeft><div class = game-text id = game_round>Tour: 8</div></div>   <div class = titleboxLeft1><div class = game-text id = loss_amount>Pertes: -95</div></div>    <div class = titleboxMiddle1><div class = game-text id = gain_amount>Gains: 14</div></div>    <div class = titlebox><div class = game-text>Combien de cartes voulez-vous prendre? </div></div>     <div class = titleboxRight1><div class = game-text id = num_loss_cards>Nombre Mauvaises Cartes: </div></div>   <div class = titleboxRight><div class = game-text id = current_round>Points du tour: 0</div></div><div class = cardbox><div class = square><input type='image' id = 1 class = 'card_image' src='/static/experiments/columbia_card_task_hot/images/beforeChosen.png'></div><div class = square><input type='image' id = 2 class = 'card_image' src='/static/experiments/columbia_card_task_hot/images/beforeChosen.png'></div><div class = square><input type='image' id = 3 class = 'card_image' src='/static/experiments/columbia_card_task_hot/images/beforeChosen.png'></div><div class = square><input type='image' id = 4 class = 'card_image' src='/static/experiments/columbia_card_task_hot/images/beforeChosen.png'></div><div class = square><input type='image' id = 5 class = 'card_image' src='/static/experiments/columbia_card_task_hot/images/beforeChosen.png'></div><div class = square><input type='image' id = 6 class = 'card_image' src='/static/experiments/columbia_card_task_hot/images/beforeChosen.png'></div><div class = square><input type='image' id = 7 class = 'card_image' src='/static/experiments/columbia_card_task_hot/images/beforeChosen.png'></div><div class = square><input type='image' id = 8 class = 'card_image' src='/static/experiments/columbia_card_task_hot/images/beforeChosen.png'></div><div class = square><input type='image' id = 9 class = 'card_image' src='/static/experiments/columbia_card_task_hot/images/beforeChosen.png'></div><div class = square><input type='image' id = 10 class = 'card_image' src='/static/experiments/columbia_card_task_hot/images/beforeChosen.png'></div></div>","89,71","503","test","8","1","10","1","14","-95","14","false","",""
"479","89","poldrack-single-stim","39","121655","0.0-8.7-0.24-0.24","pilot-40_ses-03_2","","479","0","stim","<div class = cct-box><div1 class = titleBigBox>   <div class = titleboxLeft><div class = game-text id = game_round>Tour: 8</div></div>   <div class = titleboxLeft1><div class = game-text id = loss_amount>Pertes: -95</div></div>    <div class = titleboxMiddle1><div class = game-text id = gain_amount>Gains: 14</div></div>    <div class = titlebox><div class = game-text>Combien de cartes voulez-vous prendre? </div></div>     <div class = titleboxRight1><div class = game-text id = num_loss_cards>Nombre Mauvaises Cartes: </div></div>   <div class = titleboxRight><div class = game-text id = current_round>Points du tour: 14</div></div><div class = cardbox><div class = square><input type='image' id = 1 class = 'card_image' src='/static/experiments/columbia_card_task_hot/images/chosen.png'></div><div class = square><input type='image' id = 2 class = 'card_image' src='/static/experiments/columbia_card_task_hot/images/beforeChosen.png'></div><div class = square><input type='image' id = 3 class = 'card_image' src='/static/experiments/columbia_card_task_hot/images/beforeChosen.png'></div><div class = square><input type='image' id = 4 class = 'card_image' src='/static/experiments/columbia_card_task_hot/images/beforeChosen.png'></div><div class = square><input type='image' id = 5 class = 'card_image' src='/static/experiments/columbia_card_task_hot/images/beforeChosen.png'></div><div class = square><input type='image' id = 6 class = 'card_image' src='/static/experiments/columbia_card_task_hot/images/beforeChosen.png'></div><div class = square><input type='image' id = 7 class = 'card_image' src='/static/experiments/columbia_card_task_hot/images/beforeChosen.png'></div><div class = square><input type='image' id = 8 class = 'card_image' src='/static/experiments/columbia_card_task_hot/images/beforeChosen.png'></div><div class = square><input type='image' id = 9 class = 'card_image' src='/static/experiments/columbia_card_task_hot/images/beforeChosen.png'></div><div class = square><input type='image' id = 10 class = 'card_image' src='/static/experiments/columbia_card_task_hot/images/beforeChosen.png'></div></div>","89,71","479","test","8","2","10","1","14","-95","28","false","",""
"559","89","poldrack-single-stim","40","122219","0.0-8.7-0.25-0.25","pilot-40_ses-03_2","","559","0","stim","<div class = cct-box><div1 class = titleBigBox>   <div class = titleboxLeft><div class = game-text id = game_round>Tour: 8</div></div>   <div class = titleboxLeft1><div class = game-text id = loss_amount>Pertes: -95</div></div>    <div class = titleboxMiddle1><div class = game-text id = gain_amount>Gains: 14</div></div>    <div class = titlebox><div class = game-text>Combien de cartes voulez-vous prendre? </div></div>     <div class = titleboxRight1><div class = game-text id = num_loss_cards>Nombre Mauvaises Cartes: </div></div>   <div class = titleboxRight><div class = game-text id = current_round>Points du tour: 28</div></div><div class = cardbox><div class = square><input type='image' id = 1 class = 'card_image' src='/static/experiments/columbia_card_task_hot/images/chosen.png'></div><div class = square><input type='image' id = 2 class = 'card_image' src='/static/experiments/columbia_card_task_hot/images/beforeChosen.png'></div><div class = square><input type='image' id = 3 class = 'card_image' src='/static/experiments/columbia_card_task_hot/images/beforeChosen.png'></div><div class = square><input type='image' id = 4 class = 'card_image' src='/static/experiments/columbia_card_task_hot/images/beforeChosen.png'></div><div class = square><input type='image' id = 5 class = 'card_image' src='/static/experiments/columbia_card_task_hot/images/beforeChosen.png'></div><div class = square><input type='image' id = 6 class = 'card_image' src='/static/experiments/columbia_card_task_hot/images/beforeChosen.png'></div><div class = square><input type='image' id = 7 class = 'card_image' src='/static/experiments/columbia_card_task_hot/images/beforeChosen.png'></div><div class = square><input type='image' id = 8 class = 'card_image' src='/static/experiments/columbia_card_task_hot/images/beforeChosen.png'></div><div class = square><input type='image' id = 9 class = 'card_image' src='/static/experiments/columbia_card_task_hot/images/chosen.png'></div><div class = square><input type='image' id = 10 class = 'card_image' src='/static/experiments/columbia_card_task_hot/images/beforeChosen.png'></div></div>","89,71","559","test","8","3","10","1","14","-95","42","false","",""
"1819","89","poldrack-single-stim","41","124042","0.0-8.7-0.26-0.26","pilot-40_ses-03_2","","1819","0","stim","<div class = cct-box><div1 class = titleBigBox>   <div class = titleboxLeft><div class = game-text id = game_round>Tour: 8</div></div>   <div class = titleboxLeft1><div class = game-text id = loss_amount>Pertes: -95</div></div>    <div class = titleboxMiddle1><div class = game-text id = gain_amount>Gains: 14</div></div>    <div class = titlebox><div class = game-text>Combien de cartes voulez-vous prendre? </div></div>     <div class = titleboxRight1><div class = game-text id = num_loss_cards>Nombre Mauvaises Cartes: </div></div>   <div class = titleboxRight><div class = game-text id = current_round>Points du tour: 42</div></div><div class = cardbox><div class = square><input type='image' id = 1 class = 'card_image' src='/static/experiments/columbia_card_task_hot/images/chosen.png'></div><div class = square><input type='image' id = 2 class = 'card_image' src='/static/experiments/columbia_card_task_hot/images/beforeChosen.png'></div><div class = square><input type='image' id = 3 class = 'card_image' src='/static/experiments/columbia_card_task_hot/images/beforeChosen.png'></div><div class = square><input type='image' id = 4 class = 'card_image' src='/static/experiments/columbia_card_task_hot/images/beforeChosen.png'></div><div class = square><input type='image' id = 5 class = 'card_image' src='/static/experiments/columbia_card_task_hot/images/beforeChosen.png'></div><div class = square><input type='image' id = 6 class = 'card_image' src='/static/experiments/columbia_card_task_hot/images/beforeChosen.png'></div><div class = square><input type='image' id = 7 class = 'card_image' src='/static/experiments/columbia_card_task_hot/images/beforeChosen.png'></div><div class = square><input type='image' id = 8 class = 'card_image' src='/static/experiments/columbia_card_task_hot/images/beforeChosen.png'></div><div class = square><input type='image' id = 9 class = 'card_image' src='/static/experiments/columbia_card_task_hot/images/chosen.png'></div><div class = square><input type='image' id = 10 class = 'card_image' src='/static/experiments/columbia_card_task_hot/images/chosen.png'></div></div>","89,71","1819","test","8","4","10","1","14","-95","-53","true","",""
"-1","-1","poldrack-single-stim","42","126643","0.0-8.7-1.7","pilot-40_ses-03_2","","2590","0","ITI","<div class = cct-box><div1 class = titleBigBox>   <div class = titleboxLeft><div class = game-text id = game_round>Tour: 8</div></div>   <div class = titleboxLeft1><div class = game-text id = loss_amount>Pertes: -95</div></div>    <div class = titleboxMiddle1><div class = game-text id = gain_amount>Gains: 14</div></div>    <div class = titlebox><div class = game-text>Combien de cartes voulez-vous prendre? </div></div>     <div class = titleboxRight1><div class = game-text id = num_loss_cards>Nombre Mauvaises Cartes: </div></div>   <div class = titleboxRight><div class = game-text id = current_round>Points du tour: -53</div></div><div class = cardbox><div class = square><input type='image' id = 1 class = 'card_image' src='/static/experiments/columbia_card_task_hot/images/chosen.png'></div><div class = square><input type='image' id = 2 class = 'card_image' src='/static/experiments/columbia_card_task_hot/images/beforeChosen.png'></div><div class = square><input type='image' id = 3 class = 'card_image' src='/static/experiments/columbia_card_task_hot/images/beforeChosen.png'></div><div class = square><input type='image' id = 4 class = 'card_image' src='/static/experiments/columbia_card_task_hot/images/beforeChosen.png'></div><div class = square><input type='image' id = 5 class = 'card_image' src='/static/experiments/columbia_card_task_hot/images/loss.png'></div><div class = square><input type='image' id = 6 class = 'card_image' src='/static/experiments/columbia_card_task_hot/images/beforeChosen.png'></div><div class = square><input type='image' id = 7 class = 'card_image' src='/static/experiments/columbia_card_task_hot/images/beforeChosen.png'></div><div class = square><input type='image' id = 8 class = 'card_image' src='/static/experiments/columbia_card_task_hot/images/beforeChosen.png'></div><div class = square><input type='image' id = 9 class = 'card_image' src='/static/experiments/columbia_card_task_hot/images/chosen.png'></div><div class = square><input type='image' id = 10 class = 'card_image' src='/static/experiments/columbia_card_task_hot/images/chosen.png'></div></div>","none","2250","","","","","","","","","","",""
"383","89","poldrack-single-stim","43","127031","0.0-8.8-0.27-0.27","pilot-40_ses-03_2","","383","0","stim","<div class = cct-box><div2 class = titleBigBox>   <div class = titleboxLeft><div class = game-text id = game_round>Tour: 9</div></div>   <div class = titleboxLeft1><div class = game-text id = loss_amount>Pertes: -65</div></div>    <div class = titleboxMiddle1><div class = game-text id = gain_amount>Gains: 15</div></div>    <div class = titlebox><div class = game-text>Combien de cartes voulez-vous prendre? </div></div>     <div class = titleboxRight1><div class = game-text id = num_loss_cards>Nombre Mauvaises Cartes: </div></div>   <div class = titleboxRight><div class = game-text id = current_round>Points du tour: 0</div></div><div class = cardbox><div class = square><input type='image' id = 1 class = 'card_image' src='/static/experiments/columbia_card_task_hot/images/beforeChosen.png'></div><div class = square><input type='image' id = 2 class = 'card_image' src='/static/experiments/columbia_card_task_hot/images/beforeChosen.png'></div><div class = square><input type='image' id = 3 class = 'card_image' src='/static/experiments/columbia_card_task_hot/images/beforeChosen.png'></div><div class = square><input type='image' id = 4 class = 'card_image' src='/static/experiments/columbia_card_task_hot/images/beforeChosen.png'></div><div class = square><input type='image' id = 5 class = 'card_image' src='/static/experiments/columbia_card_task_hot/images/beforeChosen.png'></div><div class = square><input type='image' id = 6 class = 'card_image' src='/static/experiments/columbia_card_task_hot/images/beforeChosen.png'></div><div class = square><input type='image' id = 7 class = 'card_image' src='/static/experiments/columbia_card_task_hot/images/beforeChosen.png'></div><div class = square><input type='image' id = 8 class = 'card_image' src='/static/experiments/columbia_card_task_hot/images/beforeChosen.png'></div><div class = square><input type='image' id = 9 class = 'card_image' src='/static/experiments/columbia_card_task_hot/images/beforeChosen.png'></div><div class = square><input type='image' id = 10 class = 'card_image' src='/static/experiments/columbia_card_task_hot/images/beforeChosen.png'></div></div>","89,71","383","test","9","1","10","2","15","-65","15","false","",""
"615","89","poldrack-single-stim","44","127654","0.0-8.8-0.28-0.28","pilot-40_ses-03_2","","615","0","stim","<div class = cct-box><div2 class = titleBigBox>   <div class = titleboxLeft><div class = game-text id = game_round>Tour: 9</div></div>   <div class = titleboxLeft1><div class = game-text id = loss_amount>Pertes: -65</div></div>    <div class = titleboxMiddle1><div class = game-text id = gain_amount>Gains: 15</div></div>    <div class = titlebox><div class = game-text>Combien de cartes voulez-vous prendre? </div></div>     <div class = titleboxRight1><div class = game-text id = num_loss_cards>Nombre Mauvaises Cartes: </div></div>   <div class = titleboxRight><div class = game-text id = current_round>Points du tour: 15</div></div><div class = cardbox><div class = square><input type='image' id = 1 class = 'card_image' src='/static/experiments/columbia_card_task_hot/images/beforeChosen.png'></div><div class = square><input type='image' id = 2 class = 'card_image' src='/static/experiments/columbia_card_task_hot/images/beforeChosen.png'></div><div class = square><input type='image' id = 3 class = 'card_image' src='/static/experiments/columbia_card_task_hot/images/beforeChosen.png'></div><div class = square><input type='image' id = 4 class = 'card_image' src='/static/experiments/columbia_card_task_hot/images/chosen.png'></div><div class = square><input type='image' id = 5 class = 'card_image' src='/static/experiments/columbia_card_task_hot/images/beforeChosen.png'></div><div class = square><input type='image' id = 6 class = 'card_image' src='/static/experiments/columbia_card_task_hot/images/beforeChosen.png'></div><div class = square><input type='image' id = 7 class = 'card_image' src='/static/experiments/columbia_card_task_hot/images/beforeChosen.png'></div><div class = square><input type='image' id = 8 class = 'card_image' src='/static/experiments/columbia_card_task_hot/images/beforeChosen.png'></div><div class = square><input type='image' id = 9 class = 'card_image' src='/static/experiments/columbia_card_task_hot/images/beforeChosen.png'></div><div class = square><input type='image' id = 10 class = 'card_image' src='/static/experiments/columbia_card_task_hot/images/beforeChosen.png'></div></div>","89,71","615","test","9","2","10","2","15","-65","30","false","",""
"849","89","poldrack-single-stim","45","128510","0.0-8.8-0.29-0.29","pilot-40_ses-03_2","","849","0","stim","<div class = cct-box><div2 class = titleBigBox>   <div class = titleboxLeft><div class = game-text id = game_round>Tour: 9</div></div>   <div class = titleboxLeft1><div class = game-text id = loss_amount>Pertes: -65</div></div>    <div class = titleboxMiddle1><div class = game-text id = gain_amount>Gains: 15</div></div>    <div class = titlebox><div class = game-text>Combien de cartes voulez-vous prendre? </div></div>     <div class = titleboxRight1><div class = game-text id = num_loss_cards>Nombre Mauvaises Cartes: </div></div>   <div class = titleboxRight><div class = game-text id = current_round>Points du tour: 30</div></div><div class = cardbox><div class = square><input type='image' id = 1 class = 'card_image' src='/static/experiments/columbia_card_task_hot/images/beforeChosen.png'></div><div class = square><input type='image' id = 2 class = 'card_image' src='/static/experiments/columbia_card_task_hot/images/beforeChosen.png'></div><div class = square><input type='image' id = 3 class = 'card_image' src='/static/experiments/columbia_card_task_hot/images/beforeChosen.png'></div><div class = square><input type='image' id = 4 class = 'card_image' src='/static/experiments/columbia_card_task_hot/images/chosen.png'></div><div class = square><input type='image' id = 5 class = 'card_image' src='/static/experiments/columbia_card_task_hot/images/beforeChosen.png'></div><div class = square><input type='image' id = 6 class = 'card_image' src='/static/experiments/columbia_card_task_hot/images/chosen.png'></div><div class = square><input type='image' id = 7 class = 'card_image' src='/static/experiments/columbia_card_task_hot/images/beforeChosen.png'></div><div class = square><input type='image' id = 8 class = 'card_image' src='/static/experiments/columbia_card_task_hot/images/beforeChosen.png'></div><div class = square><input type='image' id = 9 class = 'card_image' src='/static/experiments/columbia_card_task_hot/images/beforeChosen.png'></div><div class = square><input type='image' id = 10 class = 'card_image' src='/static/experiments/columbia_card_task_hot/images/beforeChosen.png'></div></div>","89,71","849","test","9","3","10","2","15","-65","45","false","",""
"1538","89","poldrack-single-stim","46","130055","0.0-8.8-0.30-0.30","pilot-40_ses-03_2","","1538","0","stim","<div class = cct-box><div2 class = titleBigBox>   <div class = titleboxLeft><div class = game-text id = game_round>Tour: 9</div></div>   <div class = titleboxLeft1><div class = game-text id = loss_amount>Pertes: -65</div></div>    <div class = titleboxMiddle1><div class = game-text id = gain_amount>Gains: 15</div></div>    <div class = titlebox><div class = game-text>Combien de cartes voulez-vous prendre? </div></div>     <div class = titleboxRight1><div class = game-text id = num_loss_cards>Nombre Mauvaises Cartes: </div></div>   <div class = titleboxRight><div class = game-text id = current_round>Points du tour: 45</div></div><div class = cardbox><div class = square><input type='image' id = 1 class = 'card_image' src='/static/experiments/columbia_card_task_hot/images/beforeChosen.png'></div><div class = square><input type='image' id = 2 class = 'card_image' src='/static/experiments/columbia_card_task_hot/images/beforeChosen.png'></div><div class = square><input type='image' id = 3 class = 'card_image' src='/static/experiments/columbia_card_task_hot/images/beforeChosen.png'></div><div class = square><input type='image' id = 4 class = 'card_image' src='/static/experiments/columbia_card_task_hot/images/chosen.png'></div><div class = square><input type='image' id = 5 class = 'card_image' src='/static/experiments/columbia_card_task_hot/images/beforeChosen.png'></div><div class = square><input type='image' id = 6 class = 'card_image' src='/static/experiments/columbia_card_task_hot/images/chosen.png'></div><div class = square><input type='image' id = 7 class = 'card_image' src='/static/experiments/columbia_card_task_hot/images/beforeChosen.png'></div><div class = square><input type='image' id = 8 class = 'card_image' src='/static/experiments/columbia_card_task_hot/images/beforeChosen.png'></div><div class = square><input type='image' id = 9 class = 'card_image' src='/static/experiments/columbia_card_task_hot/images/beforeChosen.png'></div><div class = square><input type='image' id = 10 class = 'card_image' src='/static/experiments/columbia_card_task_hot/images/chosen.png'></div></div>","89,71","1538","test","9","4","10","2","15","-65","60","false","",""
"2180","89","poldrack-single-stim","47","132241","0.0-8.8-0.31-0.31","pilot-40_ses-03_2","","2180","0","stim","<div class = cct-box><div2 class = titleBigBox>   <div class = titleboxLeft><div class = game-text id = game_round>Tour: 9</div></div>   <div class = titleboxLeft1><div class = game-text id = loss_amount>Pertes: -65</div></div>    <div class = titleboxMiddle1><div class = game-text id = gain_amount>Gains: 15</div></div>    <div class = titlebox><div class = game-text>Combien de cartes voulez-vous prendre? </div></div>     <div class = titleboxRight1><div class = game-text id = num_loss_cards>Nombre Mauvaises Cartes: </div></div>   <div class = titleboxRight><div class = game-text id = current_round>Points du tour: 60</div></div><div class = cardbox><div class = square><input type='image' id = 1 class = 'card_image' src='/static/experiments/columbia_card_task_hot/images/beforeChosen.png'></div><div class = square><input type='image' id = 2 class = 'card_image' src='/static/experiments/columbia_card_task_hot/images/beforeChosen.png'></div><div class = square><input type='image' id = 3 class = 'card_image' src='/static/experiments/columbia_card_task_hot/images/beforeChosen.png'></div><div class = square><input type='image' id = 4 class = 'card_image' src='/static/experiments/columbia_card_task_hot/images/chosen.png'></div><div class = square><input type='image' id = 5 class = 'card_image' src='/static/experiments/columbia_card_task_hot/images/beforeChosen.png'></div><div class = square><input type='image' id = 6 class = 'card_image' src='/static/experiments/columbia_card_task_hot/images/chosen.png'></div><div class = square><input type='image' id = 7 class = 'card_image' src='/static/experiments/columbia_card_task_hot/images/beforeChosen.png'></div><div class = square><input type='image' id = 8 class = 'card_image' src='/static/experiments/columbia_card_task_hot/images/beforeChosen.png'></div><div class = square><input type='image' id = 9 class = 'card_image' src='/static/experiments/columbia_card_task_hot/images/chosen.png'></div><div class = square><input type='image' id = 10 class = 'card_image' src='/static/experiments/columbia_card_task_hot/images/chosen.png'></div></div>","89,71","2180","test","9","5","10","2","15","-65","75","false","",""
"2128","89","poldrack-single-stim","48","134376","0.0-8.8-0.32-0.32","pilot-40_ses-03_2","","2128","0","stim","<div class = cct-box><div2 class = titleBigBox>   <div class = titleboxLeft><div class = game-text id = game_round>Tour: 9</div></div>   <div class = titleboxLeft1><div class = game-text id = loss_amount>Pertes: -65</div></div>    <div class = titleboxMiddle1><div class = game-text id = gain_amount>Gains: 15</div></div>    <div class = titlebox><div class = game-text>Combien de cartes voulez-vous prendre? </div></div>     <div class = titleboxRight1><div class = game-text id = num_loss_cards>Nombre Mauvaises Cartes: </div></div>   <div class = titleboxRight><div class = game-text id = current_round>Points du tour: 75</div></div><div class = cardbox><div class = square><input type='image' id = 1 class = 'card_image' src='/static/experiments/columbia_card_task_hot/images/chosen.png'></div><div class = square><input type='image' id = 2 class = 'card_image' src='/static/experiments/columbia_card_task_hot/images/beforeChosen.png'></div><div class = square><input type='image' id = 3 class = 'card_image' src='/static/experiments/columbia_card_task_hot/images/beforeChosen.png'></div><div class = square><input type='image' id = 4 class = 'card_image' src='/static/experiments/columbia_card_task_hot/images/chosen.png'></div><div class = square><input type='image' id = 5 class = 'card_image' src='/static/experiments/columbia_card_task_hot/images/beforeChosen.png'></div><div class = square><input type='image' id = 6 class = 'card_image' src='/static/experiments/columbia_card_task_hot/images/chosen.png'></div><div class = square><input type='image' id = 7 class = 'card_image' src='/static/experiments/columbia_card_task_hot/images/beforeChosen.png'></div><div class = square><input type='image' id = 8 class = 'card_image' src='/static/experiments/columbia_card_task_hot/images/beforeChosen.png'></div><div class = square><input type='image' id = 9 class = 'card_image' src='/static/experiments/columbia_card_task_hot/images/chosen.png'></div><div class = square><input type='image' id = 10 class = 'card_image' src='/static/experiments/columbia_card_task_hot/images/chosen.png'></div></div>","89,71","2128","test","9","6","10","2","15","-65","10","true","",""
"-1","-1","poldrack-single-stim","49","136773","0.0-8.8-1.8","pilot-40_ses-03_2","","2386","0","ITI","<div class = cct-box><div2 class = titleBigBox>   <div class = titleboxLeft><div class = game-text id = game_round>Tour: 9</div></div>   <div class = titleboxLeft1><div class = game-text id = loss_amount>Pertes: -65</div></div>    <div class = titleboxMiddle1><div class = game-text id = gain_amount>Gains: 15</div></div>    <div class = titlebox><div class = game-text>Combien de cartes voulez-vous prendre? </div></div>     <div class = titleboxRight1><div class = game-text id = num_loss_cards>Nombre Mauvaises Cartes: </div></div>   <div class = titleboxRight><div class = game-text id = current_round>Points du tour: 10</div></div><div class = cardbox><div class = square><input type='image' id = 1 class = 'card_image' src='/static/experiments/columbia_card_task_hot/images/chosen.png'></div><div class = square><input type='image' id = 2 class = 'card_image' src='/static/experiments/columbia_card_task_hot/images/beforeChosen.png'></div><div class = square><input type='image' id = 3 class = 'card_image' src='/static/experiments/columbia_card_task_hot/images/beforeChosen.png'></div><div class = square><input type='image' id = 4 class = 'card_image' src='/static/experiments/columbia_card_task_hot/images/chosen.png'></div><div class = square><input type='image' id = 5 class = 'card_image' src='/static/experiments/columbia_card_task_hot/images/beforeChosen.png'></div><div class = square><input type='image' id = 6 class = 'card_image' src='/static/experiments/columbia_card_task_hot/images/chosen.png'></div><div class = square><input type='image' id = 7 class = 'card_image' src='/static/experiments/columbia_card_task_hot/images/beforeChosen.png'></div><div class = square><input type='image' id = 8 class = 'card_image' src='/static/experiments/columbia_card_task_hot/images/loss.png'></div><div class = square><input type='image' id = 9 class = 'card_image' src='/static/experiments/columbia_card_task_hot/images/chosen.png'></div><div class = square><input type='image' id = 10 class = 'card_image' src='/static/experiments/columbia_card_task_hot/images/chosen.png'></div></div>","none","2250","","","","","","","","","","",""
"435","89","poldrack-single-stim","50","137213","0.0-8.9-0.33-0.33","pilot-40_ses-03_2","","435","0","stim","<div class = cct-box><div2 class = titleBigBox>   <div class = titleboxLeft><div class = game-text id = game_round>Tour: 10</div></div>   <div class = titleboxLeft1><div class = game-text id = loss_amount>Pertes: -65</div></div>    <div class = titleboxMiddle1><div class = game-text id = gain_amount>Gains: 17</div></div>    <div class = titlebox><div class = game-text>Combien de cartes voulez-vous prendre? </div></div>     <div class = titleboxRight1><div class = game-text id = num_loss_cards>Nombre Mauvaises Cartes: </div></div>   <div class = titleboxRight><div class = game-text id = current_round>Points du tour: 0</div></div><div class = cardbox><div class = square><input type='image' id = 1 class = 'card_image' src='/static/experiments/columbia_card_task_hot/images/beforeChosen.png'></div><div class = square><input type='image' id = 2 class = 'card_image' src='/static/experiments/columbia_card_task_hot/images/beforeChosen.png'></div><div class = square><input type='image' id = 3 class = 'card_image' src='/static/experiments/columbia_card_task_hot/images/beforeChosen.png'></div><div class = square><input type='image' id = 4 class = 'card_image' src='/static/experiments/columbia_card_task_hot/images/beforeChosen.png'></div><div class = square><input type='image' id = 5 class = 'card_image' src='/static/experiments/columbia_card_task_hot/images/beforeChosen.png'></div><div class = square><input type='image' id = 6 class = 'card_image' src='/static/experiments/columbia_card_task_hot/images/beforeChosen.png'></div><div class = square><input type='image' id = 7 class = 'card_image' src='/static/experiments/columbia_card_task_hot/images/beforeChosen.png'></div><div class = square><input type='image' id = 8 class = 'card_image' src='/static/experiments/columbia_card_task_hot/images/beforeChosen.png'></div><div class = square><input type='image' id = 9 class = 'card_image' src='/static/experiments/columbia_card_task_hot/images/beforeChosen.png'></div><div class = square><input type='image' id = 10 class = 'card_image' src='/static/experiments/columbia_card_task_hot/images/beforeChosen.png'></div></div>","89,71","435","test","10","1","10","2","17","-65","17","false","",""
"509","89","poldrack-single-stim","51","137725","0.0-8.9-0.34-0.34","pilot-40_ses-03_2","","509","0","stim","<div class = cct-box><div2 class = titleBigBox>   <div class = titleboxLeft><div class = game-text id = game_round>Tour: 10</div></div>   <div class = titleboxLeft1><div class = game-text id = loss_amount>Pertes: -65</div></div>    <div class = titleboxMiddle1><div class = game-text id = gain_amount>Gains: 17</div></div>    <div class = titlebox><div class = game-text>Combien de cartes voulez-vous prendre? </div></div>     <div class = titleboxRight1><div class = game-text id = num_loss_cards>Nombre Mauvaises Cartes: </div></div>   <div class = titleboxRight><div class = game-text id = current_round>Points du tour: 17</div></div><div class = cardbox><div class = square><input type='image' id = 1 class = 'card_image' src='/static/experiments/columbia_card_task_hot/images/beforeChosen.png'></div><div class = square><input type='image' id = 2 class = 'card_image' src='/static/experiments/columbia_card_task_hot/images/beforeChosen.png'></div><div class = square><input type='image' id = 3 class = 'card_image' src='/static/experiments/columbia_card_task_hot/images/beforeChosen.png'></div><div class = square><input type='image' id = 4 class = 'card_image' src='/static/experiments/columbia_card_task_hot/images/beforeChosen.png'></div><div class = square><input type='image' id = 5 class = 'card_image' src='/static/experiments/columbia_card_task_hot/images/beforeChosen.png'></div><div class = square><input type='image' id = 6 class = 'card_image' src='/static/experiments/columbia_card_task_hot/images/beforeChosen.png'></div><div class = square><input type='image' id = 7 class = 'card_image' src='/static/experiments/columbia_card_task_hot/images/beforeChosen.png'></div><div class = square><input type='image' id = 8 class = 'card_image' src='/static/experiments/columbia_card_task_hot/images/chosen.png'></div><div class = square><input type='image' id = 9 class = 'card_image' src='/static/experiments/columbia_card_task_hot/images/beforeChosen.png'></div><div class = square><input type='image' id = 10 class = 'card_image' src='/static/experiments/columbia_card_task_hot/images/beforeChosen.png'></div></div>","89,71","509","test","10","2","10","2","17","-65","34","false","",""
"778","89","poldrack-single-stim","52","138508","0.0-8.9-0.35-0.35","pilot-40_ses-03_2","","778","0","stim","<div class = cct-box><div2 class = titleBigBox>   <div class = titleboxLeft><div class = game-text id = game_round>Tour: 10</div></div>   <div class = titleboxLeft1><div class = game-text id = loss_amount>Pertes: -65</div></div>    <div class = titleboxMiddle1><div class = game-text id = gain_amount>Gains: 17</div></div>    <div class = titlebox><div class = game-text>Combien de cartes voulez-vous prendre? </div></div>     <div class = titleboxRight1><div class = game-text id = num_loss_cards>Nombre Mauvaises Cartes: </div></div>   <div class = titleboxRight><div class = game-text id = current_round>Points du tour: 34</div></div><div class = cardbox><div class = square><input type='image' id = 1 class = 'card_image' src='/static/experiments/columbia_card_task_hot/images/beforeChosen.png'></div><div class = square><input type='image' id = 2 class = 'card_image' src='/static/experiments/columbia_card_task_hot/images/beforeChosen.png'></div><div class = square><input type='image' id = 3 class = 'card_image' src='/static/experiments/columbia_card_task_hot/images/beforeChosen.png'></div><div class = square><input type='image' id = 4 class = 'card_image' src='/static/experiments/columbia_card_task_hot/images/beforeChosen.png'></div><div class = square><input type='image' id = 5 class = 'card_image' src='/static/experiments/columbia_card_task_hot/images/beforeChosen.png'></div><div class = square><input type='image' id = 6 class = 'card_image' src='/static/experiments/columbia_card_task_hot/images/beforeChosen.png'></div><div class = square><input type='image' id = 7 class = 'card_image' src='/static/experiments/columbia_card_task_hot/images/beforeChosen.png'></div><div class = square><input type='image' id = 8 class = 'card_image' src='/static/experiments/columbia_card_task_hot/images/chosen.png'></div><div class = square><input type='image' id = 9 class = 'card_image' src='/static/experiments/columbia_card_task_hot/images/beforeChosen.png'></div><div class = square><input type='image' id = 10 class = 'card_image' src='/static/experiments/columbia_card_task_hot/images/chosen.png'></div></div>","89,71","778","test","10","3","10","2","17","-65","-31","true","",""
"-1","-1","poldrack-single-stim","53","141113","0.0-8.9-1.9","pilot-40_ses-03_2","","2590","0","ITI","<div class = cct-box><div2 class = titleBigBox>   <div class = titleboxLeft><div class = game-text id = game_round>Tour: 10</div></div>   <div class = titleboxLeft1><div class = game-text id = loss_amount>Pertes: -65</div></div>    <div class = titleboxMiddle1><div class = game-text id = gain_amount>Gains: 17</div></div>    <div class = titlebox><div class = game-text>Combien de cartes voulez-vous prendre? </div></div>     <div class = titleboxRight1><div class = game-text id = num_loss_cards>Nombre Mauvaises Cartes: </div></div>   <div class = titleboxRight><div class = game-text id = current_round>Points du tour: -31</div></div><div class = cardbox><div class = square><input type='image' id = 1 class = 'card_image' src='/static/experiments/columbia_card_task_hot/images/beforeChosen.png'></div><div class = square><input type='image' id = 2 class = 'card_image' src='/static/experiments/columbia_card_task_hot/images/beforeChosen.png'></div><div class = square><input type='image' id = 3 class = 'card_image' src='/static/experiments/columbia_card_task_hot/images/beforeChosen.png'></div><div class = square><input type='image' id = 4 class = 'card_image' src='/static/experiments/columbia_card_task_hot/images/beforeChosen.png'></div><div class = square><input type='image' id = 5 class = 'card_image' src='/static/experiments/columbia_card_task_hot/images/beforeChosen.png'></div><div class = square><input type='image' id = 6 class = 'card_image' src='/static/experiments/columbia_card_task_hot/images/beforeChosen.png'></div><div class = square><input type='image' id = 7 class = 'card_image' src='/static/experiments/columbia_card_task_hot/images/loss.png'></div><div class = square><input type='image' id = 8 class = 'card_image' src='/static/experiments/columbia_card_task_hot/images/chosen.png'></div><div class = square><input type='image' id = 9 class = 'card_image' src='/static/experiments/columbia_card_task_hot/images/beforeChosen.png'></div><div class = square><input type='image' id = 10 class = 'card_image' src='/static/experiments/columbia_card_task_hot/images/chosen.png'></div></div>","none","2250","","","","","","","","","","",""
"633","89","poldrack-single-stim","54","141752","0.0-8.10-0.36-0.36","pilot-40_ses-03_2","","633","0","stim","<div class = cct-box><div2 class = titleBigBox>   <div class = titleboxLeft><div class = game-text id = game_round>Tour: 11</div></div>   <div class = titleboxLeft1><div class = game-text id = loss_amount>Pertes: -70</div></div>    <div class = titleboxMiddle1><div class = game-text id = gain_amount>Gains: 13</div></div>    <div class = titlebox><div class = game-text>Combien de cartes voulez-vous prendre? </div></div>     <div class = titleboxRight1><div class = game-text id = num_loss_cards>Nombre Mauvaises Cartes: </div></div>   <div class = titleboxRight><div class = game-text id = current_round>Points du tour: 0</div></div><div class = cardbox><div class = square><input type='image' id = 1 class = 'card_image' src='/static/experiments/columbia_card_task_hot/images/beforeChosen.png'></div><div class = square><input type='image' id = 2 class = 'card_image' src='/static/experiments/columbia_card_task_hot/images/beforeChosen.png'></div><div class = square><input type='image' id = 3 class = 'card_image' src='/static/experiments/columbia_card_task_hot/images/beforeChosen.png'></div><div class = square><input type='image' id = 4 class = 'card_image' src='/static/experiments/columbia_card_task_hot/images/beforeChosen.png'></div><div class = square><input type='image' id = 5 class = 'card_image' src='/static/experiments/columbia_card_task_hot/images/beforeChosen.png'></div><div class = square><input type='image' id = 6 class = 'card_image' src='/static/experiments/columbia_card_task_hot/images/beforeChosen.png'></div><div class = square><input type='image' id = 7 class = 'card_image' src='/static/experiments/columbia_card_task_hot/images/beforeChosen.png'></div><div class = square><input type='image' id = 8 class = 'card_image' src='/static/experiments/columbia_card_task_hot/images/beforeChosen.png'></div><div class = square><input type='image' id = 9 class = 'card_image' src='/static/experiments/columbia_card_task_hot/images/beforeChosen.png'></div><div class = square><input type='image' id = 10 class = 'card_image' src='/static/experiments/columbia_card_task_hot/images/beforeChosen.png'></div><div class = square><input type='image' id = 11 class = 'card_image' src='/static/experiments/columbia_card_task_hot/images/beforeChosen.png'></div><div class = square><input type='image' id = 12 class = 'card_image' src='/static/experiments/columbia_card_task_hot/images/beforeChosen.png'></div></div>","89,71","633","test","11","1","12","2","13","-70","13","false","",""
