"rt","key_press","trial_type","trial_index","time_elapsed","internal_node_id","subject","text","block_duration","timing_post_trial","trial_id","responses","stimulus","possible_responses","stim_duration","exp_stage","cue","stim_color","stim_number","task","task_switch","cue_switch","trial_num","correct","correct_response","feedback_duration","exp_id"
"2089","13","text","0","2095","0.0-0.0","pilot-38_ses-01","","","","","","","","","","","","","","","","","","","",""
"7689","89","poldrack-text","1","10808","0.0-1.0","pilot-38_ses-01","<div class = centerbox><div style = 'font-size: 50px' class = center-text>Veuillez appuyer avec votre index</p></div>","7689","500","fmri_response_test","","","","","","","","","","","","","","","",""
"610","71","poldrack-text","2","11949","0.0-2.0","pilot-38_ses-01","<div class = centerbox><div style = 'font-size: 50px' class = center-text>Veuillez appuyer avec votre majeur</p></div>","610","500","fmri_response_test","","","","","","","","","","","","","","","",""
"14586","","survey-text","3","27075","0.0-3.0","pilot-38_ses-01","","","","task_setup","{""Q0"":""2"",""Q1"":""2""}","","","","","","","","","","","","","","",""
"63912","32","poldrack-single-stim","4","92000","0.0-4.0","pilot-38_ses-01","","63912","0","instructions","","<div class = centerbox><div class = center-text style=""font-size:40px""><strong>Color</strong> or <strong>Orange-Blue</strong>: Majeur if orange and Index if blue.<br><br><strong>Magnitude</strong> or <strong>High-Low</strong>: Majeur if >5 and Index if <5.</div></div>","32","63912","","","","","","","","","","","",""
"","","call-function","5","92000","0.0-5.0-0.0","pilot-38_ses-01","","","","set_stims","","","","","","","","","","","","","","","",""
"-1","-1","poldrack-single-stim","6","92514","0.0-5.0-1.0","pilot-38_ses-01","","500","0","fixation","","<div class = upperbox><div class = fixation>+</div></div><div class = lowerbox><div class = fixation>+</div></div>","none","500","practice","","","","","","","","","","",""
"-1","-1","poldrack-single-stim","7","92638","0.0-5.0-2.0","pilot-38_ses-01","","100","0","cue","","<div class = upperbox><div class = ""center-text"" >Orange-Bleu</div></div><div class = lowerbox><div class = fixation>+</div></div>","none","100","practice","Orange-Bleu","#1F45FC","3","color","switch","stay","0","","","",""
"1382","89","poldrack-categorize","8","95174","0.0-5.0-3.0","pilot-38_ses-01","","2000","0","stim","","<div class = upperbox><div class = ""center-text"" >Orange-Bleu</div></div><div class = lowerbox><div class = ""stim-text"" style=color:#1F45FC;>3</div>","89,71","1000","practice","Orange-Bleu","#1F45FC","3","color","switch","stay","0","true","89","500",""
"-1","-1","poldrack-single-stim","9","95660","0.0-5.0-4.0","pilot-38_ses-01","","500","0","gap",""," ","none","500","practice","","","","","","","","","","",""
"","","call-function","10","95660","0.0-5.0-5.0","pilot-38_ses-01","","","","set_stims","","","","","","","","","","","","","","","",""
"-1","-1","poldrack-single-stim","11","96177","0.0-5.0-6.0","pilot-38_ses-01","","500","0","fixation","","<div class = upperbox><div class = fixation>+</div></div><div class = lowerbox><div class = fixation>+</div></div>","none","500","practice","","","","","","","","","","",""
"-1","-1","poldrack-single-stim","12","97099","0.0-5.0-7.0","pilot-38_ses-01","","900","0","cue","","<div class = upperbox><div class = ""center-text"" >Haut-Bas</div></div><div class = lowerbox><div class = fixation>+</div></div>","none","900","practice","Haut-Bas","orange","7","magnitude","switch","stay","1","","","",""
"449","71","poldrack-categorize","13","99638","0.0-5.0-8.0","pilot-38_ses-01","","2000","0","stim","","<div class = upperbox><div class = ""center-text"" >Haut-Bas</div></div><div class = lowerbox><div class = ""stim-text"" style=color:orange;>7</div>","89,71","1000","practice","Haut-Bas","orange","7","magnitude","switch","stay","1","true","71","500",""
"-1","-1","poldrack-single-stim","14","100138","0.0-5.0-9.0","pilot-38_ses-01","","500","0","gap",""," ","none","500","practice","","","","","","","","","","",""
"","","call-function","15","100140","0.0-5.0-10.0","pilot-38_ses-01","","","","set_stims","","","","","","","","","","","","","","","",""
"-1","-1","poldrack-single-stim","16","100639","0.0-5.0-11.0","pilot-38_ses-01","","500","0","fixation","","<div class = upperbox><div class = fixation>+</div></div><div class = lowerbox><div class = fixation>+</div></div>","none","500","practice","","","","","","","","","","",""
"-1","-1","poldrack-single-stim","17","101566","0.0-5.0-12.0","pilot-38_ses-01","","900","0","cue","","<div class = upperbox><div class = ""center-text"" >Orange-Bleu</div></div><div class = lowerbox><div class = fixation>+</div></div>","none","900","practice","Orange-Bleu","orange","9","color","switch","switch","2","","","",""
"499","71","poldrack-categorize","18","104100","0.0-5.0-13.0","pilot-38_ses-01","","2000","0","stim","","<div class = upperbox><div class = ""center-text"" >Orange-Bleu</div></div><div class = lowerbox><div class = ""stim-text"" style=color:orange;>9</div>","89,71","1000","practice","Orange-Bleu","orange","9","color","switch","switch","2","true","71","500",""
"-1","-1","poldrack-single-stim","19","104609","0.0-5.0-14.0","pilot-38_ses-01","","500","0","gap",""," ","none","500","practice","","","","","","","","","","",""
"","","call-function","20","104609","0.0-5.0-15.0","pilot-38_ses-01","","","","set_stims","","","","","","","","","","","","","","","",""
"-1","-1","poldrack-single-stim","21","105095","0.0-5.0-16.0","pilot-38_ses-01","","500","0","fixation","","<div class = upperbox><div class = fixation>+</div></div><div class = lowerbox><div class = fixation>+</div></div>","none","500","practice","","","","","","","","","","",""
"-1","-1","poldrack-single-stim","22","105226","0.0-5.0-17.0","pilot-38_ses-01","","100","0","cue","","<div class = upperbox><div class = ""center-text"" >Amplitude</div></div><div class = lowerbox><div class = fixation>+</div></div>","none","100","practice","Amplitude","orange","9","magnitude","switch","switch","3","","","",""
"777","71","poldrack-categorize","23","107764","0.0-5.0-18.0","pilot-38_ses-01","","2000","0","stim","","<div class = upperbox><div class = ""center-text"" >Amplitude</div></div><div class = lowerbox><div class = ""stim-text"" style=color:orange;>9</div>","89,71","1000","practice","Amplitude","orange","9","magnitude","switch","switch","3","true","71","500",""
"-1","-1","poldrack-single-stim","24","108265","0.0-5.0-19.0","pilot-38_ses-01","","500","0","gap",""," ","none","500","practice","","","","","","","","","","",""
"","","call-function","25","108265","0.0-5.0-20.0","pilot-38_ses-01","","","","set_stims","","","","","","","","","","","","","","","",""
"-1","-1","poldrack-single-stim","26","108769","0.0-5.0-21.0","pilot-38_ses-01","","500","0","fixation","","<div class = upperbox><div class = fixation>+</div></div><div class = lowerbox><div class = fixation>+</div></div>","none","500","practice","","","","","","","","","","",""
"-1","-1","poldrack-single-stim","27","108892","0.0-5.0-22.0","pilot-38_ses-01","","100","0","cue","","<div class = upperbox><div class = ""center-text"" >Orange-Bleu</div></div><div class = lowerbox><div class = fixation>+</div></div>","none","100","practice","Orange-Bleu","#1F45FC","2","color","switch","switch","4","","","",""
"719","89","poldrack-categorize","28","111437","0.0-5.0-23.0","pilot-38_ses-01","","2000","0","stim","","<div class = upperbox><div class = ""center-text"" >Orange-Bleu</div></div><div class = lowerbox><div class = ""stim-text"" style=color:#1F45FC;>2</div>","89,71","1000","practice","Orange-Bleu","#1F45FC","2","color","switch","switch","4","true","89","500",""
"-1","-1","poldrack-single-stim","29","111923","0.0-5.0-24.0","pilot-38_ses-01","","500","0","gap",""," ","none","500","practice","","","","","","","","","","",""
"","","call-function","30","111923","0.0-5.0-25.0","pilot-38_ses-01","","","","set_stims","","","","","","","","","","","","","","","",""
"-1","-1","poldrack-single-stim","31","112440","0.0-5.0-26.0","pilot-38_ses-01","","500","0","fixation","","<div class = upperbox><div class = fixation>+</div></div><div class = lowerbox><div class = fixation>+</div></div>","none","500","practice","","","","","","","","","","",""
"-1","-1","poldrack-single-stim","32","112571","0.0-5.0-27.0","pilot-38_ses-01","","100","0","cue","","<div class = upperbox><div class = ""center-text"" >Couleur</div></div><div class = lowerbox><div class = fixation>+</div></div>","none","100","practice","Couleur","#1F45FC","7","color","stay","switch","5","","","",""
"505","89","poldrack-categorize","33","115123","0.0-5.0-28.0","pilot-38_ses-01","","2000","0","stim","","<div class = upperbox><div class = ""center-text"" >Couleur</div></div><div class = lowerbox><div class = ""stim-text"" style=color:#1F45FC;>7</div>","89,71","1000","practice","Couleur","#1F45FC","7","color","stay","switch","5","true","89","500",""
"-1","-1","poldrack-single-stim","34","115601","0.0-5.0-29.0","pilot-38_ses-01","","500","0","gap",""," ","none","500","practice","","","","","","","","","","",""
"","","call-function","35","115602","0.0-5.0-30.0","pilot-38_ses-01","","","","set_stims","","","","","","","","","","","","","","","",""
"-1","-1","poldrack-single-stim","36","116128","0.0-5.0-31.0","pilot-38_ses-01","","500","0","fixation","","<div class = upperbox><div class = fixation>+</div></div><div class = lowerbox><div class = fixation>+</div></div>","none","500","practice","","","","","","","","","","",""
"-1","-1","poldrack-single-stim","37","117046","0.0-5.0-32.0","pilot-38_ses-01","","900","0","cue","","<div class = upperbox><div class = ""center-text"" >Amplitude</div></div><div class = lowerbox><div class = fixation>+</div></div>","none","900","practice","Amplitude","orange","8","magnitude","switch","switch","6","","","",""
"619","71","poldrack-categorize","38","119590","0.0-5.0-33.0","pilot-38_ses-01","","2000","0","stim","","<div class = upperbox><div class = ""center-text"" >Amplitude</div></div><div class = lowerbox><div class = ""stim-text"" style=color:orange;>8</div>","89,71","1000","practice","Amplitude","orange","8","magnitude","switch","switch","6","true","71","500",""
"-1","-1","poldrack-single-stim","39","120094","0.0-5.0-34.0","pilot-38_ses-01","","500","0","gap",""," ","none","500","practice","","","","","","","","","","",""
"","","call-function","40","120094","0.0-5.0-35.0","pilot-38_ses-01","","","","set_stims","","","","","","","","","","","","","","","",""
"-1","-1","poldrack-single-stim","41","120595","0.0-5.0-36.0","pilot-38_ses-01","","500","0","fixation","","<div class = upperbox><div class = fixation>+</div></div><div class = lowerbox><div class = fixation>+</div></div>","none","500","practice","","","","","","","","","","",""
"-1","-1","poldrack-single-stim","42","121518","0.0-5.0-37.0","pilot-38_ses-01","","900","0","cue","","<div class = upperbox><div class = ""center-text"" >Couleur</div></div><div class = lowerbox><div class = fixation>+</div></div>","none","900","practice","Couleur","orange","9","color","switch","stay","7","","","",""
"508","71","poldrack-categorize","43","124049","0.0-5.0-38.0","pilot-38_ses-01","","2000","0","stim","","<div class = upperbox><div class = ""center-text"" >Couleur</div></div><div class = lowerbox><div class = ""stim-text"" style=color:orange;>9</div>","89,71","1000","practice","Couleur","orange","9","color","switch","stay","7","true","71","500",""
"-1","-1","poldrack-single-stim","44","124532","0.0-5.0-39.0","pilot-38_ses-01","","500","0","gap",""," ","none","500","practice","","","","","","","","","","",""
"","","call-function","45","124533","0.0-5.0-40.0","pilot-38_ses-01","","","","set_stims","","","","","","","","","","","","","","","",""
"-1","-1","poldrack-single-stim","46","125051","0.0-5.0-41.0","pilot-38_ses-01","","500","0","fixation","","<div class = upperbox><div class = fixation>+</div></div><div class = lowerbox><div class = fixation>+</div></div>","none","500","practice","","","","","","","","","","",""
"-1","-1","poldrack-single-stim","47","125980","0.0-5.0-42.0","pilot-38_ses-01","","900","0","cue","","<div class = upperbox><div class = ""center-text"" >Orange-Bleu</div></div><div class = lowerbox><div class = fixation>+</div></div>","none","900","practice","Orange-Bleu","#1F45FC","7","color","stay","switch","8","","","",""
"430","89","poldrack-categorize","48","128504","0.0-5.0-43.0","pilot-38_ses-01","","2000","0","stim","","<div class = upperbox><div class = ""center-text"" >Orange-Bleu</div></div><div class = lowerbox><div class = ""stim-text"" style=color:#1F45FC;>7</div>","89,71","1000","practice","Orange-Bleu","#1F45FC","7","color","stay","switch","8","true","89","500",""
"-1","-1","poldrack-single-stim","49","129025","0.0-5.0-44.0","pilot-38_ses-01","","500","0","gap",""," ","none","500","practice","","","","","","","","","","",""
"","","call-function","50","129025","0.0-5.0-45.0","pilot-38_ses-01","","","","set_stims","","","","","","","","","","","","","","","",""
"-1","-1","poldrack-single-stim","51","129528","0.0-5.0-46.0","pilot-38_ses-01","","500","0","fixation","","<div class = upperbox><div class = fixation>+</div></div><div class = lowerbox><div class = fixation>+</div></div>","none","500","practice","","","","","","","","","","",""
"-1","-1","poldrack-single-stim","52","129659","0.0-5.0-47.0","pilot-38_ses-01","","100","0","cue","","<div class = upperbox><div class = ""center-text"" >Couleur</div></div><div class = lowerbox><div class = fixation>+</div></div>","none","100","practice","Couleur","orange","2","color","stay","switch","9","","","",""
"839","71","poldrack-categorize","53","132205","0.0-5.0-48.0","pilot-38_ses-01","","2000","0","stim","","<div class = upperbox><div class = ""center-text"" >Couleur</div></div><div class = lowerbox><div class = ""stim-text"" style=color:orange;>2</div>","89,71","1000","practice","Couleur","orange","2","color","stay","switch","9","true","71","500",""
"-1","-1","poldrack-single-stim","54","132707","0.0-5.0-49.0","pilot-38_ses-01","","500","0","gap",""," ","none","500","practice","","","","","","","","","","",""
"","","call-function","55","132708","0.0-5.0-50.0","pilot-38_ses-01","","","","set_stims","","","","","","","","","","","","","","","",""
"-1","-1","poldrack-single-stim","56","133189","0.0-5.0-51.0","pilot-38_ses-01","","500","0","fixation","","<div class = upperbox><div class = fixation>+</div></div><div class = lowerbox><div class = fixation>+</div></div>","none","500","practice","","","","","","","","","","",""
"-1","-1","poldrack-single-stim","57","133311","0.0-5.0-52.0","pilot-38_ses-01","","100","0","cue","","<div class = upperbox><div class = ""center-text"" >Couleur</div></div><div class = lowerbox><div class = fixation>+</div></div>","none","100","practice","Couleur","#1F45FC","6","color","stay","stay","10","","","",""
"642","89","poldrack-categorize","58","135853","0.0-5.0-53.0","pilot-38_ses-01","","2000","0","stim","","<div class = upperbox><div class = ""center-text"" >Couleur</div></div><div class = lowerbox><div class = ""stim-text"" style=color:#1F45FC;>6</div>","89,71","1000","practice","Couleur","#1F45FC","6","color","stay","stay","10","true","89","500",""
"-1","-1","poldrack-single-stim","59","136337","0.0-5.0-54.0","pilot-38_ses-01","","500","0","gap",""," ","none","500","practice","","","","","","","","","","",""
"","","call-function","60","136337","0.0-5.0-55.0","pilot-38_ses-01","","","","set_stims","","","","","","","","","","","","","","","",""
"-1","-1","poldrack-single-stim","61","136860","0.0-5.0-56.0","pilot-38_ses-01","","500","0","fixation","","<div class = upperbox><div class = fixation>+</div></div><div class = lowerbox><div class = fixation>+</div></div>","none","500","practice","","","","","","","","","","",""
"-1","-1","poldrack-single-stim","62","136989","0.0-5.0-57.0","pilot-38_ses-01","","100","0","cue","","<div class = upperbox><div class = ""center-text"" >Haut-Bas</div></div><div class = lowerbox><div class = fixation>+</div></div>","none","100","practice","Haut-Bas","orange","4","magnitude","switch","stay","11","","","",""
"-1","-1","poldrack-categorize","63","139539","0.0-5.0-58.0","pilot-38_ses-01","","2000","0","stim","","<div class = upperbox><div class = ""center-text"" >Haut-Bas</div></div><div class = lowerbox><div class = ""stim-text"" style=color:orange;>4</div>","89,71","1000","practice","Haut-Bas","orange","4","magnitude","switch","stay","11","false","89","500",""
"-1","-1","poldrack-single-stim","64","140041","0.0-5.0-59.0","pilot-38_ses-01","","500","0","gap",""," ","none","500","practice","","","","","","","","","","",""
"","","call-function","65","140043","0.0-5.0-60.0","pilot-38_ses-01","","","","set_stims","","","","","","","","","","","","","","","",""
"-1","-1","poldrack-single-stim","66","140522","0.0-5.0-61.0","pilot-38_ses-01","","500","0","fixation","","<div class = upperbox><div class = fixation>+</div></div><div class = lowerbox><div class = fixation>+</div></div>","none","500","practice","","","","","","","","","","",""
"-1","-1","poldrack-single-stim","67","141457","0.0-5.0-62.0","pilot-38_ses-01","","900","0","cue","","<div class = upperbox><div class = ""center-text"" >Haut-Bas</div></div><div class = lowerbox><div class = fixation>+</div></div>","none","900","practice","Haut-Bas","#1F45FC","4","magnitude","stay","stay","12","","","",""
"538","89","poldrack-categorize","68","143990","0.0-5.0-63.0","pilot-38_ses-01","","2000","0","stim","","<div class = upperbox><div class = ""center-text"" >Haut-Bas</div></div><div class = lowerbox><div class = ""stim-text"" style=color:#1F45FC;>4</div>","89,71","1000","practice","Haut-Bas","#1F45FC","4","magnitude","stay","stay","12","true","89","500",""
"-1","-1","poldrack-single-stim","69","144491","0.0-5.0-64.0","pilot-38_ses-01","","500","0","gap",""," ","none","500","practice","","","","","","","","","","",""
"","","call-function","70","144491","0.0-5.0-65.0","pilot-38_ses-01","","","","set_stims","","","","","","","","","","","","","","","",""
"-1","-1","poldrack-single-stim","71","144992","0.0-5.0-66.0","pilot-38_ses-01","","500","0","fixation","","<div class = upperbox><div class = fixation>+</div></div><div class = lowerbox><div class = fixation>+</div></div>","none","500","practice","","","","","","","","","","",""
"-1","-1","poldrack-single-stim","72","145912","0.0-5.0-67.0","pilot-38_ses-01","","900","0","cue","","<div class = upperbox><div class = ""center-text"" >Amplitude</div></div><div class = lowerbox><div class = fixation>+</div></div>","none","900","practice","Amplitude","orange","2","magnitude","stay","switch","13","","","",""
"516","89","poldrack-categorize","73","148444","0.0-5.0-68.0","pilot-38_ses-01","","2000","0","stim","","<div class = upperbox><div class = ""center-text"" >Amplitude</div></div><div class = lowerbox><div class = ""stim-text"" style=color:orange;>2</div>","89,71","1000","practice","Amplitude","orange","2","magnitude","stay","switch","13","true","89","500",""
"-1","-1","poldrack-single-stim","74","148944","0.0-5.0-69.0","pilot-38_ses-01","","500","0","gap",""," ","none","500","practice","","","","","","","","","","",""
"","","call-function","75","148944","0.0-5.0-70.0","pilot-38_ses-01","","","","set_stims","","","","","","","","","","","","","","","",""
"-1","-1","poldrack-single-stim","76","149446","0.0-5.0-71.0","pilot-38_ses-01","","500","0","fixation","","<div class = upperbox><div class = fixation>+</div></div><div class = lowerbox><div class = fixation>+</div></div>","none","500","practice","","","","","","","","","","",""
"-1","-1","poldrack-single-stim","77","149585","0.0-5.0-72.0","pilot-38_ses-01","","100","0","cue","","<div class = upperbox><div class = ""center-text"" >Amplitude</div></div><div class = lowerbox><div class = fixation>+</div></div>","none","100","practice","Amplitude","orange","3","magnitude","stay","stay","14","","","",""
"919","89","poldrack-categorize","78","152126","0.0-5.0-73.0","pilot-38_ses-01","","2000","0","stim","","<div class = upperbox><div class = ""center-text"" >Amplitude</div></div><div class = lowerbox><div class = ""stim-text"" style=color:orange;>3</div>","89,71","1000","practice","Amplitude","orange","3","magnitude","stay","stay","14","true","89","500",""
"-1","-1","poldrack-single-stim","79","152615","0.0-5.0-74.0","pilot-38_ses-01","","500","0","gap",""," ","none","500","practice","","","","","","","","","","",""
"","","call-function","80","152615","0.0-5.0-75.0","pilot-38_ses-01","","","","set_stims","","","","","","","","","","","","","","","",""
"-1","-1","poldrack-single-stim","81","153115","0.0-5.0-76.0","pilot-38_ses-01","","500","0","fixation","","<div class = upperbox><div class = fixation>+</div></div><div class = lowerbox><div class = fixation>+</div></div>","none","500","practice","","","","","","","","","","",""
"-1","-1","poldrack-single-stim","82","154025","0.0-5.0-77.0","pilot-38_ses-01","","900","0","cue","","<div class = upperbox><div class = ""center-text"" >Amplitude</div></div><div class = lowerbox><div class = fixation>+</div></div>","none","900","practice","Amplitude","orange","1","magnitude","stay","stay","15","","","",""
"565","89","poldrack-categorize","83","156578","0.0-5.0-78.0","pilot-38_ses-01","","2000","0","stim","","<div class = upperbox><div class = ""center-text"" >Amplitude</div></div><div class = lowerbox><div class = ""stim-text"" style=color:orange;>1</div>","89,71","1000","practice","Amplitude","orange","1","magnitude","stay","stay","15","true","89","500",""
"-1","-1","poldrack-single-stim","84","157064","0.0-5.0-79.0","pilot-38_ses-01","","500","0","gap",""," ","none","500","practice","","","","","","","","","","",""
"5072","32","poldrack-text","85","162141","0.0-6.0","pilot-38_ses-01","<div class = centerbox><div  class = center-text>Scanner Setup</div></div>","5072","0","fmri_scanner_wait","","","","","","","","","","","","","","","",""
"58193","84","poldrack-text","86","220337","0.0-7.0","pilot-38_ses-01","<div class = centerbox><div style='color:red'; class = center-text>+</div></div>","58193","0","fmri_trigger_wait","","","","","","","","","","","","","","","",""
"-1","-1","poldrack-single-stim","87","221362","0.0-8.0","pilot-38_ses-01","","1000","0","fmri_buffer","","","none","1000","","","","","","","","","","","",""
"-1","-1","poldrack-single-stim","88","222882","0.0-9.0","pilot-38_ses-01","","1500","500","test_start_block","","<div class = centerbox><div class = center-text>Preparez-vous!</p></div>","none","1500","","","","","","","","","","","",""
"-1","-1","poldrack-single-stim","89","223903","0.0-10.0","pilot-38_ses-01","","500","0","fixation","","<div class = upperbox><div class = fixation>+</div></div><div class = lowerbox><div class = fixation>+</div></div>","none","500","test","","","","","","","","","","",""
"","","call-function","90","223903","0.0-11.0","pilot-38_ses-01","","","","set_stims","","","","","","","","","","","","","","","",""
"-1","-1","poldrack-single-stim","91","224820","0.0-12.0","pilot-38_ses-01","","900","0","cue","","<div class = upperbox><div class = ""center-text"" >Couleur</div></div><div class = lowerbox><div class = fixation>+</div></div>","none","900","test","Couleur","#1F45FC","3","color","stay","stay","0","","","",""
"637","89","poldrack-single-stim","92","228080","0.0-13.0","pilot-38_ses-01","","3224","0","stim","","<div class = upperbox><div class = ""center-text"" >Couleur</div></div><div class = lowerbox><div class = ""stim-text"" style=color:#1F45FC;>3</div>","89,71","1000","test","Couleur","#1F45FC","3","color","stay","stay","0","true","89","",""
"","","call-function","93","228081","0.0-14.0","pilot-38_ses-01","","","","set_stims","","","","","","","","","","","","","","","",""
"-1","-1","poldrack-single-stim","94","228210","0.0-15.0","pilot-38_ses-01","","100","0","cue","","<div class = upperbox><div class = ""center-text"" >Amplitude</div></div><div class = lowerbox><div class = fixation>+</div></div>","none","100","test","Amplitude","orange","7","magnitude","switch","switch","1","","","",""
"694","71","poldrack-single-stim","95","230636","0.0-16.0","pilot-38_ses-01","","2408","0","stim","","<div class = upperbox><div class = ""center-text"" >Amplitude</div></div><div class = lowerbox><div class = ""stim-text"" style=color:orange;>7</div>","89,71","1000","test","Amplitude","orange","7","magnitude","switch","switch","1","true","71","",""
"","","call-function","96","230636","0.0-17.0","pilot-38_ses-01","","","","set_stims","","","","","","","","","","","","","","","",""
"-1","-1","poldrack-single-stim","97","231569","0.0-18.0","pilot-38_ses-01","","900","0","cue","","<div class = upperbox><div class = ""center-text"" >Orange-Bleu</div></div><div class = lowerbox><div class = fixation>+</div></div>","none","900","test","Orange-Bleu","orange","9","color","switch","switch","2","","","",""
"547","71","poldrack-single-stim","98","234403","0.0-19.0","pilot-38_ses-01","","2816","0","stim","","<div class = upperbox><div class = ""center-text"" >Orange-Bleu</div></div><div class = lowerbox><div class = ""stim-text"" style=color:orange;>9</div>","89,71","1000","test","Orange-Bleu","orange","9","color","switch","switch","2","true","71","",""
"","","call-function","99","234403","0.0-20.0","pilot-38_ses-01","","","","set_stims","","","","","","","","","","","","","","","",""
"-1","-1","poldrack-single-stim","100","235326","0.0-21.0","pilot-38_ses-01","","900","0","cue","","<div class = upperbox><div class = ""center-text"" >Haut-Bas</div></div><div class = lowerbox><div class = fixation>+</div></div>","none","900","test","Haut-Bas","orange","9","magnitude","switch","switch","3","","","",""
"522","71","poldrack-single-stim","101","237748","0.0-22.0","pilot-38_ses-01","","2408","0","stim","","<div class = upperbox><div class = ""center-text"" >Haut-Bas</div></div><div class = lowerbox><div class = ""stim-text"" style=color:orange;>9</div>","89,71","1000","test","Haut-Bas","orange","9","magnitude","switch","switch","3","true","71","",""
"","","call-function","102","237749","0.0-23.0","pilot-38_ses-01","","","","set_stims","","","","","","","","","","","","","","","",""
"-1","-1","poldrack-single-stim","103","237879","0.0-24.0","pilot-38_ses-01","","100","0","cue","","<div class = upperbox><div class = ""center-text"" >Orange-Bleu</div></div><div class = lowerbox><div class = fixation>+</div></div>","none","100","test","Orange-Bleu","#1F45FC","2","color","switch","stay","4","","","",""
"1038","71","poldrack-single-stim","104","240036","0.0-25.0","pilot-38_ses-01","","2136","0","stim","","<div class = upperbox><div class = ""center-text"" >Orange-Bleu</div></div><div class = lowerbox><div class = ""stim-text"" style=color:#1F45FC;>2</div>","89,71","1000","test","Orange-Bleu","#1F45FC","2","color","switch","stay","4","false","89","",""
"","","call-function","105","240036","0.0-26.0","pilot-38_ses-01","","","","set_stims","","","","","","","","","","","","","","","",""
"-1","-1","poldrack-single-stim","106","240957","0.0-27.0","pilot-38_ses-01","","900","0","cue","","<div class = upperbox><div class = ""center-text"" >Orange-Bleu</div></div><div class = lowerbox><div class = fixation>+</div></div>","none","900","test","Orange-Bleu","#1F45FC","7","color","stay","stay","5","","","",""
"530","89","poldrack-single-stim","107","243115","0.0-28.0","pilot-38_ses-01","","2136","0","stim","","<div class = upperbox><div class = ""center-text"" >Orange-Bleu</div></div><div class = lowerbox><div class = ""stim-text"" style=color:#1F45FC;>7</div>","89,71","1000","test","Orange-Bleu","#1F45FC","7","color","stay","stay","5","true","89","",""
"","","call-function","108","243115","0.0-29.0","pilot-38_ses-01","","","","set_stims","","","","","","","","","","","","","","","",""
"-1","-1","poldrack-single-stim","109","244034","0.0-30.0","pilot-38_ses-01","","900","0","cue","","<div class = upperbox><div class = ""center-text"" >Couleur</div></div><div class = lowerbox><div class = fixation>+</div></div>","none","900","test","Couleur","orange","8","color","stay","switch","6","","","",""
"689","71","poldrack-single-stim","110","246063","0.0-31.0","pilot-38_ses-01","","2000","0","stim","","<div class = upperbox><div class = ""center-text"" >Couleur</div></div><div class = lowerbox><div class = ""stim-text"" style=color:orange;>8</div>","89,71","1000","test","Couleur","orange","8","color","stay","switch","6","true","71","",""
"","","call-function","111","246063","0.0-32.0","pilot-38_ses-01","","","","set_stims","","","","","","","","","","","","","","","",""
"-1","-1","poldrack-single-stim","112","246980","0.0-33.0","pilot-38_ses-01","","900","0","cue","","<div class = upperbox><div class = ""center-text"" >Orange-Bleu</div></div><div class = lowerbox><div class = fixation>+</div></div>","none","900","test","Orange-Bleu","orange","9","color","stay","switch","7","","","",""
"703","71","poldrack-single-stim","113","249001","0.0-34.0","pilot-38_ses-01","","2000","0","stim","","<div class = upperbox><div class = ""center-text"" >Orange-Bleu</div></div><div class = lowerbox><div class = ""stim-text"" style=color:orange;>9</div>","89,71","1000","test","Orange-Bleu","orange","9","color","stay","switch","7","true","71","",""
"","","call-function","114","249002","0.0-35.0","pilot-38_ses-01","","","","set_stims","","","","","","","","","","","","","","","",""
"-1","-1","poldrack-single-stim","115","249918","0.0-36.0","pilot-38_ses-01","","900","0","cue","","<div class = upperbox><div class = ""center-text"" >Amplitude</div></div><div class = lowerbox><div class = fixation>+</div></div>","none","900","test","Amplitude","#1F45FC","7","magnitude","switch","switch","8","","","",""
"524","71","poldrack-single-stim","116","252212","0.0-37.0","pilot-38_ses-01","","2272","0","stim","","<div class = upperbox><div class = ""center-text"" >Amplitude</div></div><div class = lowerbox><div class = ""stim-text"" style=color:#1F45FC;>7</div>","89,71","1000","test","Amplitude","#1F45FC","7","magnitude","switch","switch","8","true","71","",""
"","","call-function","117","252212","0.0-38.0","pilot-38_ses-01","","","","set_stims","","","","","","","","","","","","","","","",""
"-1","-1","poldrack-single-stim","118","252346","0.0-39.0","pilot-38_ses-01","","100","0","cue","","<div class = upperbox><div class = ""center-text"" >Orange-Bleu</div></div><div class = lowerbox><div class = fixation>+</div></div>","none","100","test","Orange-Bleu","orange","2","color","switch","switch","9","","","",""
"1318","71","poldrack-single-stim","119","254774","0.0-40.0","pilot-38_ses-01","","2408","0","stim","","<div class = upperbox><div class = ""center-text"" >Orange-Bleu</div></div><div class = lowerbox><div class = ""stim-text"" style=color:orange;>2</div>","89,71","1000","test","Orange-Bleu","orange","2","color","switch","switch","9","true","71","",""
"","","call-function","120","254774","0.0-41.0","pilot-38_ses-01","","","","set_stims","","","","","","","","","","","","","","","",""
"-1","-1","poldrack-single-stim","121","255699","0.0-42.0","pilot-38_ses-01","","900","0","cue","","<div class = upperbox><div class = ""center-text"" >Haut-Bas</div></div><div class = lowerbox><div class = fixation>+</div></div>","none","900","test","Haut-Bas","#1F45FC","6","magnitude","switch","switch","10","","","",""
"649","71","poldrack-single-stim","122","257710","0.0-43.0","pilot-38_ses-01","","2000","0","stim","","<div class = upperbox><div class = ""center-text"" >Haut-Bas</div></div><div class = lowerbox><div class = ""stim-text"" style=color:#1F45FC;>6</div>","89,71","1000","test","Haut-Bas","#1F45FC","6","magnitude","switch","switch","10","true","71","",""
"","","call-function","123","257711","0.0-44.0","pilot-38_ses-01","","","","set_stims","","","","","","","","","","","","","","","",""
"-1","-1","poldrack-single-stim","124","257829","0.0-45.0","pilot-38_ses-01","","100","0","cue","","<div class = upperbox><div class = ""center-text"" >Amplitude</div></div><div class = lowerbox><div class = fixation>+</div></div>","none","100","test","Amplitude","orange","4","magnitude","stay","switch","11","","","",""
"616","89","poldrack-single-stim","125","259981","0.0-46.0","pilot-38_ses-01","","2136","0","stim","","<div class = upperbox><div class = ""center-text"" >Amplitude</div></div><div class = lowerbox><div class = ""stim-text"" style=color:orange;>4</div>","89,71","1000","test","Amplitude","orange","4","magnitude","stay","switch","11","true","89","",""
"","","call-function","126","259982","0.0-47.0","pilot-38_ses-01","","","","set_stims","","","","","","","","","","","","","","","",""
"-1","-1","poldrack-single-stim","127","260900","0.0-48.0","pilot-38_ses-01","","900","0","cue","","<div class = upperbox><div class = ""center-text"" >Orange-Bleu</div></div><div class = lowerbox><div class = fixation>+</div></div>","none","900","test","Orange-Bleu","#1F45FC","4","color","switch","switch","12","","","",""
"576","89","poldrack-single-stim","128","262908","0.0-49.0","pilot-38_ses-01","","2000","0","stim","","<div class = upperbox><div class = ""center-text"" >Orange-Bleu</div></div><div class = lowerbox><div class = ""stim-text"" style=color:#1F45FC;>4</div>","89,71","1000","test","Orange-Bleu","#1F45FC","4","color","switch","switch","12","true","89","",""
"","","call-function","129","262908","0.0-50.0","pilot-38_ses-01","","","","set_stims","","","","","","","","","","","","","","","",""
"-1","-1","poldrack-single-stim","130","263834","0.0-51.0","pilot-38_ses-01","","900","0","cue","","<div class = upperbox><div class = ""center-text"" >Amplitude</div></div><div class = lowerbox><div class = fixation>+</div></div>","none","900","test","Amplitude","orange","2","magnitude","switch","stay","13","","","",""
"762","71","poldrack-single-stim","131","266248","0.0-52.0","pilot-38_ses-01","","2408","0","stim","","<div class = upperbox><div class = ""center-text"" >Amplitude</div></div><div class = lowerbox><div class = ""stim-text"" style=color:orange;>2</div>","89,71","1000","test","Amplitude","orange","2","magnitude","switch","stay","13","false","89","",""
"","","call-function","132","266248","0.0-53.0","pilot-38_ses-01","","","","set_stims","","","","","","","","","","","","","","","",""
"-1","-1","poldrack-single-stim","133","266379","0.0-54.0","pilot-38_ses-01","","100","0","cue","","<div class = upperbox><div class = ""center-text"" >Haut-Bas</div></div><div class = lowerbox><div class = fixation>+</div></div>","none","100","test","Haut-Bas","orange","3","magnitude","stay","switch","14","","","",""
"754","89","poldrack-single-stim","134","268664","0.0-55.0","pilot-38_ses-01","","2272","0","stim","","<div class = upperbox><div class = ""center-text"" >Haut-Bas</div></div><div class = lowerbox><div class = ""stim-text"" style=color:orange;>3</div>","89,71","1000","test","Haut-Bas","orange","3","magnitude","stay","switch","14","true","89","",""
"","","call-function","135","268665","0.0-56.0","pilot-38_ses-01","","","","set_stims","","","","","","","","","","","","","","","",""
"-1","-1","poldrack-single-stim","136","268782","0.0-57.0","pilot-38_ses-01","","100","0","cue","","<div class = upperbox><div class = ""center-text"" >Orange-Bleu</div></div><div class = lowerbox><div class = fixation>+</div></div>","none","100","test","Orange-Bleu","orange","1","color","switch","switch","15","","","",""
"792","71","poldrack-single-stim","137","270789","0.0-58.0","pilot-38_ses-01","","2000","0","stim","","<div class = upperbox><div class = ""center-text"" >Orange-Bleu</div></div><div class = lowerbox><div class = ""stim-text"" style=color:orange;>1</div>","89,71","1000","test","Orange-Bleu","orange","1","color","switch","switch","15","true","71","",""
"","","call-function","138","270790","0.0-59.0","pilot-38_ses-01","","","","set_stims","","","","","","","","","","","","","","","",""
"-1","-1","poldrack-single-stim","139","271711","0.0-60.0","pilot-38_ses-01","","900","0","cue","","<div class = upperbox><div class = ""center-text"" >Couleur</div></div><div class = lowerbox><div class = fixation>+</div></div>","none","900","test","Couleur","orange","6","color","stay","switch","16","","","",""
"779","71","poldrack-single-stim","140","274000","0.0-61.0","pilot-38_ses-01","","2272","0","stim","","<div class = upperbox><div class = ""center-text"" >Couleur</div></div><div class = lowerbox><div class = ""stim-text"" style=color:orange;>6</div>","89,71","1000","test","Couleur","orange","6","color","stay","switch","16","true","71","",""
"","","call-function","141","274002","0.0-62.0","pilot-38_ses-01","","","","set_stims","","","","","","","","","","","","","","","",""
"-1","-1","poldrack-single-stim","142","274919","0.0-63.0","pilot-38_ses-01","","900","0","cue","","<div class = upperbox><div class = ""center-text"" >Haut-Bas</div></div><div class = lowerbox><div class = fixation>+</div></div>","none","900","test","Haut-Bas","#1F45FC","4","magnitude","switch","stay","17","","","",""
"505","89","poldrack-single-stim","143","276933","0.0-64.0","pilot-38_ses-01","","2000","0","stim","","<div class = upperbox><div class = ""center-text"" >Haut-Bas</div></div><div class = lowerbox><div class = ""stim-text"" style=color:#1F45FC;>4</div>","89,71","1000","test","Haut-Bas","#1F45FC","4","magnitude","switch","stay","17","true","89","",""
"","","call-function","144","276934","0.0-65.0","pilot-38_ses-01","","","","set_stims","","","","","","","","","","","","","","","",""
"-1","-1","poldrack-single-stim","145","277064","0.0-66.0","pilot-38_ses-01","","100","0","cue","","<div class = upperbox><div class = ""center-text"" >Couleur</div></div><div class = lowerbox><div class = fixation>+</div></div>","none","100","test","Couleur","#1F45FC","7","color","switch","stay","18","","","",""
"826","89","poldrack-single-stim","146","279084","0.0-67.0","pilot-38_ses-01","","2000","0","stim","","<div class = upperbox><div class = ""center-text"" >Couleur</div></div><div class = lowerbox><div class = ""stim-text"" style=color:#1F45FC;>7</div>","89,71","1000","test","Couleur","#1F45FC","7","color","switch","stay","18","true","89","",""
"","","call-function","147","279085","0.0-68.0","pilot-38_ses-01","","","","set_stims","","","","","","","","","","","","","","","",""
"-1","-1","poldrack-single-stim","148","279996","0.0-69.0","pilot-38_ses-01","","900","0","cue","","<div class = upperbox><div class = ""center-text"" >Couleur</div></div><div class = lowerbox><div class = fixation>+</div></div>","none","900","test","Couleur","orange","3","color","stay","stay","19","","","",""
"833","71","poldrack-single-stim","149","282285","0.0-70.0","pilot-38_ses-01","","2272","0","stim","","<div class = upperbox><div class = ""center-text"" >Couleur</div></div><div class = lowerbox><div class = ""stim-text"" style=color:orange;>3</div>","89,71","1000","test","Couleur","orange","3","color","stay","stay","19","true","71","",""
"","","call-function","150","282286","0.0-71.0","pilot-38_ses-01","","","","set_stims","","","","","","","","","","","","","","","",""
"-1","-1","poldrack-single-stim","151","282415","0.0-72.0","pilot-38_ses-01","","100","0","cue","","<div class = upperbox><div class = ""center-text"" >Amplitude</div></div><div class = lowerbox><div class = fixation>+</div></div>","none","100","test","Amplitude","#1F45FC","9","magnitude","switch","stay","20","","","",""
"1149","71","poldrack-single-stim","152","284561","0.0-73.0","pilot-38_ses-01","","2136","0","stim","","<div class = upperbox><div class = ""center-text"" >Amplitude</div></div><div class = lowerbox><div class = ""stim-text"" style=color:#1F45FC;>9</div>","89,71","1000","test","Amplitude","#1F45FC","9","magnitude","switch","stay","20","true","71","",""
"","","call-function","153","284562","0.0-74.0","pilot-38_ses-01","","","","set_stims","","","","","","","","","","","","","","","",""
"-1","-1","poldrack-single-stim","154","284692","0.0-75.0","pilot-38_ses-01","","100","0","cue","","<div class = upperbox><div class = ""center-text"" >Orange-Bleu</div></div><div class = lowerbox><div class = fixation>+</div></div>","none","100","test","Orange-Bleu","#1F45FC","7","color","switch","switch","21","","","",""
"1055","89","poldrack-single-stim","155","286705","0.0-76.0","pilot-38_ses-01","","2000","0","stim","","<div class = upperbox><div class = ""center-text"" >Orange-Bleu</div></div><div class = lowerbox><div class = ""stim-text"" style=color:#1F45FC;>7</div>","89,71","1000","test","Orange-Bleu","#1F45FC","7","color","switch","switch","21","true","89","",""
"","","call-function","156","286707","0.0-77.0","pilot-38_ses-01","","","","set_stims","","","","","","","","","","","","","","","",""
"-1","-1","poldrack-single-stim","157","287630","0.0-78.0","pilot-38_ses-01","","900","0","cue","","<div class = upperbox><div class = ""center-text"" >Orange-Bleu</div></div><div class = lowerbox><div class = fixation>+</div></div>","none","900","test","Orange-Bleu","orange","8","color","stay","stay","22","","","",""
"703","71","poldrack-single-stim","158","289670","0.0-79.0","pilot-38_ses-01","","2000","0","stim","","<div class = upperbox><div class = ""center-text"" >Orange-Bleu</div></div><div class = lowerbox><div class = ""stim-text"" style=color:orange;>8</div>","89,71","1000","test","Orange-Bleu","orange","8","color","stay","stay","22","true","71","",""
"","","call-function","159","289670","0.0-80.0","pilot-38_ses-01","","","","set_stims","","","","","","","","","","","","","","","",""
"-1","-1","poldrack-single-stim","160","289802","0.0-81.0","pilot-38_ses-01","","100","0","cue","","<div class = upperbox><div class = ""center-text"" >Amplitude</div></div><div class = lowerbox><div class = fixation>+</div></div>","none","100","test","Amplitude","#1F45FC","2","magnitude","switch","stay","23","","","",""
"1119","89","poldrack-single-stim","161","291825","0.0-82.0","pilot-38_ses-01","","2000","0","stim","","<div class = upperbox><div class = ""center-text"" >Amplitude</div></div><div class = lowerbox><div class = ""stim-text"" style=color:#1F45FC;>2</div>","89,71","1000","test","Amplitude","#1F45FC","2","magnitude","switch","stay","23","true","89","",""
"","","call-function","162","291825","0.0-83.0","pilot-38_ses-01","","","","set_stims","","","","","","","","","","","","","","","",""
"-1","-1","poldrack-single-stim","163","292742","0.0-84.0","pilot-38_ses-01","","900","0","cue","","<div class = upperbox><div class = ""center-text"" >Haut-Bas</div></div><div class = lowerbox><div class = fixation>+</div></div>","none","900","test","Haut-Bas","orange","8","magnitude","stay","switch","24","","","",""
"529","71","poldrack-single-stim","164","294751","0.0-85.0","pilot-38_ses-01","","2000","0","stim","","<div class = upperbox><div class = ""center-text"" >Haut-Bas</div></div><div class = lowerbox><div class = ""stim-text"" style=color:orange;>8</div>","89,71","1000","test","Haut-Bas","orange","8","magnitude","stay","switch","24","true","71","",""
"","","call-function","165","294752","0.0-86.0","pilot-38_ses-01","","","","set_stims","","","","","","","","","","","","","","","",""
"-1","-1","poldrack-single-stim","166","295669","0.0-87.0","pilot-38_ses-01","","900","0","cue","","<div class = upperbox><div class = ""center-text"" >Haut-Bas</div></div><div class = lowerbox><div class = fixation>+</div></div>","none","900","test","Haut-Bas","orange","3","magnitude","stay","stay","25","","","",""
"636","89","poldrack-single-stim","167","297685","0.0-88.0","pilot-38_ses-01","","2000","0","stim","","<div class = upperbox><div class = ""center-text"" >Haut-Bas</div></div><div class = lowerbox><div class = ""stim-text"" style=color:orange;>3</div>","89,71","1000","test","Haut-Bas","orange","3","magnitude","stay","stay","25","true","89","",""
"","","call-function","168","297686","0.0-89.0","pilot-38_ses-01","","","","set_stims","","","","","","","","","","","","","","","",""
"-1","-1","poldrack-single-stim","169","297808","0.0-90.0","pilot-38_ses-01","","100","0","cue","","<div class = upperbox><div class = ""center-text"" >Couleur</div></div><div class = lowerbox><div class = fixation>+</div></div>","none","100","test","Couleur","orange","2","color","switch","switch","26","","","",""
"1055","71","poldrack-single-stim","170","299960","0.0-91.0","pilot-38_ses-01","","2136","0","stim","","<div class = upperbox><div class = ""center-text"" >Couleur</div></div><div class = lowerbox><div class = ""stim-text"" style=color:orange;>2</div>","89,71","1000","test","Couleur","orange","2","color","switch","switch","26","true","71","",""
"","","call-function","171","299961","0.0-92.0","pilot-38_ses-01","","","","set_stims","","","","","","","","","","","","","","","",""
"-1","-1","poldrack-single-stim","172","300883","0.0-93.0","pilot-38_ses-01","","900","0","cue","","<div class = upperbox><div class = ""center-text"" >Couleur</div></div><div class = lowerbox><div class = fixation>+</div></div>","none","900","test","Couleur","#1F45FC","4","color","stay","stay","27","","","",""
"949","89","poldrack-single-stim","173","302912","0.0-94.0","pilot-38_ses-01","","2000","0","stim","","<div class = upperbox><div class = ""center-text"" >Couleur</div></div><div class = lowerbox><div class = ""stim-text"" style=color:#1F45FC;>4</div>","89,71","1000","test","Couleur","#1F45FC","4","color","stay","stay","27","true","89","",""
"","","call-function","174","302913","0.0-95.0","pilot-38_ses-01","","","","set_stims","","","","","","","","","","","","","","","",""
"-1","-1","poldrack-single-stim","175","303825","0.0-96.0","pilot-38_ses-01","","900","0","cue","","<div class = upperbox><div class = ""center-text"" >Amplitude</div></div><div class = lowerbox><div class = fixation>+</div></div>","none","900","test","Amplitude","orange","4","magnitude","switch","stay","28","","","",""
"544","89","poldrack-single-stim","176","305850","0.0-97.0","pilot-38_ses-01","","2000","0","stim","","<div class = upperbox><div class = ""center-text"" >Amplitude</div></div><div class = lowerbox><div class = ""stim-text"" style=color:orange;>4</div>","89,71","1000","test","Amplitude","orange","4","magnitude","switch","stay","28","true","89","",""
"","","call-function","177","305850","0.0-98.0","pilot-38_ses-01","","","","set_stims","","","","","","","","","","","","","","","",""
"-1","-1","poldrack-single-stim","178","305967","0.0-99.0","pilot-38_ses-01","","100","0","cue","","<div class = upperbox><div class = ""center-text"" >Haut-Bas</div></div><div class = lowerbox><div class = fixation>+</div></div>","none","100","test","Haut-Bas","#1F45FC","1","magnitude","stay","switch","29","","","",""
"749","89","poldrack-single-stim","179","308109","0.0-100.0","pilot-38_ses-01","","2136","0","stim","","<div class = upperbox><div class = ""center-text"" >Haut-Bas</div></div><div class = lowerbox><div class = ""stim-text"" style=color:#1F45FC;>1</div>","89,71","1000","test","Haut-Bas","#1F45FC","1","magnitude","stay","switch","29","true","89","",""
"","","call-function","180","308109","0.0-101.0","pilot-38_ses-01","","","","set_stims","","","","","","","","","","","","","","","",""
"-1","-1","poldrack-single-stim","181","308240","0.0-102.0","pilot-38_ses-01","","100","0","cue","","<div class = upperbox><div class = ""center-text"" >Amplitude</div></div><div class = lowerbox><div class = fixation>+</div></div>","none","100","test","Amplitude","#1F45FC","8","magnitude","stay","switch","30","","","",""
"814","71","poldrack-single-stim","182","310269","0.0-103.0","pilot-38_ses-01","","2000","0","stim","","<div class = upperbox><div class = ""center-text"" >Amplitude</div></div><div class = lowerbox><div class = ""stim-text"" style=color:#1F45FC;>8</div>","89,71","1000","test","Amplitude","#1F45FC","8","magnitude","stay","switch","30","true","71","",""
"","","call-function","183","310270","0.0-104.0","pilot-38_ses-01","","","","set_stims","","","","","","","","","","","","","","","",""
"-1","-1","poldrack-single-stim","184","310400","0.0-105.0","pilot-38_ses-01","","100","0","cue","","<div class = upperbox><div class = ""center-text"" >Orange-Bleu</div></div><div class = lowerbox><div class = fixation>+</div></div>","none","100","test","Orange-Bleu","orange","9","color","switch","switch","31","","","",""
"845","71","poldrack-single-stim","185","312553","0.0-106.0","pilot-38_ses-01","","2136","0","stim","","<div class = upperbox><div class = ""center-text"" >Orange-Bleu</div></div><div class = lowerbox><div class = ""stim-text"" style=color:orange;>9</div>","89,71","1000","test","Orange-Bleu","orange","9","color","switch","switch","31","true","71","",""
"","","call-function","186","312553","0.0-107.0","pilot-38_ses-01","","","","set_stims","","","","","","","","","","","","","","","",""
"-1","-1","poldrack-single-stim","187","312676","0.0-108.0","pilot-38_ses-01","","100","0","cue","","<div class = upperbox><div class = ""center-text"" >Amplitude</div></div><div class = lowerbox><div class = fixation>+</div></div>","none","100","test","Amplitude","#1F45FC","7","magnitude","switch","switch","32","","","",""
"1138","71","poldrack-single-stim","188","315387","0.0-109.0","pilot-38_ses-01","","2680","0","stim","","<div class = upperbox><div class = ""center-text"" >Amplitude</div></div><div class = lowerbox><div class = ""stim-text"" style=color:#1F45FC;>7</div>","89,71","1000","test","Amplitude","#1F45FC","7","magnitude","switch","switch","32","true","71","",""
"","","call-function","189","315388","0.0-110.0","pilot-38_ses-01","","","","set_stims","","","","","","","","","","","","","","","",""
"-1","-1","poldrack-single-stim","190","315519","0.0-111.0","pilot-38_ses-01","","100","0","cue","","<div class = upperbox><div class = ""center-text"" >Amplitude</div></div><div class = lowerbox><div class = fixation>+</div></div>","none","100","test","Amplitude","orange","4","magnitude","stay","stay","33","","","",""
"933","89","poldrack-single-stim","191","317808","0.0-112.0","pilot-38_ses-01","","2272","0","stim","","<div class = upperbox><div class = ""center-text"" >Amplitude</div></div><div class = lowerbox><div class = ""stim-text"" style=color:orange;>4</div>","89,71","1000","test","Amplitude","orange","4","magnitude","stay","stay","33","true","89","",""
"","","call-function","192","317809","0.0-113.0","pilot-38_ses-01","","","","set_stims","","","","","","","","","","","","","","","",""
"-1","-1","poldrack-single-stim","193","317924","0.0-114.0","pilot-38_ses-01","","100","0","cue","","<div class = upperbox><div class = ""center-text"" >Amplitude</div></div><div class = lowerbox><div class = fixation>+</div></div>","none","100","test","Amplitude","orange","3","magnitude","stay","stay","34","","","",""
"774","89","poldrack-single-stim","194","320079","0.0-115.0","pilot-38_ses-01","","2136","0","stim","","<div class = upperbox><div class = ""center-text"" >Amplitude</div></div><div class = lowerbox><div class = ""stim-text"" style=color:orange;>3</div>","89,71","1000","test","Amplitude","orange","3","magnitude","stay","stay","34","true","89","",""
"","","call-function","195","320080","0.0-116.0","pilot-38_ses-01","","","","set_stims","","","","","","","","","","","","","","","",""
"-1","-1","poldrack-single-stim","196","320217","0.0-117.0","pilot-38_ses-01","","100","0","cue","","<div class = upperbox><div class = ""center-text"" >Orange-Bleu</div></div><div class = lowerbox><div class = fixation>+</div></div>","none","100","test","Orange-Bleu","orange","3","color","switch","stay","35","","","",""
"830","71","poldrack-single-stim","197","322227","0.0-118.0","pilot-38_ses-01","","2000","0","stim","","<div class = upperbox><div class = ""center-text"" >Orange-Bleu</div></div><div class = lowerbox><div class = ""stim-text"" style=color:orange;>3</div>","89,71","1000","test","Orange-Bleu","orange","3","color","switch","stay","35","true","71","",""
"","","call-function","198","322228","0.0-119.0","pilot-38_ses-01","","","","set_stims","","","","","","","","","","","","","","","",""
"-1","-1","poldrack-single-stim","199","322361","0.0-120.0","pilot-38_ses-01","","100","0","cue","","<div class = upperbox><div class = ""center-text"" >Amplitude</div></div><div class = lowerbox><div class = fixation>+</div></div>","none","100","test","Amplitude","#1F45FC","7","magnitude","switch","stay","36","","","",""
"614","89","poldrack-single-stim","200","324520","0.0-121.0","pilot-38_ses-01","","2136","0","stim","","<div class = upperbox><div class = ""center-text"" >Amplitude</div></div><div class = lowerbox><div class = ""stim-text"" style=color:#1F45FC;>7</div>","89,71","1000","test","Amplitude","#1F45FC","7","magnitude","switch","stay","36","false","71","",""
"","","call-function","201","324520","0.0-122.0","pilot-38_ses-01","","","","set_stims","","","","","","","","","","","","","","","",""
"-1","-1","poldrack-single-stim","202","324644","0.0-123.0","pilot-38_ses-01","","100","0","cue","","<div class = upperbox><div class = ""center-text"" >Couleur</div></div><div class = lowerbox><div class = fixation>+</div></div>","none","100","test","Couleur","#1F45FC","3","color","switch","switch","37","","","",""
"795","89","poldrack-single-stim","203","327356","0.0-124.0","pilot-38_ses-01","","2680","0","stim","","<div class = upperbox><div class = ""center-text"" >Couleur</div></div><div class = lowerbox><div class = ""stim-text"" style=color:#1F45FC;>3</div>","89,71","1000","test","Couleur","#1F45FC","3","color","switch","switch","37","true","89","",""
"","","call-function","204","327357","0.0-125.0","pilot-38_ses-01","","","","set_stims","","","","","","","","","","","","","","","",""
"-1","-1","poldrack-single-stim","205","328275","0.0-126.0","pilot-38_ses-01","","900","0","cue","","<div class = upperbox><div class = ""center-text"" >Amplitude</div></div><div class = lowerbox><div class = fixation>+</div></div>","none","900","test","Amplitude","#1F45FC","2","magnitude","switch","stay","38","","","",""
"630","89","poldrack-single-stim","206","330569","0.0-127.0","pilot-38_ses-01","","2272","0","stim","","<div class = upperbox><div class = ""center-text"" >Amplitude</div></div><div class = lowerbox><div class = ""stim-text"" style=color:#1F45FC;>2</div>","89,71","1000","test","Amplitude","#1F45FC","2","magnitude","switch","stay","38","true","89","",""
"","","call-function","207","330569","0.0-128.0","pilot-38_ses-01","","","","set_stims","","","","","","","","","","","","","","","",""
"-1","-1","poldrack-single-stim","208","331488","0.0-129.0","pilot-38_ses-01","","900","0","cue","","<div class = upperbox><div class = ""center-text"" >Haut-Bas</div></div><div class = lowerbox><div class = fixation>+</div></div>","none","900","test","Haut-Bas","#1F45FC","9","magnitude","stay","switch","39","","","",""
"603","71","poldrack-single-stim","209","333501","0.0-130.0","pilot-38_ses-01","","2000","0","stim","","<div class = upperbox><div class = ""center-text"" >Haut-Bas</div></div><div class = lowerbox><div class = ""stim-text"" style=color:#1F45FC;>9</div>","89,71","1000","test","Haut-Bas","#1F45FC","9","magnitude","stay","switch","39","true","71","",""
"","","call-function","210","333501","0.0-131.0","pilot-38_ses-01","","","","set_stims","","","","","","","","","","","","","","","",""
"-1","-1","poldrack-single-stim","211","333615","0.0-132.0","pilot-38_ses-01","","100","0","cue","","<div class = upperbox><div class = ""center-text"" >Couleur</div></div><div class = lowerbox><div class = fixation>+</div></div>","none","100","test","Couleur","orange","3","color","switch","stay","40","","","",""
"961","71","poldrack-single-stim","212","335637","0.0-133.0","pilot-38_ses-01","","2000","0","stim","","<div class = upperbox><div class = ""center-text"" >Couleur</div></div><div class = lowerbox><div class = ""stim-text"" style=color:orange;>3</div>","89,71","1000","test","Couleur","orange","3","color","switch","stay","40","true","71","",""
"","","call-function","213","335638","0.0-134.0","pilot-38_ses-01","","","","set_stims","","","","","","","","","","","","","","","",""
"-1","-1","poldrack-single-stim","214","335769","0.0-135.0","pilot-38_ses-01","","100","0","cue","","<div class = upperbox><div class = ""center-text"" >Couleur</div></div><div class = lowerbox><div class = fixation>+</div></div>","none","100","test","Couleur","orange","4","color","stay","stay","41","","","",""
"796","71","poldrack-single-stim","215","337926","0.0-136.0","pilot-38_ses-01","","2136","0","stim","","<div class = upperbox><div class = ""center-text"" >Couleur</div></div><div class = lowerbox><div class = ""stim-text"" style=color:orange;>4</div>","89,71","1000","test","Couleur","orange","4","color","stay","stay","41","true","71","",""
"","","call-function","216","337926","0.0-137.0","pilot-38_ses-01","","","","set_stims","","","","","","","","","","","","","","","",""
"-1","-1","poldrack-single-stim","217","338834","0.0-138.0","pilot-38_ses-01","","900","0","cue","","<div class = upperbox><div class = ""center-text"" >Couleur</div></div><div class = lowerbox><div class = fixation>+</div></div>","none","900","test","Couleur","#1F45FC","3","color","stay","stay","42","","","",""
"542","89","poldrack-single-stim","218","340844","0.0-139.0","pilot-38_ses-01","","2000","0","stim","","<div class = upperbox><div class = ""center-text"" >Couleur</div></div><div class = lowerbox><div class = ""stim-text"" style=color:#1F45FC;>3</div>","89,71","1000","test","Couleur","#1F45FC","3","color","stay","stay","42","true","89","",""
"","","call-function","219","340845","0.0-140.0","pilot-38_ses-01","","","","set_stims","","","","","","","","","","","","","","","",""
"-1","-1","poldrack-single-stim","220","340960","0.0-141.0","pilot-38_ses-01","","100","0","cue","","<div class = upperbox><div class = ""center-text"" >Couleur</div></div><div class = lowerbox><div class = fixation>+</div></div>","none","100","test","Couleur","#1F45FC","4","color","stay","stay","43","","","",""
"780","89","poldrack-single-stim","221","342980","0.0-142.0","pilot-38_ses-01","","2000","0","stim","","<div class = upperbox><div class = ""center-text"" >Couleur</div></div><div class = lowerbox><div class = ""stim-text"" style=color:#1F45FC;>4</div>","89,71","1000","test","Couleur","#1F45FC","4","color","stay","stay","43","true","89","",""
"","","call-function","222","342980","0.0-143.0","pilot-38_ses-01","","","","set_stims","","","","","","","","","","","","","","","",""
"-1","-1","poldrack-single-stim","223","343897","0.0-144.0","pilot-38_ses-01","","900","0","cue","","<div class = upperbox><div class = ""center-text"" >Orange-Bleu</div></div><div class = lowerbox><div class = fixation>+</div></div>","none","900","test","Orange-Bleu","#1F45FC","8","color","stay","switch","44","","","",""
"649","71","poldrack-single-stim","224","345918","0.0-145.0","pilot-38_ses-01","","2000","0","stim","","<div class = upperbox><div class = ""center-text"" >Orange-Bleu</div></div><div class = lowerbox><div class = ""stim-text"" style=color:#1F45FC;>8</div>","89,71","1000","test","Orange-Bleu","#1F45FC","8","color","stay","switch","44","false","89","",""
"","","call-function","225","345918","0.0-146.0","pilot-38_ses-01","","","","set_stims","","","","","","","","","","","","","","","",""
"-1","-1","poldrack-single-stim","226","346851","0.0-147.0","pilot-38_ses-01","","900","0","cue","","<div class = upperbox><div class = ""center-text"" >Haut-Bas</div></div><div class = lowerbox><div class = fixation>+</div></div>","none","900","test","Haut-Bas","orange","4","magnitude","switch","switch","45","","","",""
"492","89","poldrack-single-stim","227","349144","0.0-148.0","pilot-38_ses-01","","2272","0","stim","","<div class = upperbox><div class = ""center-text"" >Haut-Bas</div></div><div class = lowerbox><div class = ""stim-text"" style=color:orange;>4</div>","89,71","1000","test","Haut-Bas","orange","4","magnitude","switch","switch","45","true","89","",""
"","","call-function","228","349144","0.0-149.0","pilot-38_ses-01","","","","set_stims","","","","","","","","","","","","","","","",""
"-1","-1","poldrack-single-stim","229","350050","0.0-150.0","pilot-38_ses-01","","900","0","cue","","<div class = upperbox><div class = ""center-text"" >Orange-Bleu</div></div><div class = lowerbox><div class = fixation>+</div></div>","none","900","test","Orange-Bleu","orange","1","color","switch","stay","46","","","",""
"827","71","poldrack-single-stim","230","352489","0.0-151.0","pilot-38_ses-01","","2408","0","stim","","<div class = upperbox><div class = ""center-text"" >Orange-Bleu</div></div><div class = lowerbox><div class = ""stim-text"" style=color:orange;>1</div>","89,71","1000","test","Orange-Bleu","orange","1","color","switch","stay","46","true","71","",""
"","","call-function","231","352489","0.0-152.0","pilot-38_ses-01","","","","set_stims","","","","","","","","","","","","","","","",""
"-1","-1","poldrack-single-stim","232","353411","0.0-153.0","pilot-38_ses-01","","900","0","cue","","<div class = upperbox><div class = ""center-text"" >Orange-Bleu</div></div><div class = lowerbox><div class = fixation>+</div></div>","none","900","test","Orange-Bleu","orange","6","color","stay","stay","47","","","",""
"534","71","poldrack-single-stim","233","355421","0.0-154.0","pilot-38_ses-01","","2000","0","stim","","<div class = upperbox><div class = ""center-text"" >Orange-Bleu</div></div><div class = lowerbox><div class = ""stim-text"" style=color:orange;>6</div>","89,71","1000","test","Orange-Bleu","orange","6","color","stay","stay","47","true","71","",""
"","","call-function","234","355422","0.0-155.0","pilot-38_ses-01","","","","set_stims","","","","","","","","","","","","","","","",""
"-1","-1","poldrack-single-stim","235","355553","0.0-156.0","pilot-38_ses-01","","100","0","cue","","<div class = upperbox><div class = ""center-text"" >Orange-Bleu</div></div><div class = lowerbox><div class = fixation>+</div></div>","none","100","test","Orange-Bleu","orange","4","color","stay","stay","48","","","",""
"609","71","poldrack-single-stim","236","357577","0.0-157.0","pilot-38_ses-01","","2000","0","stim","","<div class = upperbox><div class = ""center-text"" >Orange-Bleu</div></div><div class = lowerbox><div class = ""stim-text"" style=color:orange;>4</div>","89,71","1000","test","Orange-Bleu","orange","4","color","stay","stay","48","true","71","",""
"","","call-function","237","357577","0.0-158.0","pilot-38_ses-01","","","","set_stims","","","","","","","","","","","","","","","",""
"-1","-1","poldrack-single-stim","238","357715","0.0-159.0","pilot-38_ses-01","","100","0","cue","","<div class = upperbox><div class = ""center-text"" >Amplitude</div></div><div class = lowerbox><div class = fixation>+</div></div>","none","100","test","Amplitude","#1F45FC","8","magnitude","switch","stay","49","","","",""
"839","71","poldrack-single-stim","239","359743","0.0-160.0","pilot-38_ses-01","","2000","0","stim","","<div class = upperbox><div class = ""center-text"" >Amplitude</div></div><div class = lowerbox><div class = ""stim-text"" style=color:#1F45FC;>8</div>","89,71","1000","test","Amplitude","#1F45FC","8","magnitude","switch","stay","49","true","71","",""
"","","call-function","240","359746","0.0-161.0","pilot-38_ses-01","","","","set_stims","","","","","","","","","","","","","","","",""
"-1","-1","poldrack-single-stim","241","360678","0.0-162.0","pilot-38_ses-01","","900","0","cue","","<div class = upperbox><div class = ""center-text"" >Orange-Bleu</div></div><div class = lowerbox><div class = fixation>+</div></div>","none","900","test","Orange-Bleu","#1F45FC","1","color","switch","switch","50","","","",""
"456","89","poldrack-single-stim","242","362968","0.0-163.0","pilot-38_ses-01","","2272","0","stim","","<div class = upperbox><div class = ""center-text"" >Orange-Bleu</div></div><div class = lowerbox><div class = ""stim-text"" style=color:#1F45FC;>1</div>","89,71","1000","test","Orange-Bleu","#1F45FC","1","color","switch","switch","50","true","89","",""
"","","call-function","243","362968","0.0-164.0","pilot-38_ses-01","","","","set_stims","","","","","","","","","","","","","","","",""
"-1","-1","poldrack-single-stim","244","363892","0.0-165.0","pilot-38_ses-01","","900","0","cue","","<div class = upperbox><div class = ""center-text"" >Orange-Bleu</div></div><div class = lowerbox><div class = fixation>+</div></div>","none","900","test","Orange-Bleu","#1F45FC","2","color","stay","stay","51","","","",""
"666","89","poldrack-single-stim","245","366051","0.0-166.0","pilot-38_ses-01","","2136","0","stim","","<div class = upperbox><div class = ""center-text"" >Orange-Bleu</div></div><div class = lowerbox><div class = ""stim-text"" style=color:#1F45FC;>2</div>","89,71","1000","test","Orange-Bleu","#1F45FC","2","color","stay","stay","51","true","89","",""
"","","call-function","246","366051","0.0-167.0","pilot-38_ses-01","","","","set_stims","","","","","","","","","","","","","","","",""
"-1","-1","poldrack-single-stim","247","366183","0.0-168.0","pilot-38_ses-01","","100","0","cue","","<div class = upperbox><div class = ""center-text"" >Haut-Bas</div></div><div class = lowerbox><div class = fixation>+</div></div>","none","100","test","Haut-Bas","orange","2","magnitude","switch","stay","52","","","",""
"981","89","poldrack-single-stim","248","368194","0.0-169.0","pilot-38_ses-01","","2000","0","stim","","<div class = upperbox><div class = ""center-text"" >Haut-Bas</div></div><div class = lowerbox><div class = ""stim-text"" style=color:orange;>2</div>","89,71","1000","test","Haut-Bas","orange","2","magnitude","switch","stay","52","true","89","",""
"","","call-function","249","368194","0.0-170.0","pilot-38_ses-01","","","","set_stims","","","","","","","","","","","","","","","",""
"-1","-1","poldrack-single-stim","250","368326","0.0-171.0","pilot-38_ses-01","","100","0","cue","","<div class = upperbox><div class = ""center-text"" >Amplitude</div></div><div class = lowerbox><div class = fixation>+</div></div>","none","100","test","Amplitude","orange","7","magnitude","stay","switch","53","","","",""
"1005","71","poldrack-single-stim","251","370890","0.0-172.0","pilot-38_ses-01","","2544","0","stim","","<div class = upperbox><div class = ""center-text"" >Amplitude</div></div><div class = lowerbox><div class = ""stim-text"" style=color:orange;>7</div>","89,71","1000","test","Amplitude","orange","7","magnitude","stay","switch","53","true","71","",""
"","","call-function","252","370891","0.0-173.0","pilot-38_ses-01","","","","set_stims","","","","","","","","","","","","","","","",""
"-1","-1","poldrack-single-stim","253","371022","0.0-174.0","pilot-38_ses-01","","100","0","cue","","<div class = upperbox><div class = ""center-text"" >Couleur</div></div><div class = lowerbox><div class = fixation>+</div></div>","none","100","test","Couleur","#1F45FC","4","color","switch","stay","54","","","",""
"585","89","poldrack-single-stim","254","373319","0.0-175.0","pilot-38_ses-01","","2272","0","stim","","<div class = upperbox><div class = ""center-text"" >Couleur</div></div><div class = lowerbox><div class = ""stim-text"" style=color:#1F45FC;>4</div>","89,71","1000","test","Couleur","#1F45FC","4","color","switch","stay","54","true","89","",""
"","","call-function","255","373319","0.0-176.0","pilot-38_ses-01","","","","set_stims","","","","","","","","","","","","","","","",""
"-1","-1","poldrack-single-stim","256","373438","0.0-177.0","pilot-38_ses-01","","100","0","cue","","<div class = upperbox><div class = ""center-text"" >Couleur</div></div><div class = lowerbox><div class = fixation>+</div></div>","none","100","test","Couleur","#1F45FC","4","color","stay","stay","55","","","",""
"550","89","poldrack-single-stim","257","375721","0.0-178.0","pilot-38_ses-01","","2272","0","stim","","<div class = upperbox><div class = ""center-text"" >Couleur</div></div><div class = lowerbox><div class = ""stim-text"" style=color:#1F45FC;>4</div>","89,71","1000","test","Couleur","#1F45FC","4","color","stay","stay","55","true","89","",""
"","","call-function","258","375722","0.0-179.0","pilot-38_ses-01","","","","set_stims","","","","","","","","","","","","","","","",""
"-1","-1","poldrack-single-stim","259","375852","0.0-180.0","pilot-38_ses-01","","100","0","cue","","<div class = upperbox><div class = ""center-text"" >Orange-Bleu</div></div><div class = lowerbox><div class = fixation>+</div></div>","none","100","test","Orange-Bleu","#1F45FC","2","color","stay","switch","56","","","",""
"608","89","poldrack-single-stim","260","377873","0.0-181.0","pilot-38_ses-01","","2000","0","stim","","<div class = upperbox><div class = ""center-text"" >Orange-Bleu</div></div><div class = lowerbox><div class = ""stim-text"" style=color:#1F45FC;>2</div>","89,71","1000","test","Orange-Bleu","#1F45FC","2","color","stay","switch","56","true","89","",""
"","","call-function","261","377875","0.0-182.0","pilot-38_ses-01","","","","set_stims","","","","","","","","","","","","","","","",""
"-1","-1","poldrack-single-stim","262","378790","0.0-183.0","pilot-38_ses-01","","900","0","cue","","<div class = upperbox><div class = ""center-text"" >Orange-Bleu</div></div><div class = lowerbox><div class = fixation>+</div></div>","none","900","test","Orange-Bleu","orange","3","color","stay","stay","57","","","",""
"444","71","poldrack-single-stim","263","380811","0.0-184.0","pilot-38_ses-01","","2000","0","stim","","<div class = upperbox><div class = ""center-text"" >Orange-Bleu</div></div><div class = lowerbox><div class = ""stim-text"" style=color:orange;>3</div>","89,71","1000","test","Orange-Bleu","orange","3","color","stay","stay","57","true","71","",""
"","","call-function","264","380812","0.0-185.0","pilot-38_ses-01","","","","set_stims","","","","","","","","","","","","","","","",""
"-1","-1","poldrack-single-stim","265","381736","0.0-186.0","pilot-38_ses-01","","900","0","cue","","<div class = upperbox><div class = ""center-text"" >Haut-Bas</div></div><div class = lowerbox><div class = fixation>+</div></div>","none","900","test","Haut-Bas","orange","4","magnitude","switch","switch","58","","","",""
"507","89","poldrack-single-stim","266","383886","0.0-187.0","pilot-38_ses-01","","2136","0","stim","","<div class = upperbox><div class = ""center-text"" >Haut-Bas</div></div><div class = lowerbox><div class = ""stim-text"" style=color:orange;>4</div>","89,71","1000","test","Haut-Bas","orange","4","magnitude","switch","switch","58","true","89","",""
"","","call-function","267","383886","0.0-188.0","pilot-38_ses-01","","","","set_stims","","","","","","","","","","","","","","","",""
"-1","-1","poldrack-single-stim","268","384001","0.0-189.0","pilot-38_ses-01","","100","0","cue","","<div class = upperbox><div class = ""center-text"" >Couleur</div></div><div class = lowerbox><div class = fixation>+</div></div>","none","100","test","Couleur","orange","6","color","switch","switch","59","","","",""
"797","71","poldrack-single-stim","269","386018","0.0-190.0","pilot-38_ses-01","","2000","0","stim","","<div class = upperbox><div class = ""center-text"" >Couleur</div></div><div class = lowerbox><div class = ""stim-text"" style=color:orange;>6</div>","89,71","1000","test","Couleur","orange","6","color","switch","switch","59","true","71","",""
"","","call-function","270","386018","0.0-191.0","pilot-38_ses-01","","","","set_stims","","","","","","","","","","","","","","","",""
"-1","-1","poldrack-single-stim","271","386929","0.0-192.0","pilot-38_ses-01","","900","0","cue","","<div class = upperbox><div class = ""center-text"" >Orange-Bleu</div></div><div class = lowerbox><div class = fixation>+</div></div>","none","900","test","Orange-Bleu","#1F45FC","1","color","stay","switch","60","","","",""
"466","89","poldrack-single-stim","272","389085","0.0-193.0","pilot-38_ses-01","","2136","0","stim","","<div class = upperbox><div class = ""center-text"" >Orange-Bleu</div></div><div class = lowerbox><div class = ""stim-text"" style=color:#1F45FC;>1</div>","89,71","1000","test","Orange-Bleu","#1F45FC","1","color","stay","switch","60","true","89","",""
"","","call-function","273","389085","0.0-194.0","pilot-38_ses-01","","","","set_stims","","","","","","","","","","","","","","","",""
"-1","-1","poldrack-single-stim","274","390006","0.0-195.0","pilot-38_ses-01","","900","0","cue","","<div class = upperbox><div class = ""center-text"" >Amplitude</div></div><div class = lowerbox><div class = fixation>+</div></div>","none","900","test","Amplitude","#1F45FC","6","magnitude","switch","stay","61","","","",""
"589","71","poldrack-single-stim","275","392298","0.0-196.0","pilot-38_ses-01","","2272","0","stim","","<div class = upperbox><div class = ""center-text"" >Amplitude</div></div><div class = lowerbox><div class = ""stim-text"" style=color:#1F45FC;>6</div>","89,71","1000","test","Amplitude","#1F45FC","6","magnitude","switch","stay","61","true","71","",""
"","","call-function","276","392298","0.0-197.0","pilot-38_ses-01","","","","set_stims","","","","","","","","","","","","","","","",""
"-1","-1","poldrack-single-stim","277","392420","0.0-198.0","pilot-38_ses-01","","100","0","cue","","<div class = upperbox><div class = ""center-text"" >Orange-Bleu</div></div><div class = lowerbox><div class = fixation>+</div></div>","none","100","test","Orange-Bleu","#1F45FC","1","color","switch","stay","62","","","",""
"734","89","poldrack-single-stim","278","394569","0.0-199.0","pilot-38_ses-01","","2136","0","stim","","<div class = upperbox><div class = ""center-text"" >Orange-Bleu</div></div><div class = lowerbox><div class = ""stim-text"" style=color:#1F45FC;>1</div>","89,71","1000","test","Orange-Bleu","#1F45FC","1","color","switch","stay","62","true","89","",""
"","","call-function","279","394569","0.0-200.0","pilot-38_ses-01","","","","set_stims","","","","","","","","","","","","","","","",""
"-1","-1","poldrack-single-stim","280","395475","0.0-201.0","pilot-38_ses-01","","900","0","cue","","<div class = upperbox><div class = ""center-text"" >Orange-Bleu</div></div><div class = lowerbox><div class = fixation>+</div></div>","none","900","test","Orange-Bleu","orange","1","color","stay","stay","63","","","",""
"842","71","poldrack-single-stim","281","397764","0.0-202.0","pilot-38_ses-01","","2272","0","stim","","<div class = upperbox><div class = ""center-text"" >Orange-Bleu</div></div><div class = lowerbox><div class = ""stim-text"" style=color:orange;>1</div>","89,71","1000","test","Orange-Bleu","orange","1","color","stay","stay","63","true","71","",""
"","","call-function","282","397764","0.0-203.0","pilot-38_ses-01","","","","set_stims","","","","","","","","","","","","","","","",""
"-1","-1","poldrack-single-stim","283","398681","0.0-204.0","pilot-38_ses-01","","900","0","cue","","<div class = upperbox><div class = ""center-text"" >Haut-Bas</div></div><div class = lowerbox><div class = fixation>+</div></div>","none","900","test","Haut-Bas","orange","1","magnitude","switch","stay","64","","","",""
"557","89","poldrack-single-stim","284","400690","0.0-205.0","pilot-38_ses-01","","2000","0","stim","","<div class = upperbox><div class = ""center-text"" >Haut-Bas</div></div><div class = lowerbox><div class = ""stim-text"" style=color:orange;>1</div>","89,71","1000","test","Haut-Bas","orange","1","magnitude","switch","stay","64","true","89","",""
"","","call-function","285","400690","0.0-206.0","pilot-38_ses-01","","","","set_stims","","","","","","","","","","","","","","","",""
"-1","-1","poldrack-single-stim","286","401617","0.0-207.0","pilot-38_ses-01","","900","0","cue","","<div class = upperbox><div class = ""center-text"" >Haut-Bas</div></div><div class = lowerbox><div class = fixation>+</div></div>","none","900","test","Haut-Bas","#1F45FC","7","magnitude","stay","stay","65","","","",""
"772","71","poldrack-single-stim","287","404459","0.0-208.0","pilot-38_ses-01","","2816","0","stim","","<div class = upperbox><div class = ""center-text"" >Haut-Bas</div></div><div class = lowerbox><div class = ""stim-text"" style=color:#1F45FC;>7</div>","89,71","1000","test","Haut-Bas","#1F45FC","7","magnitude","stay","stay","65","true","71","",""
"","","call-function","288","404459","0.0-209.0","pilot-38_ses-01","","","","set_stims","","","","","","","","","","","","","","","",""
"-1","-1","poldrack-single-stim","289","404574","0.0-210.0","pilot-38_ses-01","","100","0","cue","","<div class = upperbox><div class = ""center-text"" >Amplitude</div></div><div class = lowerbox><div class = fixation>+</div></div>","none","100","test","Amplitude","#1F45FC","8","magnitude","stay","switch","66","","","",""
"769","71","poldrack-single-stim","290","407002","0.0-211.0","pilot-38_ses-01","","2408","0","stim","","<div class = upperbox><div class = ""center-text"" >Amplitude</div></div><div class = lowerbox><div class = ""stim-text"" style=color:#1F45FC;>8</div>","89,71","1000","test","Amplitude","#1F45FC","8","magnitude","stay","switch","66","true","71","",""
"","","call-function","291","407003","0.0-212.0","pilot-38_ses-01","","","","set_stims","","","","","","","","","","","","","","","",""
"-1","-1","poldrack-single-stim","292","407140","0.0-213.0","pilot-38_ses-01","","100","0","cue","","<div class = upperbox><div class = ""center-text"" >Amplitude</div></div><div class = lowerbox><div class = fixation>+</div></div>","none","100","test","Amplitude","orange","3","magnitude","stay","stay","67","","","",""
"850","89","poldrack-single-stim","293","409161","0.0-214.0","pilot-38_ses-01","","2000","0","stim","","<div class = upperbox><div class = ""center-text"" >Amplitude</div></div><div class = lowerbox><div class = ""stim-text"" style=color:orange;>3</div>","89,71","1000","test","Amplitude","orange","3","magnitude","stay","stay","67","true","89","",""
"","","call-function","294","409162","0.0-215.0","pilot-38_ses-01","","","","set_stims","","","","","","","","","","","","","","","",""
"-1","-1","poldrack-single-stim","295","409277","0.0-216.0","pilot-38_ses-01","","100","0","cue","","<div class = upperbox><div class = ""center-text"" >Amplitude</div></div><div class = lowerbox><div class = fixation>+</div></div>","none","100","test","Amplitude","#1F45FC","3","magnitude","stay","stay","68","","","",""
"721","89","poldrack-single-stim","296","411829","0.0-217.0","pilot-38_ses-01","","2544","0","stim","","<div class = upperbox><div class = ""center-text"" >Amplitude</div></div><div class = lowerbox><div class = ""stim-text"" style=color:#1F45FC;>3</div>","89,71","1000","test","Amplitude","#1F45FC","3","magnitude","stay","stay","68","true","89","",""
"","","call-function","297","411830","0.0-218.0","pilot-38_ses-01","","","","set_stims","","","","","","","","","","","","","","","",""
"-1","-1","poldrack-single-stim","298","411951","0.0-219.0","pilot-38_ses-01","","100","0","cue","","<div class = upperbox><div class = ""center-text"" >Orange-Bleu</div></div><div class = lowerbox><div class = fixation>+</div></div>","none","100","test","Orange-Bleu","orange","1","color","switch","switch","69","","","",""
"1004","71","poldrack-single-stim","299","414094","0.0-220.0","pilot-38_ses-01","","2136","0","stim","","<div class = upperbox><div class = ""center-text"" >Orange-Bleu</div></div><div class = lowerbox><div class = ""stim-text"" style=color:orange;>1</div>","89,71","1000","test","Orange-Bleu","orange","1","color","switch","switch","69","true","71","",""
"","","call-function","300","414095","0.0-221.0","pilot-38_ses-01","","","","set_stims","","","","","","","","","","","","","","","",""
"-1","-1","poldrack-single-stim","301","414209","0.0-222.0","pilot-38_ses-01","","100","0","cue","","<div class = upperbox><div class = ""center-text"" >Amplitude</div></div><div class = lowerbox><div class = fixation>+</div></div>","none","100","test","Amplitude","#1F45FC","1","magnitude","switch","switch","70","","","",""
"703","89","poldrack-single-stim","302","416220","0.0-223.0","pilot-38_ses-01","","2000","0","stim","","<div class = upperbox><div class = ""center-text"" >Amplitude</div></div><div class = lowerbox><div class = ""stim-text"" style=color:#1F45FC;>1</div>","89,71","1000","test","Amplitude","#1F45FC","1","magnitude","switch","switch","70","true","89","",""
"","","call-function","303","416221","0.0-224.0","pilot-38_ses-01","","","","set_stims","","","","","","","","","","","","","","","",""
"-1","-1","poldrack-single-stim","304","416350","0.0-225.0","pilot-38_ses-01","","100","0","cue","","<div class = upperbox><div class = ""center-text"" >Amplitude</div></div><div class = lowerbox><div class = fixation>+</div></div>","none","100","test","Amplitude","orange","1","magnitude","stay","stay","71","","","",""
"777","89","poldrack-single-stim","305","418381","0.0-226.0","pilot-38_ses-01","","2000","0","stim","","<div class = upperbox><div class = ""center-text"" >Amplitude</div></div><div class = lowerbox><div class = ""stim-text"" style=color:orange;>1</div>","89,71","1000","test","Amplitude","orange","1","magnitude","stay","stay","71","true","89","",""
"","","call-function","306","418381","0.0-227.0","pilot-38_ses-01","","","","set_stims","","","","","","","","","","","","","","","",""
"-1","-1","poldrack-single-stim","307","419300","0.0-228.0","pilot-38_ses-01","","900","0","cue","","<div class = upperbox><div class = ""center-text"" >Haut-Bas</div></div><div class = lowerbox><div class = fixation>+</div></div>","none","900","test","Haut-Bas","orange","6","magnitude","stay","switch","72","","","",""
"583","71","poldrack-single-stim","308","421460","0.0-229.0","pilot-38_ses-01","","2136","0","stim","","<div class = upperbox><div class = ""center-text"" >Haut-Bas</div></div><div class = lowerbox><div class = ""stim-text"" style=color:orange;>6</div>","89,71","1000","test","Haut-Bas","orange","6","magnitude","stay","switch","72","true","71","",""
"","","call-function","309","421461","0.0-230.0","pilot-38_ses-01","","","","set_stims","","","","","","","","","","","","","","","",""
"-1","-1","poldrack-single-stim","310","422379","0.0-231.0","pilot-38_ses-01","","900","0","cue","","<div class = upperbox><div class = ""center-text"" >Haut-Bas</div></div><div class = lowerbox><div class = fixation>+</div></div>","none","900","test","Haut-Bas","#1F45FC","8","magnitude","stay","stay","73","","","",""
"917","71","poldrack-single-stim","311","424540","0.0-232.0","pilot-38_ses-01","","2136","0","stim","","<div class = upperbox><div class = ""center-text"" >Haut-Bas</div></div><div class = lowerbox><div class = ""stim-text"" style=color:#1F45FC;>8</div>","89,71","1000","test","Haut-Bas","#1F45FC","8","magnitude","stay","stay","73","true","71","",""
"","","call-function","312","424541","0.0-233.0","pilot-38_ses-01","","","","set_stims","","","","","","","","","","","","","","","",""
"-1","-1","poldrack-single-stim","313","425470","0.0-234.0","pilot-38_ses-01","","900","0","cue","","<div class = upperbox><div class = ""center-text"" >Couleur</div></div><div class = lowerbox><div class = fixation>+</div></div>","none","900","test","Couleur","#1F45FC","1","color","switch","switch","74","","","",""
"748","89","poldrack-single-stim","314","427764","0.0-235.0","pilot-38_ses-01","","2272","0","stim","","<div class = upperbox><div class = ""center-text"" >Couleur</div></div><div class = lowerbox><div class = ""stim-text"" style=color:#1F45FC;>1</div>","89,71","1000","test","Couleur","#1F45FC","1","color","switch","switch","74","true","89","",""
"","","call-function","315","427764","0.0-236.0","pilot-38_ses-01","","","","set_stims","","","","","","","","","","","","","","","",""
"-1","-1","poldrack-single-stim","316","428683","0.0-237.0","pilot-38_ses-01","","900","0","cue","","<div class = upperbox><div class = ""center-text"" >Orange-Bleu</div></div><div class = lowerbox><div class = fixation>+</div></div>","none","900","test","Orange-Bleu","#1F45FC","9","color","stay","switch","75","","","",""
"887","89","poldrack-single-stim","317","431928","0.0-238.0","pilot-38_ses-01","","3224","0","stim","","<div class = upperbox><div class = ""center-text"" >Orange-Bleu</div></div><div class = lowerbox><div class = ""stim-text"" style=color:#1F45FC;>9</div>","89,71","1000","test","Orange-Bleu","#1F45FC","9","color","stay","switch","75","true","89","",""
"","","call-function","318","431930","0.0-239.0","pilot-38_ses-01","","","","set_stims","","","","","","","","","","","","","","","",""
"-1","-1","poldrack-single-stim","319","432053","0.0-240.0","pilot-38_ses-01","","100","0","cue","","<div class = upperbox><div class = ""center-text"" >Couleur</div></div><div class = lowerbox><div class = fixation>+</div></div>","none","100","test","Couleur","#1F45FC","9","color","stay","switch","76","","","",""
"739","89","poldrack-single-stim","320","434061","0.0-241.0","pilot-38_ses-01","","2000","0","stim","","<div class = upperbox><div class = ""center-text"" >Couleur</div></div><div class = lowerbox><div class = ""stim-text"" style=color:#1F45FC;>9</div>","89,71","1000","test","Couleur","#1F45FC","9","color","stay","switch","76","true","89","",""
"","","call-function","321","434061","0.0-242.0","pilot-38_ses-01","","","","set_stims","","","","","","","","","","","","","","","",""
"-1","-1","poldrack-single-stim","322","434192","0.0-243.0","pilot-38_ses-01","","100","0","cue","","<div class = upperbox><div class = ""center-text"" >Haut-Bas</div></div><div class = lowerbox><div class = fixation>+</div></div>","none","100","test","Haut-Bas","#1F45FC","3","magnitude","switch","switch","77","","","",""
"922","89","poldrack-single-stim","323","436199","0.0-244.0","pilot-38_ses-01","","2000","0","stim","","<div class = upperbox><div class = ""center-text"" >Haut-Bas</div></div><div class = lowerbox><div class = ""stim-text"" style=color:#1F45FC;>3</div>","89,71","1000","test","Haut-Bas","#1F45FC","3","magnitude","switch","switch","77","true","89","",""
"","","call-function","324","436200","0.0-245.0","pilot-38_ses-01","","","","set_stims","","","","","","","","","","","","","","","",""
"-1","-1","poldrack-single-stim","325","437124","0.0-246.0","pilot-38_ses-01","","900","0","cue","","<div class = upperbox><div class = ""center-text"" >Orange-Bleu</div></div><div class = lowerbox><div class = fixation>+</div></div>","none","900","test","Orange-Bleu","orange","9","color","switch","switch","78","","","",""
"429","71","poldrack-single-stim","326","439414","0.0-247.0","pilot-38_ses-01","","2272","0","stim","","<div class = upperbox><div class = ""center-text"" >Orange-Bleu</div></div><div class = lowerbox><div class = ""stim-text"" style=color:orange;>9</div>","89,71","1000","test","Orange-Bleu","orange","9","color","switch","switch","78","true","71","",""
"","","call-function","327","439414","0.0-248.0","pilot-38_ses-01","","","","set_stims","","","","","","","","","","","","","","","",""
"-1","-1","poldrack-single-stim","328","440337","0.0-249.0","pilot-38_ses-01","","900","0","cue","","<div class = upperbox><div class = ""center-text"" >Amplitude</div></div><div class = lowerbox><div class = fixation>+</div></div>","none","900","test","Amplitude","orange","3","magnitude","switch","switch","79","","","",""
"561","89","poldrack-single-stim","329","442492","0.0-250.0","pilot-38_ses-01","","2136","0","stim","","<div class = upperbox><div class = ""center-text"" >Amplitude</div></div><div class = lowerbox><div class = ""stim-text"" style=color:orange;>3</div>","89,71","1000","test","Amplitude","orange","3","magnitude","switch","switch","79","true","89","",""
"-1","-1","poldrack-single-stim","330","452515","0.0-251.0","pilot-38_ses-01","","10000","1000","rest_block","","<div class = centerbox><div class = center-text>+</div></div>","none","10000","","","","","","","","","","","",""
"-1","-1","poldrack-single-stim","331","455048","0.0-252.0","pilot-38_ses-01","","1500","500","test_start_block","","<div class = centerbox><div class = center-text>Preparez-vous!</p></div>","none","1500","","","","","","","","","","","",""
"-1","-1","poldrack-single-stim","332","456071","0.0-253.0","pilot-38_ses-01","","500","0","fixation","","<div class = upperbox><div class = fixation>+</div></div><div class = lowerbox><div class = fixation>+</div></div>","none","500","test","","","","","","","","","","",""
"","","call-function","333","456072","0.0-254.0","pilot-38_ses-01","","","","set_stims","","","","","","","","","","","","","","","",""
"-1","-1","poldrack-single-stim","334","456994","0.0-255.0","pilot-38_ses-01","","900","0","cue","","<div class = upperbox><div class = ""center-text"" >Couleur</div></div><div class = lowerbox><div class = fixation>+</div></div>","none","900","test","Couleur","#1F45FC","3","color","stay","stay","0","","","",""
"457","89","poldrack-single-stim","335","459006","0.0-256.0","pilot-38_ses-01","","2000","0","stim","","<div class = upperbox><div class = ""center-text"" >Couleur</div></div><div class = lowerbox><div class = ""stim-text"" style=color:#1F45FC;>3</div>","89,71","1000","test","Couleur","#1F45FC","3","color","stay","stay","0","true","89","",""
"","","call-function","336","459006","0.0-257.0","pilot-38_ses-01","","","","set_stims","","","","","","","","","","","","","","","",""
"-1","-1","poldrack-single-stim","337","459121","0.0-258.0","pilot-38_ses-01","","100","0","cue","","<div class = upperbox><div class = ""center-text"" >Amplitude</div></div><div class = lowerbox><div class = fixation>+</div></div>","none","100","test","Amplitude","orange","7","magnitude","switch","switch","1","","","",""
"651","71","poldrack-single-stim","338","461133","0.0-259.0","pilot-38_ses-01","","2000","0","stim","","<div class = upperbox><div class = ""center-text"" >Amplitude</div></div><div class = lowerbox><div class = ""stim-text"" style=color:orange;>7</div>","89,71","1000","test","Amplitude","orange","7","magnitude","switch","switch","1","true","71","",""
"","","call-function","339","461133","0.0-260.0","pilot-38_ses-01","","","","set_stims","","","","","","","","","","","","","","","",""
"-1","-1","poldrack-single-stim","340","462051","0.0-261.0","pilot-38_ses-01","","900","0","cue","","<div class = upperbox><div class = ""center-text"" >Orange-Bleu</div></div><div class = lowerbox><div class = fixation>+</div></div>","none","900","test","Orange-Bleu","orange","9","color","switch","switch","2","","","",""
"547","71","poldrack-single-stim","341","464071","0.0-262.0","pilot-38_ses-01","","2000","0","stim","","<div class = upperbox><div class = ""center-text"" >Orange-Bleu</div></div><div class = lowerbox><div class = ""stim-text"" style=color:orange;>9</div>","89,71","1000","test","Orange-Bleu","orange","9","color","switch","switch","2","true","71","",""
"","","call-function","342","464072","0.0-263.0","pilot-38_ses-01","","","","set_stims","","","","","","","","","","","","","","","",""
"-1","-1","poldrack-single-stim","343","464992","0.0-264.0","pilot-38_ses-01","","900","0","cue","","<div class = upperbox><div class = ""center-text"" >Haut-Bas</div></div><div class = lowerbox><div class = fixation>+</div></div>","none","900","test","Haut-Bas","orange","9","magnitude","switch","switch","3","","","",""
"818","71","poldrack-single-stim","344","467686","0.0-265.0","pilot-38_ses-01","","2680","0","stim","","<div class = upperbox><div class = ""center-text"" >Haut-Bas</div></div><div class = lowerbox><div class = ""stim-text"" style=color:orange;>9</div>","89,71","1000","test","Haut-Bas","orange","9","magnitude","switch","switch","3","true","71","",""
"","","call-function","345","467687","0.0-266.0","pilot-38_ses-01","","","","set_stims","","","","","","","","","","","","","","","",""
"-1","-1","poldrack-single-stim","346","467801","0.0-267.0","pilot-38_ses-01","","100","0","cue","","<div class = upperbox><div class = ""center-text"" >Orange-Bleu</div></div><div class = lowerbox><div class = fixation>+</div></div>","none","100","test","Orange-Bleu","#1F45FC","2","color","switch","stay","4","","","",""
"844","89","poldrack-single-stim","347","469806","0.0-268.0","pilot-38_ses-01","","2000","0","stim","","<div class = upperbox><div class = ""center-text"" >Orange-Bleu</div></div><div class = lowerbox><div class = ""stim-text"" style=color:#1F45FC;>2</div>","89,71","1000","test","Orange-Bleu","#1F45FC","2","color","switch","stay","4","true","89","",""
"","","call-function","348","469806","0.0-269.0","pilot-38_ses-01","","","","set_stims","","","","","","","","","","","","","","","",""
"-1","-1","poldrack-single-stim","349","470738","0.0-270.0","pilot-38_ses-01","","900","0","cue","","<div class = upperbox><div class = ""center-text"" >Orange-Bleu</div></div><div class = lowerbox><div class = fixation>+</div></div>","none","900","test","Orange-Bleu","#1F45FC","7","color","stay","stay","5","","","",""
"720","89","poldrack-single-stim","350","473049","0.0-271.0","pilot-38_ses-01","","2272","0","stim","","<div class = upperbox><div class = ""center-text"" >Orange-Bleu</div></div><div class = lowerbox><div class = ""stim-text"" style=color:#1F45FC;>7</div>","89,71","1000","test","Orange-Bleu","#1F45FC","7","color","stay","stay","5","true","89","",""
"","","call-function","351","473051","0.0-272.0","pilot-38_ses-01","","","","set_stims","","","","","","","","","","","","","","","",""
"-1","-1","poldrack-single-stim","352","473968","0.0-273.0","pilot-38_ses-01","","900","0","cue","","<div class = upperbox><div class = ""center-text"" >Couleur</div></div><div class = lowerbox><div class = fixation>+</div></div>","none","900","test","Couleur","orange","8","color","stay","switch","6","","","",""
"846","71","poldrack-single-stim","353","475981","0.0-274.0","pilot-38_ses-01","","2000","0","stim","","<div class = upperbox><div class = ""center-text"" >Couleur</div></div><div class = lowerbox><div class = ""stim-text"" style=color:orange;>8</div>","89,71","1000","test","Couleur","orange","8","color","stay","switch","6","true","71","",""
"","","call-function","354","475982","0.0-275.0","pilot-38_ses-01","","","","set_stims","","","","","","","","","","","","","","","",""
"-1","-1","poldrack-single-stim","355","476899","0.0-276.0","pilot-38_ses-01","","900","0","cue","","<div class = upperbox><div class = ""center-text"" >Orange-Bleu</div></div><div class = lowerbox><div class = fixation>+</div></div>","none","900","test","Orange-Bleu","orange","9","color","stay","switch","7","","","",""
"945","71","poldrack-single-stim","356","479204","0.0-277.0","pilot-38_ses-01","","2272","0","stim","","<div class = upperbox><div class = ""center-text"" >Orange-Bleu</div></div><div class = lowerbox><div class = ""stim-text"" style=color:orange;>9</div>","89,71","1000","test","Orange-Bleu","orange","9","color","stay","switch","7","true","71","",""
"","","call-function","357","479204","0.0-278.0","pilot-38_ses-01","","","","set_stims","","","","","","","","","","","","","","","",""
"-1","-1","poldrack-single-stim","358","480130","0.0-279.0","pilot-38_ses-01","","900","0","cue","","<div class = upperbox><div class = ""center-text"" >Amplitude</div></div><div class = lowerbox><div class = fixation>+</div></div>","none","900","test","Amplitude","#1F45FC","7","magnitude","switch","switch","8","","","",""
"776","89","poldrack-single-stim","359","483116","0.0-280.0","pilot-38_ses-01","","2952","0","stim","","<div class = upperbox><div class = ""center-text"" >Amplitude</div></div><div class = lowerbox><div class = ""stim-text"" style=color:#1F45FC;>7</div>","89,71","1000","test","Amplitude","#1F45FC","7","magnitude","switch","switch","8","false","71","",""
"","","call-function","360","483116","0.0-281.0","pilot-38_ses-01","","","","set_stims","","","","","","","","","","","","","","","",""
"-1","-1","poldrack-single-stim","361","483249","0.0-282.0","pilot-38_ses-01","","100","0","cue","","<div class = upperbox><div class = ""center-text"" >Couleur</div></div><div class = lowerbox><div class = fixation>+</div></div>","none","100","test","Couleur","orange","2","color","switch","switch","9","","","",""
"1144","71","poldrack-single-stim","362","485262","0.0-283.0","pilot-38_ses-01","","2000","0","stim","","<div class = upperbox><div class = ""center-text"" >Couleur</div></div><div class = lowerbox><div class = ""stim-text"" style=color:orange;>2</div>","89,71","1000","test","Couleur","orange","2","color","switch","switch","9","true","71","",""
"","","call-function","363","485263","0.0-284.0","pilot-38_ses-01","","","","set_stims","","","","","","","","","","","","","","","",""
"-1","-1","poldrack-single-stim","364","486178","0.0-285.0","pilot-38_ses-01","","900","0","cue","","<div class = upperbox><div class = ""center-text"" >Amplitude</div></div><div class = lowerbox><div class = fixation>+</div></div>","none","900","test","Amplitude","#1F45FC","6","magnitude","switch","switch","10","","","",""
"643","71","poldrack-single-stim","365","488199","0.0-286.0","pilot-38_ses-01","","2000","0","stim","","<div class = upperbox><div class = ""center-text"" >Amplitude</div></div><div class = lowerbox><div class = ""stim-text"" style=color:#1F45FC;>6</div>","89,71","1000","test","Amplitude","#1F45FC","6","magnitude","switch","switch","10","true","71","",""
"","","call-function","366","488199","0.0-287.0","pilot-38_ses-01","","","","set_stims","","","","","","","","","","","","","","","",""
"-1","-1","poldrack-single-stim","367","488315","0.0-288.0","pilot-38_ses-01","","100","0","cue","","<div class = upperbox><div class = ""center-text"" >Haut-Bas</div></div><div class = lowerbox><div class = fixation>+</div></div>","none","100","test","Haut-Bas","orange","4","magnitude","stay","switch","11","","","",""
"568","89","poldrack-single-stim","368","490337","0.0-289.0","pilot-38_ses-01","","2000","0","stim","","<div class = upperbox><div class = ""center-text"" >Haut-Bas</div></div><div class = lowerbox><div class = ""stim-text"" style=color:orange;>4</div>","89,71","1000","test","Haut-Bas","orange","4","magnitude","stay","switch","11","true","89","",""
"","","call-function","369","490339","0.0-290.0","pilot-38_ses-01","","","","set_stims","","","","","","","","","","","","","","","",""
"-1","-1","poldrack-single-stim","370","491259","0.0-291.0","pilot-38_ses-01","","900","0","cue","","<div class = upperbox><div class = ""center-text"" >Orange-Bleu</div></div><div class = lowerbox><div class = fixation>+</div></div>","none","900","test","Orange-Bleu","#1F45FC","4","color","switch","switch","12","","","",""
"422","89","poldrack-single-stim","371","493282","0.0-292.0","pilot-38_ses-01","","2000","0","stim","","<div class = upperbox><div class = ""center-text"" >Orange-Bleu</div></div><div class = lowerbox><div class = ""stim-text"" style=color:#1F45FC;>4</div>","89,71","1000","test","Orange-Bleu","#1F45FC","4","color","switch","switch","12","true","89","",""
"","","call-function","372","493283","0.0-293.0","pilot-38_ses-01","","","","set_stims","","","","","","","","","","","","","","","",""
"-1","-1","poldrack-single-stim","373","494208","0.0-294.0","pilot-38_ses-01","","900","0","cue","","<div class = upperbox><div class = ""center-text"" >Amplitude</div></div><div class = lowerbox><div class = fixation>+</div></div>","none","900","test","Amplitude","orange","2","magnitude","switch","stay","13","","","",""
"539","89","poldrack-single-stim","374","496374","0.0-295.0","pilot-38_ses-01","","2136","0","stim","","<div class = upperbox><div class = ""center-text"" >Amplitude</div></div><div class = lowerbox><div class = ""stim-text"" style=color:orange;>2</div>","89,71","1000","test","Amplitude","orange","2","magnitude","switch","stay","13","true","89","",""
"","","call-function","375","496376","0.0-296.0","pilot-38_ses-01","","","","set_stims","","","","","","","","","","","","","","","",""
