"rt","key_press","trial_type","trial_index","time_elapsed","internal_node_id","subject","text","block_duration","timing_post_trial","trial_id","responses","stimulus","possible_responses","stim_duration","condition","exp_stage","trial_num","correct_response","correct","exp_id"
"4343","13","text","0","4346","0.0-0.0","pilot-40_ses-03_2","","","","","","","","","","","","","",""
"1108","89","poldrack-text","1","6465","0.0-1.0","pilot-40_ses-03_2","<div class = centerbox><div style = 'font-size: 50px' class = center-text>Veuillez appuyer avec votre index</p></div>","1108","500","fmri_response_test","","","","","","","","","",""
"587","71","poldrack-text","2","7567","0.0-2.0","pilot-40_ses-03_2","<div class = centerbox><div style = 'font-size: 50px' class = center-text>Veuillez appuyer avec votre majeur</p></div>","587","500","fmri_response_test","","","","","","","","","",""
"9572","","survey-text","3","17663","0.0-3.0","pilot-40_ses-03_2","","","","task_setup","{""Q0"":""4"",""Q1"":""1""}","","","","","","","","",""
"3973","32","poldrack-single-stim","4","22656","0.0-4.0","pilot-40_ses-03_2","","3973","500","instructions","","<div class = centerbox><p style = ""font-size:40px"" class = center-block-text>Paire cible (appuyez sur l'index):</p><p class = center-block-text><img src = ""/static/experiments/dot_pattern_expectancy/images/cue4.png"" ></img>&nbsp&nbsp&nbsp...suivi par...&nbsp&nbsp&nbsp<img src = ""/static/experiments/dot_pattern_expectancy/images/probe1.png"" ></img><br></br></p><p style = ""font-size:40px"" class = center-block-text>Sinon appuyez sur le majeur</div>","32","3973","","","","","",""
"-1","-1","poldrack-single-stim","5","23686","0.0-5.0-0.0","pilot-40_ses-03_2","","500","0","cue","","<div class = centerbox><div class = img-container><img src = ""/static/experiments/dot_pattern_expectancy/images/cue4.png""</img></div></div>","none","500","AX","practice","0","","",""
"-1","-1","poldrack-single-stim","6","25696","0.0-5.0-1.0","pilot-40_ses-03_2","","2000","0","fixation","","<div class = centerbox><div class = fixation>+</div></div>","none","2000","","practice","","","",""
"458","89","poldrack-single-stim","7","28015","0.0-5.0-2.0","pilot-40_ses-03_2","","2300","0","probe","","<div class = centerbox><div class = img-container><img src = ""/static/experiments/dot_pattern_expectancy/images/probe1.png""</img></div></div>","89,71","500","AX","practice","0","89","true",""
"-1","-1","poldrack-single-stim","8","28533","0.0-5.0-3.0","pilot-40_ses-03_2","","500","0","feedback","","<div class = centerbox><div style=""color:#4FE829""; class = center-text>Correct!</div></div>","none","500","","practice","1","","",""
"-1","-1","poldrack-single-stim","9","29055","0.0-5.0-4.0","pilot-40_ses-03_2","","500","0","cue","","<div class = centerbox><div class = img-container><img src = ""/static/experiments/dot_pattern_expectancy/images/cue4.png""</img></div></div>","none","500","AY","practice","1","","",""
"-1","-1","poldrack-single-stim","10","31076","0.0-5.0-5.0","pilot-40_ses-03_2","","2000","0","fixation","","<div class = centerbox><div class = fixation>+</div></div>","none","2000","","practice","","","",""
"599","71","poldrack-single-stim","11","32593","0.0-5.0-6.0","pilot-40_ses-03_2","","1500","0","probe","","<div class = centerbox><div class = img-container><img src = ""/static/experiments/dot_pattern_expectancy/images/probe4.png""</img></div></div>","89,71","500","AY","practice","1","71","true",""
"-1","-1","poldrack-single-stim","12","33113","0.0-5.0-7.0","pilot-40_ses-03_2","","500","0","feedback","","<div class = centerbox><div style=""color:#4FE829""; class = center-text>Correct!</div></div>","none","500","","practice","2","","",""
"-1","-1","poldrack-single-stim","13","33634","0.0-5.0-8.0","pilot-40_ses-03_2","","500","0","cue","","<div class = centerbox><div class = img-container><img src = ""/static/experiments/dot_pattern_expectancy/images/cue2.png""</img></div></div>","none","500","BX","practice","2","","",""
"-1","-1","poldrack-single-stim","14","35655","0.0-5.0-9.0","pilot-40_ses-03_2","","2000","0","fixation","","<div class = centerbox><div class = fixation>+</div></div>","none","2000","","practice","","","",""
"999","71","poldrack-single-stim","15","37773","0.0-5.0-10.0","pilot-40_ses-03_2","","2100","0","probe","","<div class = centerbox><div class = img-container><img src = ""/static/experiments/dot_pattern_expectancy/images/probe1.png""</img></div></div>","89,71","500","BX","practice","2","71","true",""
"-1","-1","poldrack-single-stim","16","38285","0.0-5.0-11.0","pilot-40_ses-03_2","","500","0","feedback","","<div class = centerbox><div style=""color:#4FE829""; class = center-text>Correct!</div></div>","none","500","","practice","3","","",""
"-1","-1","poldrack-single-stim","17","38795","0.0-5.0-12.0","pilot-40_ses-03_2","","500","0","cue","","<div class = centerbox><div class = img-container><img src = ""/static/experiments/dot_pattern_expectancy/images/cue3.png""</img></div></div>","none","500","BX","practice","3","","",""
"-1","-1","poldrack-single-stim","18","40805","0.0-5.0-13.0","pilot-40_ses-03_2","","2000","0","fixation","","<div class = centerbox><div class = fixation>+</div></div>","none","2000","","practice","","","",""
"513","71","poldrack-single-stim","19","42323","0.0-5.0-14.0","pilot-40_ses-03_2","","1500","0","probe","","<div class = centerbox><div class = img-container><img src = ""/static/experiments/dot_pattern_expectancy/images/probe1.png""</img></div></div>","89,71","500","BX","practice","3","71","true",""
"-1","-1","poldrack-single-stim","20","42845","0.0-5.0-15.0","pilot-40_ses-03_2","","500","0","feedback","","<div class = centerbox><div style=""color:#4FE829""; class = center-text>Correct!</div></div>","none","500","","practice","4","","",""
"-1","-1","poldrack-single-stim","21","43364","0.0-5.0-16.0","pilot-40_ses-03_2","","500","0","cue","","<div class = centerbox><div class = img-container><img src = ""/static/experiments/dot_pattern_expectancy/images/cue4.png""</img></div></div>","none","500","AX","practice","4","","",""
"-1","-1","poldrack-single-stim","22","45383","0.0-5.0-17.0","pilot-40_ses-03_2","","2000","0","fixation","","<div class = centerbox><div class = fixation>+</div></div>","none","2000","","practice","","","",""
"478","89","poldrack-single-stim","23","46903","0.0-5.0-18.0","pilot-40_ses-03_2","","1500","0","probe","","<div class = centerbox><div class = img-container><img src = ""/static/experiments/dot_pattern_expectancy/images/probe1.png""</img></div></div>","89,71","500","AX","practice","4","89","true",""
"-1","-1","poldrack-single-stim","24","47425","0.0-5.0-19.0","pilot-40_ses-03_2","","500","0","feedback","","<div class = centerbox><div style=""color:#4FE829""; class = center-text>Correct!</div></div>","none","500","","practice","5","","",""
"-1","-1","poldrack-single-stim","25","47944","0.0-5.0-20.0","pilot-40_ses-03_2","","500","0","cue","","<div class = centerbox><div class = img-container><img src = ""/static/experiments/dot_pattern_expectancy/images/cue5.png""</img></div></div>","none","500","BY","practice","5","","",""
"-1","-1","poldrack-single-stim","26","49962","0.0-5.0-21.0","pilot-40_ses-03_2","","2000","0","fixation","","<div class = centerbox><div class = fixation>+</div></div>","none","2000","","practice","","","",""
"1005","71","poldrack-single-stim","27","51483","0.0-5.0-22.0","pilot-40_ses-03_2","","1500","0","probe","","<div class = centerbox><div class = img-container><img src = ""/static/experiments/dot_pattern_expectancy/images/probe4.png""</img></div></div>","89,71","500","BY","practice","5","71","true",""
"-1","-1","poldrack-single-stim","28","52004","0.0-5.0-23.0","pilot-40_ses-03_2","","500","0","feedback","","<div class = centerbox><div style=""color:#4FE829""; class = center-text>Correct!</div></div>","none","500","","practice","6","","",""
"-1","-1","poldrack-single-stim","29","52524","0.0-5.0-24.0","pilot-40_ses-03_2","","500","0","cue","","<div class = centerbox><div class = img-container><img src = ""/static/experiments/dot_pattern_expectancy/images/cue4.png""</img></div></div>","none","500","AY","practice","6","","",""
"-1","-1","poldrack-single-stim","30","54545","0.0-5.0-25.0","pilot-40_ses-03_2","","2000","0","fixation","","<div class = centerbox><div class = fixation>+</div></div>","none","2000","","practice","","","",""
"994","71","poldrack-single-stim","31","57053","0.0-5.0-26.0","pilot-40_ses-03_2","","2500","0","probe","","<div class = centerbox><div class = img-container><img src = ""/static/experiments/dot_pattern_expectancy/images/probe5.png""</img></div></div>","89,71","500","AY","practice","6","71","true",""
"-1","-1","poldrack-single-stim","32","57563","0.0-5.0-27.0","pilot-40_ses-03_2","","500","0","feedback","","<div class = centerbox><div style=""color:#4FE829""; class = center-text>Correct!</div></div>","none","500","","practice","7","","",""
"-1","-1","poldrack-single-stim","33","58075","0.0-5.0-28.0","pilot-40_ses-03_2","","500","0","cue","","<div class = centerbox><div class = img-container><img src = ""/static/experiments/dot_pattern_expectancy/images/cue4.png""</img></div></div>","none","500","AX","practice","7","","",""
"-1","-1","poldrack-single-stim","34","60084","0.0-5.0-29.0","pilot-40_ses-03_2","","2000","0","fixation","","<div class = centerbox><div class = fixation>+</div></div>","none","2000","","practice","","","",""
"500","89","poldrack-single-stim","35","61803","0.0-5.0-30.0","pilot-40_ses-03_2","","1700","0","probe","","<div class = centerbox><div class = img-container><img src = ""/static/experiments/dot_pattern_expectancy/images/probe1.png""</img></div></div>","89,71","500","AX","practice","7","89","true",""
"-1","-1","poldrack-single-stim","36","62324","0.0-5.0-31.0","pilot-40_ses-03_2","","500","0","feedback","","<div class = centerbox><div style=""color:#4FE829""; class = center-text>Correct!</div></div>","none","500","","practice","8","","",""
"-1","-1","poldrack-single-stim","37","62845","0.0-5.0-32.0","pilot-40_ses-03_2","","500","0","cue","","<div class = centerbox><div class = img-container><img src = ""/static/experiments/dot_pattern_expectancy/images/cue3.png""</img></div></div>","none","500","BY","practice","8","","",""
"-1","-1","poldrack-single-stim","38","64865","0.0-5.0-33.0","pilot-40_ses-03_2","","2000","0","fixation","","<div class = centerbox><div class = fixation>+</div></div>","none","2000","","practice","","","",""
"527","71","poldrack-single-stim","39","66383","0.0-5.0-34.0","pilot-40_ses-03_2","","1500","0","probe","","<div class = centerbox><div class = img-container><img src = ""/static/experiments/dot_pattern_expectancy/images/probe3.png""</img></div></div>","89,71","500","BY","practice","8","71","true",""
"-1","-1","poldrack-single-stim","40","66903","0.0-5.0-35.0","pilot-40_ses-03_2","","500","0","feedback","","<div class = centerbox><div style=""color:#4FE829""; class = center-text>Correct!</div></div>","none","500","","practice","9","","",""
"-1","-1","poldrack-single-stim","41","67425","0.0-5.0-36.0","pilot-40_ses-03_2","","500","0","cue","","<div class = centerbox><div class = img-container><img src = ""/static/experiments/dot_pattern_expectancy/images/cue4.png""</img></div></div>","none","500","AX","practice","9","","",""
"-1","-1","poldrack-single-stim","42","69443","0.0-5.0-37.0","pilot-40_ses-03_2","","2000","0","fixation","","<div class = centerbox><div class = fixation>+</div></div>","none","2000","","practice","","","",""
"434","89","poldrack-single-stim","43","71363","0.0-5.0-38.0","pilot-40_ses-03_2","","1900","0","probe","","<div class = centerbox><div class = img-container><img src = ""/static/experiments/dot_pattern_expectancy/images/probe1.png""</img></div></div>","89,71","500","AX","practice","9","89","true",""
"-1","-1","poldrack-single-stim","44","71885","0.0-5.0-39.0","pilot-40_ses-03_2","","500","0","feedback","","<div class = centerbox><div style=""color:#4FE829""; class = center-text>Correct!</div></div>","none","500","","practice","10","","",""
"7116","32","poldrack-text","45","79007","0.0-6.0","pilot-40_ses-03_2","<div class = centerbox><div  class = center-text>Scanner Setup</div></div>","7116","0","fmri_scanner_wait","","","","","","","","","",""
"59227","84","poldrack-text","46","138237","0.0-7.0","pilot-40_ses-03_2","<div class = centerbox><div style='color:red'; class = center-text>+</div></div>","59227","0","fmri_trigger_wait","","","","","","","","","",""
"-1","-1","poldrack-single-stim","47","139244","0.0-8.0","pilot-40_ses-03_2","","1000","0","fmri_buffer","","","none","1000","","","","","",""
"-1","-1","poldrack-single-stim","48","140765","0.0-9.0","pilot-40_ses-03_2","","1500","500","test_start_block","","<div class = centerbox><div class = center-text>Preparez-vous!</p></div>","none","1500","","","","","",""
"-1","-1","poldrack-single-stim","49","141805","0.0-10.0","pilot-40_ses-03_2","","500","0","cue","","<div class = centerbox><div class = img-container><img src = ""/static/experiments/dot_pattern_expectancy/images/cue6.png""</img></div></div>","none","500","BY","test","0","","",""
"-1","-1","poldrack-single-stim","50","143825","0.0-11.0","pilot-40_ses-03_2","","2000","0","fixation","","<div class = centerbox><div class = fixation>+</div></div>","none","2000","","test","","","",""
"564","71","poldrack-single-stim","51","145483","0.0-12.0","pilot-40_ses-03_2","","1636","0","probe","","<div class = centerbox><div class = img-container><img src = ""/static/experiments/dot_pattern_expectancy/images/probe6.png""</img></div></div>","89,71","500","BY","test","0","71","true",""
"-1","-1","poldrack-single-stim","52","146005","0.0-13.0","pilot-40_ses-03_2","","500","0","cue","","<div class = centerbox><div class = img-container><img src = ""/static/experiments/dot_pattern_expectancy/images/cue4.png""</img></div></div>","none","500","AY","test","1","","",""
"-1","-1","poldrack-single-stim","53","148025","0.0-14.0","pilot-40_ses-03_2","","2000","0","fixation","","<div class = centerbox><div class = fixation>+</div></div>","none","2000","","test","","","",""
"520","71","poldrack-single-stim","54","149543","0.0-15.0","pilot-40_ses-03_2","","1500","0","probe","","<div class = centerbox><div class = img-container><img src = ""/static/experiments/dot_pattern_expectancy/images/probe6.png""</img></div></div>","89,71","500","AY","test","1","71","true",""
"-1","-1","poldrack-single-stim","55","150065","0.0-16.0","pilot-40_ses-03_2","","500","0","cue","","<div class = centerbox><div class = img-container><img src = ""/static/experiments/dot_pattern_expectancy/images/cue4.png""</img></div></div>","none","500","AX","test","2","","",""
"-1","-1","poldrack-single-stim","56","152084","0.0-17.0","pilot-40_ses-03_2","","2000","0","fixation","","<div class = centerbox><div class = fixation>+</div></div>","none","2000","","test","","","",""
"511","89","poldrack-single-stim","57","154134","0.0-18.0","pilot-40_ses-03_2","","2044","0","probe","","<div class = centerbox><div class = img-container><img src = ""/static/experiments/dot_pattern_expectancy/images/probe1.png""</img></div></div>","89,71","500","AX","test","2","89","true",""
"-1","-1","poldrack-single-stim","58","154654","0.0-19.0","pilot-40_ses-03_2","","500","0","cue","","<div class = centerbox><div class = img-container><img src = ""/static/experiments/dot_pattern_expectancy/images/cue6.png""</img></div></div>","none","500","BY","test","3","","",""
"-1","-1","poldrack-single-stim","59","156674","0.0-20.0","pilot-40_ses-03_2","","2000","0","fixation","","<div class = centerbox><div class = fixation>+</div></div>","none","2000","","test","","","",""
"436","71","poldrack-single-stim","60","158455","0.0-21.0","pilot-40_ses-03_2","","1772","0","probe","","<div class = centerbox><div class = img-container><img src = ""/static/experiments/dot_pattern_expectancy/images/probe5.png""</img></div></div>","89,71","500","BY","test","3","71","true",""
"-1","-1","poldrack-single-stim","61","158973","0.0-22.0","pilot-40_ses-03_2","","500","0","cue","","<div class = centerbox><div class = img-container><img src = ""/static/experiments/dot_pattern_expectancy/images/cue1.png""</img></div></div>","none","500","BX","test","4","","",""
"-1","-1","poldrack-single-stim","62","160995","0.0-23.0","pilot-40_ses-03_2","","2000","0","fixation","","<div class = centerbox><div class = fixation>+</div></div>","none","2000","","test","","","",""
"584","71","poldrack-single-stim","63","162653","0.0-24.0","pilot-40_ses-03_2","","1636","0","probe","","<div class = centerbox><div class = img-container><img src = ""/static/experiments/dot_pattern_expectancy/images/probe1.png""</img></div></div>","89,71","500","BX","test","4","71","true",""
"-1","-1","poldrack-single-stim","64","163175","0.0-25.0","pilot-40_ses-03_2","","500","0","cue","","<div class = centerbox><div class = img-container><img src = ""/static/experiments/dot_pattern_expectancy/images/cue4.png""</img></div></div>","none","500","AX","test","5","","",""
"-1","-1","poldrack-single-stim","65","165185","0.0-26.0","pilot-40_ses-03_2","","2000","0","fixation","","<div class = centerbox><div class = fixation>+</div></div>","none","2000","","test","","","",""
"573","89","poldrack-single-stim","66","166845","0.0-27.0","pilot-40_ses-03_2","","1636","0","probe","","<div class = centerbox><div class = img-container><img src = ""/static/experiments/dot_pattern_expectancy/images/probe1.png""</img></div></div>","89,71","500","AX","test","5","89","true",""
"-1","-1","poldrack-single-stim","67","167365","0.0-28.0","pilot-40_ses-03_2","","500","0","cue","","<div class = centerbox><div class = img-container><img src = ""/static/experiments/dot_pattern_expectancy/images/cue4.png""</img></div></div>","none","500","AX","test","6","","",""
"-1","-1","poldrack-single-stim","68","169372","0.0-29.0","pilot-40_ses-03_2","","2000","0","fixation","","<div class = centerbox><div class = fixation>+</div></div>","none","2000","","test","","","",""
"444","89","poldrack-single-stim","69","170874","0.0-30.0","pilot-40_ses-03_2","","1500","0","probe","","<div class = centerbox><div class = img-container><img src = ""/static/experiments/dot_pattern_expectancy/images/probe1.png""</img></div></div>","89,71","500","AX","test","6","89","true",""
"-1","-1","poldrack-single-stim","70","171383","0.0-31.0","pilot-40_ses-03_2","","500","0","cue","","<div class = centerbox><div class = img-container><img src = ""/static/experiments/dot_pattern_expectancy/images/cue4.png""</img></div></div>","none","500","AX","test","7","","",""
"-1","-1","poldrack-single-stim","71","173395","0.0-32.0","pilot-40_ses-03_2","","2000","0","fixation","","<div class = centerbox><div class = fixation>+</div></div>","none","2000","","test","","","",""
"442","89","poldrack-single-stim","72","174914","0.0-33.0","pilot-40_ses-03_2","","1500","0","probe","","<div class = centerbox><div class = img-container><img src = ""/static/experiments/dot_pattern_expectancy/images/probe1.png""</img></div></div>","89,71","500","AX","test","7","89","true",""
"-1","-1","poldrack-single-stim","73","175434","0.0-34.0","pilot-40_ses-03_2","","500","0","cue","","<div class = centerbox><div class = img-container><img src = ""/static/experiments/dot_pattern_expectancy/images/cue4.png""</img></div></div>","none","500","AY","test","8","","",""
"-1","-1","poldrack-single-stim","74","177443","0.0-35.0","pilot-40_ses-03_2","","2000","0","fixation","","<div class = centerbox><div class = fixation>+</div></div>","none","2000","","test","","","",""
"512","71","poldrack-single-stim","75","179503","0.0-36.0","pilot-40_ses-03_2","","2044","0","probe","","<div class = centerbox><div class = img-container><img src = ""/static/experiments/dot_pattern_expectancy/images/probe4.png""</img></div></div>","89,71","500","AY","test","8","71","true",""
"-1","-1","poldrack-single-stim","76","180013","0.0-37.0","pilot-40_ses-03_2","","500","0","cue","","<div class = centerbox><div class = img-container><img src = ""/static/experiments/dot_pattern_expectancy/images/cue4.png""</img></div></div>","none","500","AX","test","9","","",""
"-1","-1","poldrack-single-stim","77","182035","0.0-38.0","pilot-40_ses-03_2","","2000","0","fixation","","<div class = centerbox><div class = fixation>+</div></div>","none","2000","","test","","","",""
"476","89","poldrack-single-stim","78","184504","0.0-39.0","pilot-40_ses-03_2","","2452","0","probe","","<div class = centerbox><div class = img-container><img src = ""/static/experiments/dot_pattern_expectancy/images/probe1.png""</img></div></div>","89,71","500","AX","test","9","89","true",""
"-1","-1","poldrack-single-stim","79","185025","0.0-40.0","pilot-40_ses-03_2","","500","0","cue","","<div class = centerbox><div class = img-container><img src = ""/static/experiments/dot_pattern_expectancy/images/cue4.png""</img></div></div>","none","500","AX","test","10","","",""
"-1","-1","poldrack-single-stim","80","187033","0.0-41.0","pilot-40_ses-03_2","","2000","0","fixation","","<div class = centerbox><div class = fixation>+</div></div>","none","2000","","test","","","",""
"521","89","poldrack-single-stim","81","188964","0.0-42.0","pilot-40_ses-03_2","","1908","0","probe","","<div class = centerbox><div class = img-container><img src = ""/static/experiments/dot_pattern_expectancy/images/probe1.png""</img></div></div>","89,71","500","AX","test","10","89","true",""
"-1","-1","poldrack-single-stim","82","189484","0.0-43.0","pilot-40_ses-03_2","","500","0","cue","","<div class = centerbox><div class = img-container><img src = ""/static/experiments/dot_pattern_expectancy/images/cue4.png""</img></div></div>","none","500","AX","test","11","","",""
"-1","-1","poldrack-single-stim","83","191495","0.0-44.0","pilot-40_ses-03_2","","2000","0","fixation","","<div class = centerbox><div class = fixation>+</div></div>","none","2000","","test","","","",""
"561","89","poldrack-single-stim","84","193013","0.0-45.0","pilot-40_ses-03_2","","1500","0","probe","","<div class = centerbox><div class = img-container><img src = ""/static/experiments/dot_pattern_expectancy/images/probe1.png""</img></div></div>","89,71","500","AX","test","11","89","true",""
"-1","-1","poldrack-single-stim","85","193540","0.0-46.0","pilot-40_ses-03_2","","500","0","cue","","<div class = centerbox><div class = img-container><img src = ""/static/experiments/dot_pattern_expectancy/images/cue4.png""</img></div></div>","none","500","AX","test","12","","",""
"-1","-1","poldrack-single-stim","86","195555","0.0-47.0","pilot-40_ses-03_2","","2000","0","fixation","","<div class = centerbox><div class = fixation>+</div></div>","none","2000","","test","","","",""
"438","89","poldrack-single-stim","87","197474","0.0-48.0","pilot-40_ses-03_2","","1908","0","probe","","<div class = centerbox><div class = img-container><img src = ""/static/experiments/dot_pattern_expectancy/images/probe1.png""</img></div></div>","89,71","500","AX","test","12","89","true",""
"-1","-1","poldrack-single-stim","88","197995","0.0-49.0","pilot-40_ses-03_2","","500","0","cue","","<div class = centerbox><div class = img-container><img src = ""/static/experiments/dot_pattern_expectancy/images/cue3.png""</img></div></div>","none","500","BX","test","13","","",""
"-1","-1","poldrack-single-stim","89","200014","0.0-50.0","pilot-40_ses-03_2","","2000","0","fixation","","<div class = centerbox><div class = fixation>+</div></div>","none","2000","","test","","","",""
"390","71","poldrack-single-stim","90","202203","0.0-51.0","pilot-40_ses-03_2","","2180","0","probe","","<div class = centerbox><div class = img-container><img src = ""/static/experiments/dot_pattern_expectancy/images/probe1.png""</img></div></div>","89,71","500","BX","test","13","71","true",""
"-1","-1","poldrack-single-stim","91","202724","0.0-52.0","pilot-40_ses-03_2","","500","0","cue","","<div class = centerbox><div class = img-container><img src = ""/static/experiments/dot_pattern_expectancy/images/cue4.png""</img></div></div>","none","500","AX","test","14","","",""
"-1","-1","poldrack-single-stim","92","204734","0.0-53.0","pilot-40_ses-03_2","","2000","0","fixation","","<div class = centerbox><div class = fixation>+</div></div>","none","2000","","test","","","",""
"365","89","poldrack-single-stim","93","206243","0.0-54.0","pilot-40_ses-03_2","","1500","0","probe","","<div class = centerbox><div class = img-container><img src = ""/static/experiments/dot_pattern_expectancy/images/probe1.png""</img></div></div>","89,71","500","AX","test","14","89","true",""
"-1","-1","poldrack-single-stim","94","206763","0.0-55.0","pilot-40_ses-03_2","","500","0","cue","","<div class = centerbox><div class = img-container><img src = ""/static/experiments/dot_pattern_expectancy/images/cue5.png""</img></div></div>","none","500","BY","test","15","","",""
"-1","-1","poldrack-single-stim","95","208783","0.0-56.0","pilot-40_ses-03_2","","2000","0","fixation","","<div class = centerbox><div class = fixation>+</div></div>","none","2000","","test","","","",""
"343","71","poldrack-single-stim","96","210706","0.0-57.0","pilot-40_ses-03_2","","1908","0","probe","","<div class = centerbox><div class = img-container><img src = ""/static/experiments/dot_pattern_expectancy/images/probe3.png""</img></div></div>","89,71","500","BY","test","15","71","true",""
"-1","-1","poldrack-single-stim","97","211224","0.0-58.0","pilot-40_ses-03_2","","500","0","cue","","<div class = centerbox><div class = img-container><img src = ""/static/experiments/dot_pattern_expectancy/images/cue6.png""</img></div></div>","none","500","BX","test","16","","",""
"-1","-1","poldrack-single-stim","98","213245","0.0-59.0","pilot-40_ses-03_2","","2000","0","fixation","","<div class = centerbox><div class = fixation>+</div></div>","none","2000","","test","","","",""
"486","89","poldrack-single-stim","99","215583","0.0-60.0","pilot-40_ses-03_2","","2316","0","probe","","<div class = centerbox><div class = img-container><img src = ""/static/experiments/dot_pattern_expectancy/images/probe1.png""</img></div></div>","89,71","500","BX","test","16","71","false",""
"-1","-1","poldrack-single-stim","100","216104","0.0-61.0","pilot-40_ses-03_2","","500","0","cue","","<div class = centerbox><div class = img-container><img src = ""/static/experiments/dot_pattern_expectancy/images/cue4.png""</img></div></div>","none","500","AY","test","17","","",""
"-1","-1","poldrack-single-stim","101","218125","0.0-62.0","pilot-40_ses-03_2","","2000","0","fixation","","<div class = centerbox><div class = fixation>+</div></div>","none","2000","","test","","","",""
"444","71","poldrack-single-stim","102","220454","0.0-63.0","pilot-40_ses-03_2","","2316","0","probe","","<div class = centerbox><div class = img-container><img src = ""/static/experiments/dot_pattern_expectancy/images/probe2.png""</img></div></div>","89,71","500","AY","test","17","71","true",""
"-1","-1","poldrack-single-stim","103","220975","0.0-64.0","pilot-40_ses-03_2","","500","0","cue","","<div class = centerbox><div class = img-container><img src = ""/static/experiments/dot_pattern_expectancy/images/cue6.png""</img></div></div>","none","500","BX","test","18","","",""
"-1","-1","poldrack-single-stim","104","222984","0.0-65.0","pilot-40_ses-03_2","","2000","0","fixation","","<div class = centerbox><div class = fixation>+</div></div>","none","2000","","test","","","",""
"708","71","poldrack-single-stim","105","224633","0.0-66.0","pilot-40_ses-03_2","","1636","0","probe","","<div class = centerbox><div class = img-container><img src = ""/static/experiments/dot_pattern_expectancy/images/probe1.png""</img></div></div>","89,71","500","BX","test","18","71","true",""
"-1","-1","poldrack-single-stim","106","225154","0.0-67.0","pilot-40_ses-03_2","","500","0","cue","","<div class = centerbox><div class = img-container><img src = ""/static/experiments/dot_pattern_expectancy/images/cue4.png""</img></div></div>","none","500","AY","test","19","","",""
"-1","-1","poldrack-single-stim","107","227174","0.0-68.0","pilot-40_ses-03_2","","2000","0","fixation","","<div class = centerbox><div class = fixation>+</div></div>","none","2000","","test","","","",""
"-1","-1","poldrack-single-stim","108","228693","0.0-69.0","pilot-40_ses-03_2","","1500","0","probe","","<div class = centerbox><div class = img-container><img src = ""/static/experiments/dot_pattern_expectancy/images/probe3.png""</img></div></div>","89,71","500","AY","test","19","71","false",""
"-1","-1","poldrack-single-stim","109","229215","0.0-70.0","pilot-40_ses-03_2","","500","0","cue","","<div class = centerbox><div class = img-container><img src = ""/static/experiments/dot_pattern_expectancy/images/cue2.png""</img></div></div>","none","500","BY","test","20","","",""
"-1","-1","poldrack-single-stim","110","231235","0.0-71.0","pilot-40_ses-03_2","","2000","0","fixation","","<div class = centerbox><div class = fixation>+</div></div>","none","2000","","test","","","",""
"319","71","poldrack-single-stim","111","233164","0.0-72.0","pilot-40_ses-03_2","","1908","0","probe","","<div class = centerbox><div class = img-container><img src = ""/static/experiments/dot_pattern_expectancy/images/probe3.png""</img></div></div>","89,71","500","BY","test","20","71","true",""
"-1","-1","poldrack-single-stim","112","233674","0.0-73.0","pilot-40_ses-03_2","","500","0","cue","","<div class = centerbox><div class = img-container><img src = ""/static/experiments/dot_pattern_expectancy/images/cue4.png""</img></div></div>","none","500","AX","test","21","","",""
"-1","-1","poldrack-single-stim","113","235695","0.0-74.0","pilot-40_ses-03_2","","2000","0","fixation","","<div class = centerbox><div class = fixation>+</div></div>","none","2000","","test","","","",""
"537","89","poldrack-single-stim","114","237213","0.0-75.0","pilot-40_ses-03_2","","1500","0","probe","","<div class = centerbox><div class = img-container><img src = ""/static/experiments/dot_pattern_expectancy/images/probe1.png""</img></div></div>","89,71","500","AX","test","21","89","true",""
"-1","-1","poldrack-single-stim","115","237735","0.0-76.0","pilot-40_ses-03_2","","500","0","cue","","<div class = centerbox><div class = img-container><img src = ""/static/experiments/dot_pattern_expectancy/images/cue4.png""</img></div></div>","none","500","AY","test","22","","",""
"-1","-1","poldrack-single-stim","116","239744","0.0-77.0","pilot-40_ses-03_2","","2000","0","fixation","","<div class = centerbox><div class = fixation>+</div></div>","none","2000","","test","","","",""
"662","71","poldrack-single-stim","117","242064","0.0-78.0","pilot-40_ses-03_2","","2316","0","probe","","<div class = centerbox><div class = img-container><img src = ""/static/experiments/dot_pattern_expectancy/images/probe2.png""</img></div></div>","89,71","500","AY","test","22","71","true",""
"-1","-1","poldrack-single-stim","118","242584","0.0-79.0","pilot-40_ses-03_2","","500","0","cue","","<div class = centerbox><div class = img-container><img src = ""/static/experiments/dot_pattern_expectancy/images/cue4.png""</img></div></div>","none","500","AX","test","23","","",""
"-1","-1","poldrack-single-stim","119","244605","0.0-80.0","pilot-40_ses-03_2","","2000","0","fixation","","<div class = centerbox><div class = fixation>+</div></div>","none","2000","","test","","","",""
"679","71","poldrack-single-stim","120","246122","0.0-81.0","pilot-40_ses-03_2","","1500","0","probe","","<div class = centerbox><div class = img-container><img src = ""/static/experiments/dot_pattern_expectancy/images/probe1.png""</img></div></div>","89,71","500","AX","test","23","89","false",""
"-1","-1","poldrack-single-stim","121","246644","0.0-82.0","pilot-40_ses-03_2","","500","0","cue","","<div class = centerbox><div class = img-container><img src = ""/static/experiments/dot_pattern_expectancy/images/cue4.png""</img></div></div>","none","500","AY","test","24","","",""
"-1","-1","poldrack-single-stim","122","248659","0.0-83.0","pilot-40_ses-03_2","","2000","0","fixation","","<div class = centerbox><div class = fixation>+</div></div>","none","2000","","test","","","",""
"546","71","poldrack-single-stim","123","251394","0.0-84.0","pilot-40_ses-03_2","","2724","0","probe","","<div class = centerbox><div class = img-container><img src = ""/static/experiments/dot_pattern_expectancy/images/probe6.png""</img></div></div>","89,71","500","AY","test","24","71","true",""
"-1","-1","poldrack-single-stim","124","251914","0.0-85.0","pilot-40_ses-03_2","","500","0","cue","","<div class = centerbox><div class = img-container><img src = ""/static/experiments/dot_pattern_expectancy/images/cue4.png""</img></div></div>","none","500","AX","test","25","","",""
"-1","-1","poldrack-single-stim","125","253925","0.0-86.0","pilot-40_ses-03_2","","2000","0","fixation","","<div class = centerbox><div class = fixation>+</div></div>","none","2000","","test","","","",""
"482","89","poldrack-single-stim","126","255444","0.0-87.0","pilot-40_ses-03_2","","1500","0","probe","","<div class = centerbox><div class = img-container><img src = ""/static/experiments/dot_pattern_expectancy/images/probe1.png""</img></div></div>","89,71","500","AX","test","25","89","true",""
"-1","-1","poldrack-single-stim","127","255964","0.0-88.0","pilot-40_ses-03_2","","500","0","cue","","<div class = centerbox><div class = img-container><img src = ""/static/experiments/dot_pattern_expectancy/images/cue4.png""</img></div></div>","none","500","AX","test","26","","",""
"-1","-1","poldrack-single-stim","128","257982","0.0-89.0","pilot-40_ses-03_2","","2000","0","fixation","","<div class = centerbox><div class = fixation>+</div></div>","none","2000","","test","","","",""
"449","89","poldrack-single-stim","129","259624","0.0-90.0","pilot-40_ses-03_2","","1636","0","probe","","<div class = centerbox><div class = img-container><img src = ""/static/experiments/dot_pattern_expectancy/images/probe1.png""</img></div></div>","89,71","500","AX","test","26","89","true",""
"-1","-1","poldrack-single-stim","130","260144","0.0-91.0","pilot-40_ses-03_2","","500","0","cue","","<div class = centerbox><div class = img-container><img src = ""/static/experiments/dot_pattern_expectancy/images/cue4.png""</img></div></div>","none","500","AX","test","27","","",""
"-1","-1","poldrack-single-stim","131","262165","0.0-92.0","pilot-40_ses-03_2","","2000","0","fixation","","<div class = centerbox><div class = fixation>+</div></div>","none","2000","","test","","","",""
"417","89","poldrack-single-stim","132","263823","0.0-93.0","pilot-40_ses-03_2","","1636","0","probe","","<div class = centerbox><div class = img-container><img src = ""/static/experiments/dot_pattern_expectancy/images/probe1.png""</img></div></div>","89,71","500","AX","test","27","89","true",""
"-1","-1","poldrack-single-stim","133","264344","0.0-94.0","pilot-40_ses-03_2","","500","0","cue","","<div class = centerbox><div class = img-container><img src = ""/static/experiments/dot_pattern_expectancy/images/cue4.png""</img></div></div>","none","500","AX","test","28","","",""
"-1","-1","poldrack-single-stim","134","266354","0.0-95.0","pilot-40_ses-03_2","","2000","0","fixation","","<div class = centerbox><div class = fixation>+</div></div>","none","2000","","test","","","",""
"330","89","poldrack-single-stim","135","268134","0.0-96.0","pilot-40_ses-03_2","","1772","0","probe","","<div class = centerbox><div class = img-container><img src = ""/static/experiments/dot_pattern_expectancy/images/probe1.png""</img></div></div>","89,71","500","AX","test","28","89","true",""
"-1","-1","poldrack-single-stim","136","268653","0.0-97.0","pilot-40_ses-03_2","","500","0","cue","","<div class = centerbox><div class = img-container><img src = ""/static/experiments/dot_pattern_expectancy/images/cue6.png""</img></div></div>","none","500","BY","test","29","","",""
"-1","-1","poldrack-single-stim","137","270675","0.0-98.0","pilot-40_ses-03_2","","2000","0","fixation","","<div class = centerbox><div class = fixation>+</div></div>","none","2000","","test","","","",""
"389","71","poldrack-single-stim","138","272464","0.0-99.0","pilot-40_ses-03_2","","1772","0","probe","","<div class = centerbox><div class = img-container><img src = ""/static/experiments/dot_pattern_expectancy/images/probe6.png""</img></div></div>","89,71","500","BY","test","29","71","true",""
"-1","-1","poldrack-single-stim","139","272975","0.0-100.0","pilot-40_ses-03_2","","500","0","cue","","<div class = centerbox><div class = img-container><img src = ""/static/experiments/dot_pattern_expectancy/images/cue4.png""</img></div></div>","none","500","AX","test","30","","",""
"-1","-1","poldrack-single-stim","140","274995","0.0-101.0","pilot-40_ses-03_2","","2000","0","fixation","","<div class = centerbox><div class = fixation>+</div></div>","none","2000","","test","","","",""
"407","89","poldrack-single-stim","141","276513","0.0-102.0","pilot-40_ses-03_2","","1500","0","probe","","<div class = centerbox><div class = img-container><img src = ""/static/experiments/dot_pattern_expectancy/images/probe1.png""</img></div></div>","89,71","500","AX","test","30","89","true",""
"-1","-1","poldrack-single-stim","142","277034","0.0-103.0","pilot-40_ses-03_2","","500","0","cue","","<div class = centerbox><div class = img-container><img src = ""/static/experiments/dot_pattern_expectancy/images/cue6.png""</img></div></div>","none","500","BY","test","31","","",""
"-1","-1","poldrack-single-stim","143","279054","0.0-104.0","pilot-40_ses-03_2","","2000","0","fixation","","<div class = centerbox><div class = fixation>+</div></div>","none","2000","","test","","","",""
"690","71","poldrack-single-stim","144","281515","0.0-105.0","pilot-40_ses-03_2","","2452","0","probe","","<div class = centerbox><div class = img-container><img src = ""/static/experiments/dot_pattern_expectancy/images/probe3.png""</img></div></div>","89,71","500","BY","test","31","71","true",""
"-1","-1","poldrack-single-stim","145","282025","0.0-106.0","pilot-40_ses-03_2","","500","0","cue","","<div class = centerbox><div class = img-container><img src = ""/static/experiments/dot_pattern_expectancy/images/cue4.png""</img></div></div>","none","500","AX","test","32","","",""
"-1","-1","poldrack-single-stim","146","284045","0.0-107.0","pilot-40_ses-03_2","","2000","0","fixation","","<div class = centerbox><div class = fixation>+</div></div>","none","2000","","test","","","",""
"769","89","poldrack-single-stim","147","285683","0.0-108.0","pilot-40_ses-03_2","","1636","0","probe","","<div class = centerbox><div class = img-container><img src = ""/static/experiments/dot_pattern_expectancy/images/probe1.png""</img></div></div>","89,71","500","AX","test","32","89","true",""
"-1","-1","poldrack-single-stim","148","286205","0.0-109.0","pilot-40_ses-03_2","","500","0","cue","","<div class = centerbox><div class = img-container><img src = ""/static/experiments/dot_pattern_expectancy/images/cue4.png""</img></div></div>","none","500","AX","test","33","","",""
"-1","-1","poldrack-single-stim","149","288225","0.0-110.0","pilot-40_ses-03_2","","2000","0","fixation","","<div class = centerbox><div class = fixation>+</div></div>","none","2000","","test","","","",""
"496","89","poldrack-single-stim","150","289883","0.0-111.0","pilot-40_ses-03_2","","1636","0","probe","","<div class = centerbox><div class = img-container><img src = ""/static/experiments/dot_pattern_expectancy/images/probe1.png""</img></div></div>","89,71","500","AX","test","33","89","true",""
"-1","-1","poldrack-single-stim","151","290405","0.0-112.0","pilot-40_ses-03_2","","500","0","cue","","<div class = centerbox><div class = img-container><img src = ""/static/experiments/dot_pattern_expectancy/images/cue6.png""</img></div></div>","none","500","BX","test","34","","",""
"-1","-1","poldrack-single-stim","152","292424","0.0-113.0","pilot-40_ses-03_2","","2000","0","fixation","","<div class = centerbox><div class = fixation>+</div></div>","none","2000","","test","","","",""
"570","71","poldrack-single-stim","153","293943","0.0-114.0","pilot-40_ses-03_2","","1500","0","probe","","<div class = centerbox><div class = img-container><img src = ""/static/experiments/dot_pattern_expectancy/images/probe1.png""</img></div></div>","89,71","500","BX","test","34","71","true",""
"-1","-1","poldrack-single-stim","154","294465","0.0-115.0","pilot-40_ses-03_2","","500","0","cue","","<div class = centerbox><div class = img-container><img src = ""/static/experiments/dot_pattern_expectancy/images/cue3.png""</img></div></div>","none","500","BX","test","35","","",""
"-1","-1","poldrack-single-stim","155","296485","0.0-116.0","pilot-40_ses-03_2","","2000","0","fixation","","<div class = centerbox><div class = fixation>+</div></div>","none","2000","","test","","","",""
"366","71","poldrack-single-stim","156","298003","0.0-117.0","pilot-40_ses-03_2","","1500","0","probe","","<div class = centerbox><div class = img-container><img src = ""/static/experiments/dot_pattern_expectancy/images/probe1.png""</img></div></div>","89,71","500","BX","test","35","71","true",""
"-1","-1","poldrack-single-stim","157","298524","0.0-118.0","pilot-40_ses-03_2","","500","0","cue","","<div class = centerbox><div class = img-container><img src = ""/static/experiments/dot_pattern_expectancy/images/cue4.png""</img></div></div>","none","500","AX","test","36","","",""
"-1","-1","poldrack-single-stim","158","300535","0.0-119.0","pilot-40_ses-03_2","","2000","0","fixation","","<div class = centerbox><div class = fixation>+</div></div>","none","2000","","test","","","",""
"419","89","poldrack-single-stim","159","302854","0.0-120.0","pilot-40_ses-03_2","","2316","0","probe","","<div class = centerbox><div class = img-container><img src = ""/static/experiments/dot_pattern_expectancy/images/probe1.png""</img></div></div>","89,71","500","AX","test","36","89","true",""
"-1","-1","poldrack-single-stim","160","303373","0.0-121.0","pilot-40_ses-03_2","","500","0","cue","","<div class = centerbox><div class = img-container><img src = ""/static/experiments/dot_pattern_expectancy/images/cue4.png""</img></div></div>","none","500","AY","test","37","","",""
"-1","-1","poldrack-single-stim","161","305394","0.0-122.0","pilot-40_ses-03_2","","2000","0","fixation","","<div class = centerbox><div class = fixation>+</div></div>","none","2000","","test","","","",""
"597","71","poldrack-single-stim","162","307454","0.0-123.0","pilot-40_ses-03_2","","2044","0","probe","","<div class = centerbox><div class = img-container><img src = ""/static/experiments/dot_pattern_expectancy/images/probe4.png""</img></div></div>","89,71","500","AY","test","37","71","true",""
"-1","-1","poldrack-single-stim","163","307964","0.0-124.0","pilot-40_ses-03_2","","500","0","cue","","<div class = centerbox><div class = img-container><img src = ""/static/experiments/dot_pattern_expectancy/images/cue4.png""</img></div></div>","none","500","AX","test","38","","",""
"-1","-1","poldrack-single-stim","164","309974","0.0-125.0","pilot-40_ses-03_2","","2000","0","fixation","","<div class = centerbox><div class = fixation>+</div></div>","none","2000","","test","","","",""
"480","89","poldrack-single-stim","165","313937","0.0-126.0","pilot-40_ses-03_2","","3948","0","probe","","<div class = centerbox><div class = img-container><img src = ""/static/experiments/dot_pattern_expectancy/images/probe1.png""</img></div></div>","89,71","500","AX","test","38","89","true",""
"-1","-1","poldrack-single-stim","166","314454","0.0-127.0","pilot-40_ses-03_2","","500","0","cue","","<div class = centerbox><div class = img-container><img src = ""/static/experiments/dot_pattern_expectancy/images/cue4.png""</img></div></div>","none","500","AX","test","39","","",""
"-1","-1","poldrack-single-stim","167","316474","0.0-128.0","pilot-40_ses-03_2","","2000","0","fixation","","<div class = centerbox><div class = fixation>+</div></div>","none","2000","","test","","","",""
"569","89","poldrack-single-stim","168","318113","0.0-129.0","pilot-40_ses-03_2","","1636","0","probe","","<div class = centerbox><div class = img-container><img src = ""/static/experiments/dot_pattern_expectancy/images/probe1.png""</img></div></div>","89,71","500","AX","test","39","89","true",""
"-1","-1","poldrack-single-stim","169","325623","0.0-130.0","pilot-40_ses-03_2","","7500","1000","rest_block","","<div class = centerbox><div class = center-text>+</div></div>","none","7500","","","","","",""
"-1","-1","poldrack-single-stim","170","328164","0.0-131.0","pilot-40_ses-03_2","","1500","500","test_start_block","","<div class = centerbox><div class = center-text>Preparez-vous!</p></div>","none","1500","","","","","",""
"-1","-1","poldrack-single-stim","171","329194","0.0-132.0","pilot-40_ses-03_2","","500","0","cue","","<div class = centerbox><div class = img-container><img src = ""/static/experiments/dot_pattern_expectancy/images/cue4.png""</img></div></div>","none","500","AY","test","0","","",""
"-1","-1","poldrack-single-stim","172","331216","0.0-133.0","pilot-40_ses-03_2","","2000","0","fixation","","<div class = centerbox><div class = fixation>+</div></div>","none","2000","","test","","","",""
"563","71","poldrack-single-stim","173","332873","0.0-134.0","pilot-40_ses-03_2","","1636","0","probe","","<div class = centerbox><div class = img-container><img src = ""/static/experiments/dot_pattern_expectancy/images/probe4.png""</img></div></div>","89,71","500","AY","test","0","71","true",""
"-1","-1","poldrack-single-stim","174","333395","0.0-135.0","pilot-40_ses-03_2","","500","0","cue","","<div class = centerbox><div class = img-container><img src = ""/static/experiments/dot_pattern_expectancy/images/cue4.png""</img></div></div>","none","500","AX","test","1","","",""
"-1","-1","poldrack-single-stim","175","335416","0.0-136.0","pilot-40_ses-03_2","","2000","0","fixation","","<div class = centerbox><div class = fixation>+</div></div>","none","2000","","test","","","",""
"494","89","poldrack-single-stim","176","337073","0.0-137.0","pilot-40_ses-03_2","","1636","0","probe","","<div class = centerbox><div class = img-container><img src = ""/static/experiments/dot_pattern_expectancy/images/probe1.png""</img></div></div>","89,71","500","AX","test","1","89","true",""
"-1","-1","poldrack-single-stim","177","337594","0.0-138.0","pilot-40_ses-03_2","","500","0","cue","","<div class = centerbox><div class = img-container><img src = ""/static/experiments/dot_pattern_expectancy/images/cue4.png""</img></div></div>","none","500","AX","test","2","","",""
"-1","-1","poldrack-single-stim","178","339614","0.0-139.0","pilot-40_ses-03_2","","2000","0","fixation","","<div class = centerbox><div class = fixation>+</div></div>","none","2000","","test","","","",""
"670","89","poldrack-single-stim","179","341133","0.0-140.0","pilot-40_ses-03_2","","1500","0","probe","","<div class = centerbox><div class = img-container><img src = ""/static/experiments/dot_pattern_expectancy/images/probe1.png""</img></div></div>","89,71","500","AX","test","2","89","true",""
"-1","-1","poldrack-single-stim","180","341653","0.0-141.0","pilot-40_ses-03_2","","500","0","cue","","<div class = centerbox><div class = img-container><img src = ""/static/experiments/dot_pattern_expectancy/images/cue4.png""</img></div></div>","none","500","AX","test","3","","",""
"-1","-1","poldrack-single-stim","181","343674","0.0-142.0","pilot-40_ses-03_2","","2000","0","fixation","","<div class = centerbox><div class = fixation>+</div></div>","none","2000","","test","","","",""
"513","89","poldrack-single-stim","182","345193","0.0-143.0","pilot-40_ses-03_2","","1500","0","probe","","<div class = centerbox><div class = img-container><img src = ""/static/experiments/dot_pattern_expectancy/images/probe1.png""</img></div></div>","89,71","500","AX","test","3","89","true",""
"-1","-1","poldrack-single-stim","183","345712","0.0-144.0","pilot-40_ses-03_2","","500","0","cue","","<div class = centerbox><div class = img-container><img src = ""/static/experiments/dot_pattern_expectancy/images/cue4.png""</img></div></div>","none","500","AX","test","4","","",""
"-1","-1","poldrack-single-stim","184","347734","0.0-145.0","pilot-40_ses-03_2","","2000","0","fixation","","<div class = centerbox><div class = fixation>+</div></div>","none","2000","","test","","","",""
"471","89","poldrack-single-stim","185","349653","0.0-146.0","pilot-40_ses-03_2","","1908","0","probe","","<div class = centerbox><div class = img-container><img src = ""/static/experiments/dot_pattern_expectancy/images/probe1.png""</img></div></div>","89,71","500","AX","test","4","89","true",""
"-1","-1","poldrack-single-stim","186","350175","0.0-147.0","pilot-40_ses-03_2","","500","0","cue","","<div class = centerbox><div class = img-container><img src = ""/static/experiments/dot_pattern_expectancy/images/cue6.png""</img></div></div>","none","500","BX","test","5","","",""
"-1","-1","poldrack-single-stim","187","352195","0.0-148.0","pilot-40_ses-03_2","","2000","0","fixation","","<div class = centerbox><div class = fixation>+</div></div>","none","2000","","test","","","",""
"709","71","poldrack-single-stim","188","353844","0.0-149.0","pilot-40_ses-03_2","","1636","0","probe","","<div class = centerbox><div class = img-container><img src = ""/static/experiments/dot_pattern_expectancy/images/probe1.png""</img></div></div>","89,71","500","BX","test","5","71","true",""
"-1","-1","poldrack-single-stim","189","354364","0.0-150.0","pilot-40_ses-03_2","","500","0","cue","","<div class = centerbox><div class = img-container><img src = ""/static/experiments/dot_pattern_expectancy/images/cue4.png""</img></div></div>","none","500","AX","test","6","","",""
"-1","-1","poldrack-single-stim","190","356384","0.0-151.0","pilot-40_ses-03_2","","2000","0","fixation","","<div class = centerbox><div class = fixation>+</div></div>","none","2000","","test","","","",""
"405","89","poldrack-single-stim","191","358433","0.0-152.0","pilot-40_ses-03_2","","2044","0","probe","","<div class = centerbox><div class = img-container><img src = ""/static/experiments/dot_pattern_expectancy/images/probe1.png""</img></div></div>","89,71","500","AX","test","6","89","true",""
"-1","-1","poldrack-single-stim","192","358953","0.0-153.0","pilot-40_ses-03_2","","500","0","cue","","<div class = centerbox><div class = img-container><img src = ""/static/experiments/dot_pattern_expectancy/images/cue4.png""</img></div></div>","none","500","AX","test","7","","",""
"-1","-1","poldrack-single-stim","193","360973","0.0-154.0","pilot-40_ses-03_2","","2000","0","fixation","","<div class = centerbox><div class = fixation>+</div></div>","none","2000","","test","","","",""
"713","71","poldrack-single-stim","194","362754","0.0-155.0","pilot-40_ses-03_2","","1772","0","probe","","<div class = centerbox><div class = img-container><img src = ""/static/experiments/dot_pattern_expectancy/images/probe1.png""</img></div></div>","89,71","500","AX","test","7","89","false",""
"-1","-1","poldrack-single-stim","195","363275","0.0-156.0","pilot-40_ses-03_2","","500","0","cue","","<div class = centerbox><div class = img-container><img src = ""/static/experiments/dot_pattern_expectancy/images/cue4.png""</img></div></div>","none","500","AX","test","8","","",""
"-1","-1","poldrack-single-stim","196","365293","0.0-157.0","pilot-40_ses-03_2","","2000","0","fixation","","<div class = centerbox><div class = fixation>+</div></div>","none","2000","","test","","","",""
"352","89","poldrack-single-stim","197","366814","0.0-158.0","pilot-40_ses-03_2","","1500","0","probe","","<div class = centerbox><div class = img-container><img src = ""/static/experiments/dot_pattern_expectancy/images/probe1.png""</img></div></div>","89,71","500","AX","test","8","89","true",""
"-1","-1","poldrack-single-stim","198","367335","0.0-159.0","pilot-40_ses-03_2","","500","0","cue","","<div class = centerbox><div class = img-container><img src = ""/static/experiments/dot_pattern_expectancy/images/cue4.png""</img></div></div>","none","500","AX","test","9","","",""
"-1","-1","poldrack-single-stim","199","369354","0.0-160.0","pilot-40_ses-03_2","","2000","0","fixation","","<div class = centerbox><div class = fixation>+</div></div>","none","2000","","test","","","",""
"503","89","poldrack-single-stim","200","371553","0.0-161.0","pilot-40_ses-03_2","","2180","0","probe","","<div class = centerbox><div class = img-container><img src = ""/static/experiments/dot_pattern_expectancy/images/probe1.png""</img></div></div>","89,71","500","AX","test","9","89","true",""
"-1","-1","poldrack-single-stim","201","372074","0.0-162.0","pilot-40_ses-03_2","","500","0","cue","","<div class = centerbox><div class = img-container><img src = ""/static/experiments/dot_pattern_expectancy/images/cue4.png""</img></div></div>","none","500","AX","test","10","","",""
"-1","-1","poldrack-single-stim","202","374094","0.0-163.0","pilot-40_ses-03_2","","2000","0","fixation","","<div class = centerbox><div class = fixation>+</div></div>","none","2000","","test","","","",""
"602","89","poldrack-single-stim","203","375613","0.0-164.0","pilot-40_ses-03_2","","1500","0","probe","","<div class = centerbox><div class = img-container><img src = ""/static/experiments/dot_pattern_expectancy/images/probe1.png""</img></div></div>","89,71","500","AX","test","10","89","true",""
"-1","-1","poldrack-single-stim","204","376135","0.0-165.0","pilot-40_ses-03_2","","500","0","cue","","<div class = centerbox><div class = img-container><img src = ""/static/experiments/dot_pattern_expectancy/images/cue3.png""</img></div></div>","none","500","BX","test","11","","",""
"-1","-1","poldrack-single-stim","205","378154","0.0-166.0","pilot-40_ses-03_2","","2000","0","fixation","","<div class = centerbox><div class = fixation>+</div></div>","none","2000","","test","","","",""
"403","71","poldrack-single-stim","206","381833","0.0-167.0","pilot-40_ses-03_2","","3676","0","probe","","<div class = centerbox><div class = img-container><img src = ""/static/experiments/dot_pattern_expectancy/images/probe1.png""</img></div></div>","89,71","500","BX","test","11","71","true",""
"-1","-1","poldrack-single-stim","207","382355","0.0-168.0","pilot-40_ses-03_2","","500","0","cue","","<div class = centerbox><div class = img-container><img src = ""/static/experiments/dot_pattern_expectancy/images/cue1.png""</img></div></div>","none","500","BY","test","12","","",""
"-1","-1","poldrack-single-stim","208","384375","0.0-169.0","pilot-40_ses-03_2","","2000","0","fixation","","<div class = centerbox><div class = fixation>+</div></div>","none","2000","","test","","","",""
"471","71","poldrack-single-stim","209","386024","0.0-170.0","pilot-40_ses-03_2","","1636","0","probe","","<div class = centerbox><div class = img-container><img src = ""/static/experiments/dot_pattern_expectancy/images/probe6.png""</img></div></div>","89,71","500","BY","test","12","71","true",""
"-1","-1","poldrack-single-stim","210","386544","0.0-171.0","pilot-40_ses-03_2","","500","0","cue","","<div class = centerbox><div class = img-container><img src = ""/static/experiments/dot_pattern_expectancy/images/cue5.png""</img></div></div>","none","500","BY","test","13","","",""
"-1","-1","poldrack-single-stim","211","388565","0.0-172.0","pilot-40_ses-03_2","","2000","0","fixation","","<div class = centerbox><div class = fixation>+</div></div>","none","2000","","test","","","",""
"457","71","poldrack-single-stim","212","390204","0.0-173.0","pilot-40_ses-03_2","","1636","0","probe","","<div class = centerbox><div class = img-container><img src = ""/static/experiments/dot_pattern_expectancy/images/probe3.png""</img></div></div>","89,71","500","BY","test","13","71","true",""
"-1","-1","poldrack-single-stim","213","390724","0.0-174.0","pilot-40_ses-03_2","","500","0","cue","","<div class = centerbox><div class = img-container><img src = ""/static/experiments/dot_pattern_expectancy/images/cue6.png""</img></div></div>","none","500","BX","test","14","","",""
"-1","-1","poldrack-single-stim","214","392735","0.0-175.0","pilot-40_ses-03_2","","2000","0","fixation","","<div class = centerbox><div class = fixation>+</div></div>","none","2000","","test","","","",""
"426","71","poldrack-single-stim","215","394244","0.0-176.0","pilot-40_ses-03_2","","1500","0","probe","","<div class = centerbox><div class = img-container><img src = ""/static/experiments/dot_pattern_expectancy/images/probe1.png""</img></div></div>","89,71","500","BX","test","14","71","true",""
"-1","-1","poldrack-single-stim","216","394762","0.0-177.0","pilot-40_ses-03_2","","500","0","cue","","<div class = centerbox><div class = img-container><img src = ""/static/experiments/dot_pattern_expectancy/images/cue4.png""</img></div></div>","none","500","AX","test","15","","",""
"-1","-1","poldrack-single-stim","217","396775","0.0-178.0","pilot-40_ses-03_2","","2000","0","fixation","","<div class = centerbox><div class = fixation>+</div></div>","none","2000","","test","","","",""
"418","89","poldrack-single-stim","218","398693","0.0-179.0","pilot-40_ses-03_2","","1908","0","probe","","<div class = centerbox><div class = img-container><img src = ""/static/experiments/dot_pattern_expectancy/images/probe1.png""</img></div></div>","89,71","500","AX","test","15","89","true",""
"-1","-1","poldrack-single-stim","219","399214","0.0-180.0","pilot-40_ses-03_2","","500","0","cue","","<div class = centerbox><div class = img-container><img src = ""/static/experiments/dot_pattern_expectancy/images/cue4.png""</img></div></div>","none","500","AX","test","16","","",""
"-1","-1","poldrack-single-stim","220","401234","0.0-181.0","pilot-40_ses-03_2","","2000","0","fixation","","<div class = centerbox><div class = fixation>+</div></div>","none","2000","","test","","","",""
"483","71","poldrack-single-stim","221","402874","0.0-182.0","pilot-40_ses-03_2","","1636","0","probe","","<div class = centerbox><div class = img-container><img src = ""/static/experiments/dot_pattern_expectancy/images/probe1.png""</img></div></div>","89,71","500","AX","test","16","89","false",""
"-1","-1","poldrack-single-stim","222","403395","0.0-183.0","pilot-40_ses-03_2","","500","0","cue","","<div class = centerbox><div class = img-container><img src = ""/static/experiments/dot_pattern_expectancy/images/cue3.png""</img></div></div>","none","500","BX","test","17","","",""
"-1","-1","poldrack-single-stim","223","405404","0.0-184.0","pilot-40_ses-03_2","","2000","0","fixation","","<div class = centerbox><div class = fixation>+</div></div>","none","2000","","test","","","",""
"637","71","poldrack-single-stim","224","406924","0.0-185.0","pilot-40_ses-03_2","","1500","0","probe","","<div class = centerbox><div class = img-container><img src = ""/static/experiments/dot_pattern_expectancy/images/probe1.png""</img></div></div>","89,71","500","BX","test","17","71","true",""
"-1","-1","poldrack-single-stim","225","407443","0.0-186.0","pilot-40_ses-03_2","","500","0","cue","","<div class = centerbox><div class = img-container><img src = ""/static/experiments/dot_pattern_expectancy/images/cue4.png""</img></div></div>","none","500","AX","test","18","","",""
"-1","-1","poldrack-single-stim","226","409455","0.0-187.0","pilot-40_ses-03_2","","2000","0","fixation","","<div class = centerbox><div class = fixation>+</div></div>","none","2000","","test","","","",""
"370","89","poldrack-single-stim","227","411384","0.0-188.0","pilot-40_ses-03_2","","1908","0","probe","","<div class = centerbox><div class = img-container><img src = ""/static/experiments/dot_pattern_expectancy/images/probe1.png""</img></div></div>","89,71","500","AX","test","18","89","true",""
"-1","-1","poldrack-single-stim","228","411904","0.0-189.0","pilot-40_ses-03_2","","500","0","cue","","<div class = centerbox><div class = img-container><img src = ""/static/experiments/dot_pattern_expectancy/images/cue1.png""</img></div></div>","none","500","BY","test","19","","",""
"-1","-1","poldrack-single-stim","229","413923","0.0-190.0","pilot-40_ses-03_2","","2000","0","fixation","","<div class = centerbox><div class = fixation>+</div></div>","none","2000","","test","","","",""
"378","71","poldrack-single-stim","230","416124","0.0-191.0","pilot-40_ses-03_2","","2180","0","probe","","<div class = centerbox><div class = img-container><img src = ""/static/experiments/dot_pattern_expectancy/images/probe4.png""</img></div></div>","89,71","500","BY","test","19","71","true",""
"-1","-1","poldrack-single-stim","231","416644","0.0-192.0","pilot-40_ses-03_2","","500","0","cue","","<div class = centerbox><div class = img-container><img src = ""/static/experiments/dot_pattern_expectancy/images/cue4.png""</img></div></div>","none","500","AX","test","20","","",""
"-1","-1","poldrack-single-stim","232","418664","0.0-193.0","pilot-40_ses-03_2","","2000","0","fixation","","<div class = centerbox><div class = fixation>+</div></div>","none","2000","","test","","","",""
"526","89","poldrack-single-stim","233","420440","0.0-194.0","pilot-40_ses-03_2","","1772","0","probe","","<div class = centerbox><div class = img-container><img src = ""/static/experiments/dot_pattern_expectancy/images/probe1.png""</img></div></div>","89,71","500","AX","test","20","89","true",""
"-1","-1","poldrack-single-stim","234","420964","0.0-195.0","pilot-40_ses-03_2","","500","0","cue","","<div class = centerbox><div class = img-container><img src = ""/static/experiments/dot_pattern_expectancy/images/cue4.png""</img></div></div>","none","500","AX","test","21","","",""
"-1","-1","poldrack-single-stim","235","422973","0.0-196.0","pilot-40_ses-03_2","","2000","0","fixation","","<div class = centerbox><div class = fixation>+</div></div>","none","2000","","test","","","",""
"446","89","poldrack-single-stim","236","424482","0.0-197.0","pilot-40_ses-03_2","","1500","0","probe","","<div class = centerbox><div class = img-container><img src = ""/static/experiments/dot_pattern_expectancy/images/probe1.png""</img></div></div>","89,71","500","AX","test","21","89","true",""
"-1","-1","poldrack-single-stim","237","425005","0.0-198.0","pilot-40_ses-03_2","","500","0","cue","","<div class = centerbox><div class = img-container><img src = ""/static/experiments/dot_pattern_expectancy/images/cue4.png""</img></div></div>","none","500","AX","test","22","","",""
"-1","-1","poldrack-single-stim","238","427024","0.0-199.0","pilot-40_ses-03_2","","2000","0","fixation","","<div class = centerbox><div class = fixation>+</div></div>","none","2000","","test","","","",""
"345","89","poldrack-single-stim","239","428534","0.0-200.0","pilot-40_ses-03_2","","1500","0","probe","","<div class = centerbox><div class = img-container><img src = ""/static/experiments/dot_pattern_expectancy/images/probe1.png""</img></div></div>","89,71","500","AX","test","22","89","true",""
"-1","-1","poldrack-single-stim","240","429054","0.0-201.0","pilot-40_ses-03_2","","500","0","cue","","<div class = centerbox><div class = img-container><img src = ""/static/experiments/dot_pattern_expectancy/images/cue4.png""</img></div></div>","none","500","AX","test","23","","",""
"-1","-1","poldrack-single-stim","241","431075","0.0-202.0","pilot-40_ses-03_2","","2000","0","fixation","","<div class = centerbox><div class = fixation>+</div></div>","none","2000","","test","","","",""
"402","89","poldrack-single-stim","242","433134","0.0-203.0","pilot-40_ses-03_2","","2044","0","probe","","<div class = centerbox><div class = img-container><img src = ""/static/experiments/dot_pattern_expectancy/images/probe1.png""</img></div></div>","89,71","500","AX","test","23","89","true",""
"-1","-1","poldrack-single-stim","243","433657","0.0-204.0","pilot-40_ses-03_2","","500","0","cue","","<div class = centerbox><div class = img-container><img src = ""/static/experiments/dot_pattern_expectancy/images/cue4.png""</img></div></div>","none","500","AX","test","24","","",""
"-1","-1","poldrack-single-stim","244","435678","0.0-205.0","pilot-40_ses-03_2","","2000","0","fixation","","<div class = centerbox><div class = fixation>+</div></div>","none","2000","","test","","","",""
"368","89","poldrack-single-stim","245","438553","0.0-206.0","pilot-40_ses-03_2","","2860","0","probe","","<div class = centerbox><div class = img-container><img src = ""/static/experiments/dot_pattern_expectancy/images/probe1.png""</img></div></div>","89,71","500","AX","test","24","89","true",""
"-1","-1","poldrack-single-stim","246","439074","0.0-207.0","pilot-40_ses-03_2","","500","0","cue","","<div class = centerbox><div class = img-container><img src = ""/static/experiments/dot_pattern_expectancy/images/cue5.png""</img></div></div>","none","500","BX","test","25","","",""
"-1","-1","poldrack-single-stim","247","441095","0.0-208.0","pilot-40_ses-03_2","","2000","0","fixation","","<div class = centerbox><div class = fixation>+</div></div>","none","2000","","test","","","",""
"395","71","poldrack-single-stim","248","442613","0.0-209.0","pilot-40_ses-03_2","","1500","0","probe","","<div class = centerbox><div class = img-container><img src = ""/static/experiments/dot_pattern_expectancy/images/probe1.png""</img></div></div>","89,71","500","BX","test","25","71","true",""
"-1","-1","poldrack-single-stim","249","443135","0.0-210.0","pilot-40_ses-03_2","","500","0","cue","","<div class = centerbox><div class = img-container><img src = ""/static/experiments/dot_pattern_expectancy/images/cue1.png""</img></div></div>","none","500","BY","test","26","","",""
"-1","-1","poldrack-single-stim","250","445154","0.0-211.0","pilot-40_ses-03_2","","2000","0","fixation","","<div class = centerbox><div class = fixation>+</div></div>","none","2000","","test","","","",""
"591","71","poldrack-single-stim","251","446934","0.0-212.0","pilot-40_ses-03_2","","1772","0","probe","","<div class = centerbox><div class = img-container><img src = ""/static/experiments/dot_pattern_expectancy/images/probe3.png""</img></div></div>","89,71","500","BY","test","26","71","true",""
"-1","-1","poldrack-single-stim","252","447459","0.0-213.0","pilot-40_ses-03_2","","500","0","cue","","<div class = centerbox><div class = img-container><img src = ""/static/experiments/dot_pattern_expectancy/images/cue4.png""</img></div></div>","none","500","AX","test","27","","",""
"-1","-1","poldrack-single-stim","253","449476","0.0-214.0","pilot-40_ses-03_2","","2000","0","fixation","","<div class = centerbox><div class = fixation>+</div></div>","none","2000","","test","","","",""
"393","89","poldrack-single-stim","254","451254","0.0-215.0","pilot-40_ses-03_2","","1772","0","probe","","<div class = centerbox><div class = img-container><img src = ""/static/experiments/dot_pattern_expectancy/images/probe1.png""</img></div></div>","89,71","500","AX","test","27","89","true",""
"-1","-1","poldrack-single-stim","255","451774","0.0-216.0","pilot-40_ses-03_2","","500","0","cue","","<div class = centerbox><div class = img-container><img src = ""/static/experiments/dot_pattern_expectancy/images/cue4.png""</img></div></div>","none","500","AX","test","28","","",""
"-1","-1","poldrack-single-stim","256","453795","0.0-217.0","pilot-40_ses-03_2","","2000","0","fixation","","<div class = centerbox><div class = fixation>+</div></div>","none","2000","","test","","","",""
"541","89","poldrack-single-stim","257","456679","0.0-218.0","pilot-40_ses-03_2","","2860","0","probe","","<div class = centerbox><div class = img-container><img src = ""/static/experiments/dot_pattern_expectancy/images/probe1.png""</img></div></div>","89,71","500","AX","test","28","89","true",""
"-1","-1","poldrack-single-stim","258","457193","0.0-219.0","pilot-40_ses-03_2","","500","0","cue","","<div class = centerbox><div class = img-container><img src = ""/static/experiments/dot_pattern_expectancy/images/cue4.png""</img></div></div>","none","500","AX","test","29","","",""
"-1","-1","poldrack-single-stim","259","459214","0.0-220.0","pilot-40_ses-03_2","","2000","0","fixation","","<div class = centerbox><div class = fixation>+</div></div>","none","2000","","test","","","",""
"661","89","poldrack-single-stim","260","460993","0.0-221.0","pilot-40_ses-03_2","","1772","0","probe","","<div class = centerbox><div class = img-container><img src = ""/static/experiments/dot_pattern_expectancy/images/probe1.png""</img></div></div>","89,71","500","AX","test","29","89","true",""
"-1","-1","poldrack-single-stim","261","461514","0.0-222.0","pilot-40_ses-03_2","","500","0","cue","","<div class = centerbox><div class = img-container><img src = ""/static/experiments/dot_pattern_expectancy/images/cue5.png""</img></div></div>","none","500","BX","test","30","","",""
"-1","-1","poldrack-single-stim","262","463535","0.0-223.0","pilot-40_ses-03_2","","2000","0","fixation","","<div class = centerbox><div class = fixation>+</div></div>","none","2000","","test","","","",""
"650","71","poldrack-single-stim","263","465184","0.0-224.0","pilot-40_ses-03_2","","1636","0","probe","","<div class = centerbox><div class = img-container><img src = ""/static/experiments/dot_pattern_expectancy/images/probe1.png""</img></div></div>","89,71","500","BX","test","30","71","true",""
"-1","-1","poldrack-single-stim","264","465695","0.0-225.0","pilot-40_ses-03_2","","500","0","cue","","<div class = centerbox><div class = img-container><img src = ""/static/experiments/dot_pattern_expectancy/images/cue2.png""</img></div></div>","none","500","BX","test","31","","",""
"-1","-1","poldrack-single-stim","265","467714","0.0-226.0","pilot-40_ses-03_2","","2000","0","fixation","","<div class = centerbox><div class = fixation>+</div></div>","none","2000","","test","","","",""
"300","71","poldrack-single-stim","266","470174","0.0-227.0","pilot-40_ses-03_2","","2452","0","probe","","<div class = centerbox><div class = img-container><img src = ""/static/experiments/dot_pattern_expectancy/images/probe1.png""</img></div></div>","89,71","500","BX","test","31","71","true",""
"-1","-1","poldrack-single-stim","267","470685","0.0-228.0","pilot-40_ses-03_2","","500","0","cue","","<div class = centerbox><div class = img-container><img src = ""/static/experiments/dot_pattern_expectancy/images/cue4.png""</img></div></div>","none","500","AX","test","32","","",""
"-1","-1","poldrack-single-stim","268","472704","0.0-229.0","pilot-40_ses-03_2","","2000","0","fixation","","<div class = centerbox><div class = fixation>+</div></div>","none","2000","","test","","","",""
"504","89","poldrack-single-stim","269","474344","0.0-230.0","pilot-40_ses-03_2","","1636","0","probe","","<div class = centerbox><div class = img-container><img src = ""/static/experiments/dot_pattern_expectancy/images/probe1.png""</img></div></div>","89,71","500","AX","test","32","89","true",""
"-1","-1","poldrack-single-stim","270","474865","0.0-231.0","pilot-40_ses-03_2","","500","0","cue","","<div class = centerbox><div class = img-container><img src = ""/static/experiments/dot_pattern_expectancy/images/cue2.png""</img></div></div>","none","500","BX","test","33","","",""
"-1","-1","poldrack-single-stim","271","476884","0.0-232.0","pilot-40_ses-03_2","","2000","0","fixation","","<div class = centerbox><div class = fixation>+</div></div>","none","2000","","test","","","",""
"347","71","poldrack-single-stim","272","478404","0.0-233.0","pilot-40_ses-03_2","","1500","0","probe","","<div class = centerbox><div class = img-container><img src = ""/static/experiments/dot_pattern_expectancy/images/probe1.png""</img></div></div>","89,71","500","BX","test","33","71","true",""
"-1","-1","poldrack-single-stim","273","478924","0.0-234.0","pilot-40_ses-03_2","","500","0","cue","","<div class = centerbox><div class = img-container><img src = ""/static/experiments/dot_pattern_expectancy/images/cue4.png""</img></div></div>","none","500","AX","test","34","","",""
"-1","-1","poldrack-single-stim","274","480934","0.0-235.0","pilot-40_ses-03_2","","2000","0","fixation","","<div class = centerbox><div class = fixation>+</div></div>","none","2000","","test","","","",""
"471","89","poldrack-single-stim","275","482584","0.0-236.0","pilot-40_ses-03_2","","1636","0","probe","","<div class = centerbox><div class = img-container><img src = ""/static/experiments/dot_pattern_expectancy/images/probe1.png""</img></div></div>","89,71","500","AX","test","34","89","true",""
"-1","-1","poldrack-single-stim","276","483105","0.0-237.0","pilot-40_ses-03_2","","500","0","cue","","<div class = centerbox><div class = img-container><img src = ""/static/experiments/dot_pattern_expectancy/images/cue4.png""</img></div></div>","none","500","AX","test","35","","",""
"-1","-1","poldrack-single-stim","277","485123","0.0-238.0","pilot-40_ses-03_2","","2000","0","fixation","","<div class = centerbox><div class = fixation>+</div></div>","none","2000","","test","","","",""
"386","89","poldrack-single-stim","278","486764","0.0-239.0","pilot-40_ses-03_2","","1636","0","probe","","<div class = centerbox><div class = img-container><img src = ""/static/experiments/dot_pattern_expectancy/images/probe1.png""</img></div></div>","89,71","500","AX","test","35","89","true",""
"-1","-1","poldrack-single-stim","279","487284","0.0-240.0","pilot-40_ses-03_2","","500","0","cue","","<div class = centerbox><div class = img-container><img src = ""/static/experiments/dot_pattern_expectancy/images/cue6.png""</img></div></div>","none","500","BY","test","36","","",""
"-1","-1","poldrack-single-stim","280","489305","0.0-241.0","pilot-40_ses-03_2","","2000","0","fixation","","<div class = centerbox><div class = fixation>+</div></div>","none","2000","","test","","","",""
"306","71","poldrack-single-stim","281","491504","0.0-242.0","pilot-40_ses-03_2","","2180","0","probe","","<div class = centerbox><div class = img-container><img src = ""/static/experiments/dot_pattern_expectancy/images/probe2.png""</img></div></div>","89,71","500","BY","test","36","71","true",""
"-1","-1","poldrack-single-stim","282","492024","0.0-243.0","pilot-40_ses-03_2","","500","0","cue","","<div class = centerbox><div class = img-container><img src = ""/static/experiments/dot_pattern_expectancy/images/cue4.png""</img></div></div>","none","500","AX","test","37","","",""
"-1","-1","poldrack-single-stim","283","494045","0.0-244.0","pilot-40_ses-03_2","","2000","0","fixation","","<div class = centerbox><div class = fixation>+</div></div>","none","2000","","test","","","",""
"445","89","poldrack-single-stim","284","495563","0.0-245.0","pilot-40_ses-03_2","","1500","0","probe","","<div class = centerbox><div class = img-container><img src = ""/static/experiments/dot_pattern_expectancy/images/probe1.png""</img></div></div>","89,71","500","AX","test","37","89","true",""
"-1","-1","poldrack-single-stim","285","496085","0.0-246.0","pilot-40_ses-03_2","","500","0","cue","","<div class = centerbox><div class = img-container><img src = ""/static/experiments/dot_pattern_expectancy/images/cue4.png""</img></div></div>","none","500","AY","test","38","","",""
"-1","-1","poldrack-single-stim","286","498104","0.0-247.0","pilot-40_ses-03_2","","2000","0","fixation","","<div class = centerbox><div class = fixation>+</div></div>","none","2000","","test","","","",""
"534","71","poldrack-single-stim","287","499744","0.0-248.0","pilot-40_ses-03_2","","1636","0","probe","","<div class = centerbox><div class = img-container><img src = ""/static/experiments/dot_pattern_expectancy/images/probe4.png""</img></div></div>","89,71","500","AY","test","38","71","true",""
"-1","-1","poldrack-single-stim","288","500264","0.0-249.0","pilot-40_ses-03_2","","500","0","cue","","<div class = centerbox><div class = img-container><img src = ""/static/experiments/dot_pattern_expectancy/images/cue4.png""</img></div></div>","none","500","AX","test","39","","",""
"-1","-1","poldrack-single-stim","289","502285","0.0-250.0","pilot-40_ses-03_2","","2000","0","fixation","","<div class = centerbox><div class = fixation>+</div></div>","none","2000","","test","","","",""
"386","89","poldrack-single-stim","290","503924","0.0-251.0","pilot-40_ses-03_2","","1636","0","probe","","<div class = centerbox><div class = img-container><img src = ""/static/experiments/dot_pattern_expectancy/images/probe1.png""</img></div></div>","89,71","500","AX","test","39","89","true",""
"-1","-1","poldrack-single-stim","291","511444","0.0-252.0","pilot-40_ses-03_2","","7500","1000","rest_block","","<div class = centerbox><div class = center-text>+</div></div>","none","7500","","","","","",""
"-1","-1","poldrack-single-stim","292","513984","0.0-253.0","pilot-40_ses-03_2","","1500","500","test_start_block","","<div class = centerbox><div class = center-text>Preparez-vous!</p></div>","none","1500","","","","","",""
"-1","-1","poldrack-single-stim","293","515024","0.0-254.0","pilot-40_ses-03_2","","500","0","cue","","<div class = centerbox><div class = img-container><img src = ""/static/experiments/dot_pattern_expectancy/images/cue4.png""</img></div></div>","none","500","AX","test","0","","",""
"-1","-1","poldrack-single-stim","294","517044","0.0-255.0","pilot-40_ses-03_2","","2000","0","fixation","","<div class = centerbox><div class = fixation>+</div></div>","none","2000","","test","","","",""
"419","89","poldrack-single-stim","295","519244","0.0-256.0","pilot-40_ses-03_2","","2180","0","probe","","<div class = centerbox><div class = img-container><img src = ""/static/experiments/dot_pattern_expectancy/images/probe1.png""</img></div></div>","89,71","500","AX","test","0","89","true",""
"-1","-1","poldrack-single-stim","296","519760","0.0-257.0","pilot-40_ses-03_2","","500","0","cue","","<div class = centerbox><div class = img-container><img src = ""/static/experiments/dot_pattern_expectancy/images/cue4.png""</img></div></div>","none","500","AY","test","1","","",""
"-1","-1","poldrack-single-stim","297","521764","0.0-258.0","pilot-40_ses-03_2","","2000","0","fixation","","<div class = centerbox><div class = fixation>+</div></div>","none","2000","","test","","","",""
"542","71","poldrack-single-stim","298","524094","0.0-259.0","pilot-40_ses-03_2","","2316","0","probe","","<div class = centerbox><div class = img-container><img src = ""/static/experiments/dot_pattern_expectancy/images/probe2.png""</img></div></div>","89,71","500","AY","test","1","71","true",""
"-1","-1","poldrack-single-stim","299","524614","0.0-260.0","pilot-40_ses-03_2","","500","0","cue","","<div class = centerbox><div class = img-container><img src = ""/static/experiments/dot_pattern_expectancy/images/cue4.png""</img></div></div>","none","500","AY","test","2","","",""
"-1","-1","poldrack-single-stim","300","526635","0.0-261.0","pilot-40_ses-03_2","","2000","0","fixation","","<div class = centerbox><div class = fixation>+</div></div>","none","2000","","test","","","",""
"490","71","poldrack-single-stim","301","528274","0.0-262.0","pilot-40_ses-03_2","","1636","0","probe","","<div class = centerbox><div class = img-container><img src = ""/static/experiments/dot_pattern_expectancy/images/probe2.png""</img></div></div>","89,71","500","AY","test","2","71","true",""
"-1","-1","poldrack-single-stim","302","528794","0.0-263.0","pilot-40_ses-03_2","","500","0","cue","","<div class = centerbox><div class = img-container><img src = ""/static/experiments/dot_pattern_expectancy/images/cue1.png""</img></div></div>","none","500","BX","test","3","","",""
"-1","-1","poldrack-single-stim","303","530814","0.0-264.0","pilot-40_ses-03_2","","2000","0","fixation","","<div class = centerbox><div class = fixation>+</div></div>","none","2000","","test","","","",""
"340","71","poldrack-single-stim","304","532734","0.0-265.0","pilot-40_ses-03_2","","1908","0","probe","","<div class = centerbox><div class = img-container><img src = ""/static/experiments/dot_pattern_expectancy/images/probe1.png""</img></div></div>","89,71","500","BX","test","3","71","true",""
"-1","-1","poldrack-single-stim","305","533254","0.0-266.0","pilot-40_ses-03_2","","500","0","cue","","<div class = centerbox><div class = img-container><img src = ""/static/experiments/dot_pattern_expectancy/images/cue4.png""</img></div></div>","none","500","AX","test","4","","",""
"-1","-1","poldrack-single-stim","306","535273","0.0-267.0","pilot-40_ses-03_2","","2000","0","fixation","","<div class = centerbox><div class = fixation>+</div></div>","none","2000","","test","","","",""
"396","89","poldrack-single-stim","307","538834","0.0-268.0","pilot-40_ses-03_2","","3540","0","probe","","<div class = centerbox><div class = img-container><img src = ""/static/experiments/dot_pattern_expectancy/images/probe1.png""</img></div></div>","89,71","500","AX","test","4","89","true",""
"-1","-1","poldrack-single-stim","308","539354","0.0-269.0","pilot-40_ses-03_2","","500","0","cue","","<div class = centerbox><div class = img-container><img src = ""/static/experiments/dot_pattern_expectancy/images/cue3.png""</img></div></div>","none","500","BX","test","5","","",""
"-1","-1","poldrack-single-stim","309","541375","0.0-270.0","pilot-40_ses-03_2","","2000","0","fixation","","<div class = centerbox><div class = fixation>+</div></div>","none","2000","","test","","","",""
"507","71","poldrack-single-stim","310","543033","0.0-271.0","pilot-40_ses-03_2","","1636","0","probe","","<div class = centerbox><div class = img-container><img src = ""/static/experiments/dot_pattern_expectancy/images/probe1.png""</img></div></div>","89,71","500","BX","test","5","71","true",""
"-1","-1","poldrack-single-stim","311","543554","0.0-272.0","pilot-40_ses-03_2","","500","0","cue","","<div class = centerbox><div class = img-container><img src = ""/static/experiments/dot_pattern_expectancy/images/cue6.png""</img></div></div>","none","500","BY","test","6","","",""
"-1","-1","poldrack-single-stim","312","545574","0.0-273.0","pilot-40_ses-03_2","","2000","0","fixation","","<div class = centerbox><div class = fixation>+</div></div>","none","2000","","test","","","",""
"394","71","poldrack-single-stim","313","547084","0.0-274.0","pilot-40_ses-03_2","","1500","0","probe","","<div class = centerbox><div class = img-container><img src = ""/static/experiments/dot_pattern_expectancy/images/probe3.png""</img></div></div>","89,71","500","BY","test","6","71","true",""
"-1","-1","poldrack-single-stim","314","547603","0.0-275.0","pilot-40_ses-03_2","","500","0","cue","","<div class = centerbox><div class = img-container><img src = ""/static/experiments/dot_pattern_expectancy/images/cue4.png""</img></div></div>","none","500","AX","test","7","","",""
"-1","-1","poldrack-single-stim","315","549625","0.0-276.0","pilot-40_ses-03_2","","2000","0","fixation","","<div class = centerbox><div class = fixation>+</div></div>","none","2000","","test","","","",""
"366","89","poldrack-single-stim","316","551144","0.0-277.0","pilot-40_ses-03_2","","1500","0","probe","","<div class = centerbox><div class = img-container><img src = ""/static/experiments/dot_pattern_expectancy/images/probe1.png""</img></div></div>","89,71","500","AX","test","7","89","true",""
"-1","-1","poldrack-single-stim","317","551664","0.0-278.0","pilot-40_ses-03_2","","500","0","cue","","<div class = centerbox><div class = img-container><img src = ""/static/experiments/dot_pattern_expectancy/images/cue4.png""</img></div></div>","none","500","AX","test","8","","",""
"-1","-1","poldrack-single-stim","318","553674","0.0-279.0","pilot-40_ses-03_2","","2000","0","fixation","","<div class = centerbox><div class = fixation>+</div></div>","none","2000","","test","","","",""
"346","89","poldrack-single-stim","319","555454","0.0-280.0","pilot-40_ses-03_2","","1772","0","probe","","<div class = centerbox><div class = img-container><img src = ""/static/experiments/dot_pattern_expectancy/images/probe1.png""</img></div></div>","89,71","500","AX","test","8","89","true",""
"-1","-1","poldrack-single-stim","320","555973","0.0-281.0","pilot-40_ses-03_2","","500","0","cue","","<div class = centerbox><div class = img-container><img src = ""/static/experiments/dot_pattern_expectancy/images/cue3.png""</img></div></div>","none","500","BY","test","9","","",""
"-1","-1","poldrack-single-stim","321","557995","0.0-282.0","pilot-40_ses-03_2","","2000","0","fixation","","<div class = centerbox><div class = fixation>+</div></div>","none","2000","","test","","","",""
"379","71","poldrack-single-stim","322","560463","0.0-283.0","pilot-40_ses-03_2","","2452","0","probe","","<div class = centerbox><div class = img-container><img src = ""/static/experiments/dot_pattern_expectancy/images/probe4.png""</img></div></div>","89,71","500","BY","test","9","71","true",""
"-1","-1","poldrack-single-stim","323","560983","0.0-284.0","pilot-40_ses-03_2","","500","0","cue","","<div class = centerbox><div class = img-container><img src = ""/static/experiments/dot_pattern_expectancy/images/cue4.png""</img></div></div>","none","500","AX","test","10","","",""
"-1","-1","poldrack-single-stim","324","563005","0.0-285.0","pilot-40_ses-03_2","","2000","0","fixation","","<div class = centerbox><div class = fixation>+</div></div>","none","2000","","test","","","",""
"353","89","poldrack-single-stim","325","564924","0.0-286.0","pilot-40_ses-03_2","","1908","0","probe","","<div class = centerbox><div class = img-container><img src = ""/static/experiments/dot_pattern_expectancy/images/probe1.png""</img></div></div>","89,71","500","AX","test","10","89","true",""
"-1","-1","poldrack-single-stim","326","565444","0.0-287.0","pilot-40_ses-03_2","","500","0","cue","","<div class = centerbox><div class = img-container><img src = ""/static/experiments/dot_pattern_expectancy/images/cue6.png""</img></div></div>","none","500","BX","test","11","","",""
"-1","-1","poldrack-single-stim","327","567464","0.0-288.0","pilot-40_ses-03_2","","2000","0","fixation","","<div class = centerbox><div class = fixation>+</div></div>","none","2000","","test","","","",""
"485","71","poldrack-single-stim","328","569125","0.0-289.0","pilot-40_ses-03_2","","1636","0","probe","","<div class = centerbox><div class = img-container><img src = ""/static/experiments/dot_pattern_expectancy/images/probe1.png""</img></div></div>","89,71","500","BX","test","11","71","true",""
"-1","-1","poldrack-single-stim","329","569644","0.0-290.0","pilot-40_ses-03_2","","500","0","cue","","<div class = centerbox><div class = img-container><img src = ""/static/experiments/dot_pattern_expectancy/images/cue4.png""</img></div></div>","none","500","AX","test","12","","",""
"-1","-1","poldrack-single-stim","330","571653","0.0-291.0","pilot-40_ses-03_2","","2000","0","fixation","","<div class = centerbox><div class = fixation>+</div></div>","none","2000","","test","","","",""
"493","89","poldrack-single-stim","331","573174","0.0-292.0","pilot-40_ses-03_2","","1500","0","probe","","<div class = centerbox><div class = img-container><img src = ""/static/experiments/dot_pattern_expectancy/images/probe1.png""</img></div></div>","89,71","500","AX","test","12","89","true",""
"-1","-1","poldrack-single-stim","332","573694","0.0-293.0","pilot-40_ses-03_2","","500","0","cue","","<div class = centerbox><div class = img-container><img src = ""/static/experiments/dot_pattern_expectancy/images/cue4.png""</img></div></div>","none","500","AX","test","13","","",""
"-1","-1","poldrack-single-stim","333","575713","0.0-294.0","pilot-40_ses-03_2","","2000","0","fixation","","<div class = centerbox><div class = fixation>+</div></div>","none","2000","","test","","","",""
"333","89","poldrack-single-stim","334","577353","0.0-295.0","pilot-40_ses-03_2","","1636","0","probe","","<div class = centerbox><div class = img-container><img src = ""/static/experiments/dot_pattern_expectancy/images/probe1.png""</img></div></div>","89,71","500","AX","test","13","89","true",""
"-1","-1","poldrack-single-stim","335","577873","0.0-296.0","pilot-40_ses-03_2","","500","0","cue","","<div class = centerbox><div class = img-container><img src = ""/static/experiments/dot_pattern_expectancy/images/cue4.png""</img></div></div>","none","500","AX","test","14","","",""
"-1","-1","poldrack-single-stim","336","579898","0.0-297.0","pilot-40_ses-03_2","","2000","0","fixation","","<div class = centerbox><div class = fixation>+</div></div>","none","2000","","test","","","",""
"382","89","poldrack-single-stim","337","581543","0.0-298.0","pilot-40_ses-03_2","","1636","0","probe","","<div class = centerbox><div class = img-container><img src = ""/static/experiments/dot_pattern_expectancy/images/probe1.png""</img></div></div>","89,71","500","AX","test","14","89","true",""
"-1","-1","poldrack-single-stim","338","582065","0.0-299.0","pilot-40_ses-03_2","","500","0","cue","","<div class = centerbox><div class = img-container><img src = ""/static/experiments/dot_pattern_expectancy/images/cue2.png""</img></div></div>","none","500","BY","test","15","","",""
"-1","-1","poldrack-single-stim","339","584086","0.0-300.0","pilot-40_ses-03_2","","2000","0","fixation","","<div class = centerbox><div class = fixation>+</div></div>","none","2000","","test","","","",""
"348","71","poldrack-single-stim","340","586543","0.0-301.0","pilot-40_ses-03_2","","2452","0","probe","","<div class = centerbox><div class = img-container><img src = ""/static/experiments/dot_pattern_expectancy/images/probe2.png""</img></div></div>","89,71","500","BY","test","15","71","true",""
"-1","-1","poldrack-single-stim","341","587065","0.0-302.0","pilot-40_ses-03_2","","500","0","cue","","<div class = centerbox><div class = img-container><img src = ""/static/experiments/dot_pattern_expectancy/images/cue4.png""</img></div></div>","none","500","AX","test","16","","",""
"-1","-1","poldrack-single-stim","342","589084","0.0-303.0","pilot-40_ses-03_2","","2000","0","fixation","","<div class = centerbox><div class = fixation>+</div></div>","none","2000","","test","","","",""
"381","89","poldrack-single-stim","343","590604","0.0-304.0","pilot-40_ses-03_2","","1500","0","probe","","<div class = centerbox><div class = img-container><img src = ""/static/experiments/dot_pattern_expectancy/images/probe1.png""</img></div></div>","89,71","500","AX","test","16","89","true",""
"-1","-1","poldrack-single-stim","344","591125","0.0-305.0","pilot-40_ses-03_2","","500","0","cue","","<div class = centerbox><div class = img-container><img src = ""/static/experiments/dot_pattern_expectancy/images/cue5.png""</img></div></div>","none","500","BY","test","17","","",""
"-1","-1","poldrack-single-stim","345","593133","0.0-306.0","pilot-40_ses-03_2","","2000","0","fixation","","<div class = centerbox><div class = fixation>+</div></div>","none","2000","","test","","","",""
"276","71","poldrack-single-stim","346","594644","0.0-307.0","pilot-40_ses-03_2","","1500","0","probe","","<div class = centerbox><div class = img-container><img src = ""/static/experiments/dot_pattern_expectancy/images/probe4.png""</img></div></div>","89,71","500","BY","test","17","71","true",""
"-1","-1","poldrack-single-stim","347","595164","0.0-308.0","pilot-40_ses-03_2","","500","0","cue","","<div class = centerbox><div class = img-container><img src = ""/static/experiments/dot_pattern_expectancy/images/cue4.png""</img></div></div>","none","500","AX","test","18","","",""
"-1","-1","poldrack-single-stim","348","597174","0.0-309.0","pilot-40_ses-03_2","","2000","0","fixation","","<div class = centerbox><div class = fixation>+</div></div>","none","2000","","test","","","",""
"345","89","poldrack-single-stim","349","598814","0.0-310.0","pilot-40_ses-03_2","","1636","0","probe","","<div class = centerbox><div class = img-container><img src = ""/static/experiments/dot_pattern_expectancy/images/probe1.png""</img></div></div>","89,71","500","AX","test","18","89","true",""
"-1","-1","poldrack-single-stim","350","599333","0.0-311.0","pilot-40_ses-03_2","","500","0","cue","","<div class = centerbox><div class = img-container><img src = ""/static/experiments/dot_pattern_expectancy/images/cue4.png""</img></div></div>","none","500","AX","test","19","","",""
"-1","-1","poldrack-single-stim","351","601355","0.0-312.0","pilot-40_ses-03_2","","2000","0","fixation","","<div class = centerbox><div class = fixation>+</div></div>","none","2000","","test","","","",""
"314","89","poldrack-single-stim","352","603004","0.0-313.0","pilot-40_ses-03_2","","1636","0","probe","","<div class = centerbox><div class = img-container><img src = ""/static/experiments/dot_pattern_expectancy/images/probe1.png""</img></div></div>","89,71","500","AX","test","19","89","true",""
"-1","-1","poldrack-single-stim","353","603525","0.0-314.0","pilot-40_ses-03_2","","500","0","cue","","<div class = centerbox><div class = img-container><img src = ""/static/experiments/dot_pattern_expectancy/images/cue4.png""</img></div></div>","none","500","AY","test","20","","",""
"-1","-1","poldrack-single-stim","354","605545","0.0-315.0","pilot-40_ses-03_2","","2000","0","fixation","","<div class = centerbox><div class = fixation>+</div></div>","none","2000","","test","","","",""
"463","71","poldrack-single-stim","355","607182","0.0-316.0","pilot-40_ses-03_2","","1636","0","probe","","<div class = centerbox><div class = img-container><img src = ""/static/experiments/dot_pattern_expectancy/images/probe4.png""</img></div></div>","89,71","500","AY","test","20","71","true",""
"-1","-1","poldrack-single-stim","356","607694","0.0-317.0","pilot-40_ses-03_2","","500","0","cue","","<div class = centerbox><div class = img-container><img src = ""/static/experiments/dot_pattern_expectancy/images/cue4.png""</img></div></div>","none","500","AX","test","21","","",""
"-1","-1","poldrack-single-stim","357","609714","0.0-318.0","pilot-40_ses-03_2","","2000","0","fixation","","<div class = centerbox><div class = fixation>+</div></div>","none","2000","","test","","","",""
"348","89","poldrack-single-stim","358","611234","0.0-319.0","pilot-40_ses-03_2","","1500","0","probe","","<div class = centerbox><div class = img-container><img src = ""/static/experiments/dot_pattern_expectancy/images/probe1.png""</img></div></div>","89,71","500","AX","test","21","89","true",""
"-1","-1","poldrack-single-stim","359","611755","0.0-320.0","pilot-40_ses-03_2","","500","0","cue","","<div class = centerbox><div class = img-container><img src = ""/static/experiments/dot_pattern_expectancy/images/cue4.png""</img></div></div>","none","500","AX","test","22","","",""
"-1","-1","poldrack-single-stim","360","613764","0.0-321.0","pilot-40_ses-03_2","","2000","0","fixation","","<div class = centerbox><div class = fixation>+</div></div>","none","2000","","test","","","",""
"381","89","poldrack-single-stim","361","615273","0.0-322.0","pilot-40_ses-03_2","","1500","0","probe","","<div class = centerbox><div class = img-container><img src = ""/static/experiments/dot_pattern_expectancy/images/probe1.png""</img></div></div>","89,71","500","AX","test","22","89","true",""
"-1","-1","poldrack-single-stim","362","615787","0.0-323.0","pilot-40_ses-03_2","","500","0","cue","","<div class = centerbox><div class = img-container><img src = ""/static/experiments/dot_pattern_expectancy/images/cue4.png""</img></div></div>","none","500","AX","test","23","","",""
"-1","-1","poldrack-single-stim","363","617803","0.0-324.0","pilot-40_ses-03_2","","2000","0","fixation","","<div class = centerbox><div class = fixation>+</div></div>","none","2000","","test","","","",""
"356","89","poldrack-single-stim","364","619583","0.0-325.0","pilot-40_ses-03_2","","1772","0","probe","","<div class = centerbox><div class = img-container><img src = ""/static/experiments/dot_pattern_expectancy/images/probe1.png""</img></div></div>","89,71","500","AX","test","23","89","true",""
"-1","-1","poldrack-single-stim","365","620106","0.0-326.0","pilot-40_ses-03_2","","500","0","cue","","<div class = centerbox><div class = img-container><img src = ""/static/experiments/dot_pattern_expectancy/images/cue4.png""</img></div></div>","none","500","AX","test","24","","",""
"-1","-1","poldrack-single-stim","366","622114","0.0-327.0","pilot-40_ses-03_2","","2000","0","fixation","","<div class = centerbox><div class = fixation>+</div></div>","none","2000","","test","","","",""
"332","89","poldrack-single-stim","367","624315","0.0-328.0","pilot-40_ses-03_2","","2180","0","probe","","<div class = centerbox><div class = img-container><img src = ""/static/experiments/dot_pattern_expectancy/images/probe1.png""</img></div></div>","89,71","500","AX","test","24","89","true",""
"-1","-1","poldrack-single-stim","368","624833","0.0-329.0","pilot-40_ses-03_2","","500","0","cue","","<div class = centerbox><div class = img-container><img src = ""/static/experiments/dot_pattern_expectancy/images/cue1.png""</img></div></div>","none","500","BX","test","25","","",""
"-1","-1","poldrack-single-stim","369","626855","0.0-330.0","pilot-40_ses-03_2","","2000","0","fixation","","<div class = centerbox><div class = fixation>+</div></div>","none","2000","","test","","","",""
"278","71","poldrack-single-stim","370","628635","0.0-331.0","pilot-40_ses-03_2","","1772","0","probe","","<div class = centerbox><div class = img-container><img src = ""/static/experiments/dot_pattern_expectancy/images/probe1.png""</img></div></div>","89,71","500","BX","test","25","71","true",""
"-1","-1","poldrack-single-stim","371","629153","0.0-332.0","pilot-40_ses-03_2","","500","0","cue","","<div class = centerbox><div class = img-container><img src = ""/static/experiments/dot_pattern_expectancy/images/cue6.png""</img></div></div>","none","500","BY","test","26","","",""
"-1","-1","poldrack-single-stim","372","631163","0.0-333.0","pilot-40_ses-03_2","","2000","0","fixation","","<div class = centerbox><div class = fixation>+</div></div>","none","2000","","test","","","",""
"857","71","poldrack-single-stim","373","632684","0.0-334.0","pilot-40_ses-03_2","","1500","0","probe","","<div class = centerbox><div class = img-container><img src = ""/static/experiments/dot_pattern_expectancy/images/probe2.png""</img></div></div>","89,71","500","BY","test","26","71","true",""
"-1","-1","poldrack-single-stim","374","633205","0.0-335.0","pilot-40_ses-03_2","","500","0","cue","","<div class = centerbox><div class = img-container><img src = ""/static/experiments/dot_pattern_expectancy/images/cue4.png""</img></div></div>","none","500","AX","test","27","","",""
"-1","-1","poldrack-single-stim","375","635225","0.0-336.0","pilot-40_ses-03_2","","2000","0","fixation","","<div class = centerbox><div class = fixation>+</div></div>","none","2000","","test","","","",""
"320","89","poldrack-single-stim","376","636734","0.0-337.0","pilot-40_ses-03_2","","1500","0","probe","","<div class = centerbox><div class = img-container><img src = ""/static/experiments/dot_pattern_expectancy/images/probe1.png""</img></div></div>","89,71","500","AX","test","27","89","true",""
"-1","-1","poldrack-single-stim","377","637255","0.0-338.0","pilot-40_ses-03_2","","500","0","cue","","<div class = centerbox><div class = img-container><img src = ""/static/experiments/dot_pattern_expectancy/images/cue4.png""</img></div></div>","none","500","AX","test","28","","",""
"-1","-1","poldrack-single-stim","378","639274","0.0-339.0","pilot-40_ses-03_2","","2000","0","fixation","","<div class = centerbox><div class = fixation>+</div></div>","none","2000","","test","","","",""
"696","89","poldrack-single-stim","379","640924","0.0-340.0","pilot-40_ses-03_2","","1636","0","probe","","<div class = centerbox><div class = img-container><img src = ""/static/experiments/dot_pattern_expectancy/images/probe1.png""</img></div></div>","89,71","500","AX","test","28","89","true",""
"-1","-1","poldrack-single-stim","380","641443","0.0-341.0","pilot-40_ses-03_2","","500","0","cue","","<div class = centerbox><div class = img-container><img src = ""/static/experiments/dot_pattern_expectancy/images/cue4.png""</img></div></div>","none","500","AY","test","29","","",""
"-1","-1","poldrack-single-stim","381","643466","0.0-342.0","pilot-40_ses-03_2","","2000","0","fixation","","<div class = centerbox><div class = fixation>+</div></div>","none","2000","","test","","","",""
