"rt","key_press","trial_type","trial_index","time_elapsed","internal_node_id","subject","text","block_duration","timing_post_trial","trial_id","responses","stimulus","possible_responses","stim_duration","condition","exp_stage","trial_num","correct_response","correct","exp_id"
"3173","13","text","0","3181","0.0-0.0","sub-11_ses-03_1","","","","","","","","","","","","","",""
"1823","89","poldrack-text","1","6027","0.0-1.0","sub-11_ses-03_1","<div class = centerbox><div style = 'font-size: 50px' class = center-text>Veuillez appuyer avec votre index</p></div>","1823","500","fmri_response_test","","","","","","","","","",""
"425","71","poldrack-text","2","6971","0.0-2.0","sub-11_ses-03_1","<div class = centerbox><div style = 'font-size: 50px' class = center-text>Veuillez appuyer avec votre majeur</p></div>","425","500","fmri_response_test","","","","","","","","","",""
"6929","","survey-text","3","14416","0.0-3.0","sub-11_ses-03_1","","","","task_setup","{""Q0"":""4"",""Q1"":""6""}","","","","","","","","",""
"5538","32","poldrack-single-stim","4","20967","0.0-4.0","sub-11_ses-03_1","","5538","500","instructions","","<div class = centerbox><p style = ""font-size:40px"" class = center-block-text>Paire cible (appuyez sur l'index):</p><p class = center-block-text><img src = ""/static/experiments/dot_pattern_expectancy/images/cue4.png"" ></img>&nbsp&nbsp&nbsp...suivi par...&nbsp&nbsp&nbsp<img src = ""/static/experiments/dot_pattern_expectancy/images/probe6.png"" ></img><br></br></p><p style = ""font-size:40px"" class = center-block-text>Sinon appuyez sur le majeur</div>","32","5538","","","","","",""
"-1","-1","poldrack-single-stim","5","22011","0.0-5.0-0.0","sub-11_ses-03_1","","500","0","cue","","<div class = centerbox><div class = img-container><img src = ""/static/experiments/dot_pattern_expectancy/images/cue4.png""</img></div></div>","none","500","AX","practice","0","","",""
"-1","-1","poldrack-single-stim","6","24030","0.0-5.0-1.0","sub-11_ses-03_1","","2000","0","fixation","","<div class = centerbox><div class = fixation>+</div></div>","none","2000","","practice","","","",""
"1659","89","poldrack-single-stim","7","25749","0.0-5.0-2.0","sub-11_ses-03_1","","1700","0","probe","","<div class = centerbox><div class = img-container><img src = ""/static/experiments/dot_pattern_expectancy/images/probe6.png""</img></div></div>","89,71","500","AX","practice","0","89","true",""
"-1","-1","poldrack-single-stim","8","26271","0.0-5.0-3.0","sub-11_ses-03_1","","500","0","feedback","","<div class = centerbox><div style=""color:#4FE829""; class = center-text>Correct!</div></div>","none","500","","practice","1","","",""
"-1","-1","poldrack-single-stim","9","26792","0.0-5.0-4.0","sub-11_ses-03_1","","500","0","cue","","<div class = centerbox><div class = img-container><img src = ""/static/experiments/dot_pattern_expectancy/images/cue6.png""</img></div></div>","none","500","BY","practice","1","","",""
"-1","-1","poldrack-single-stim","10","28800","0.0-5.0-5.0","sub-11_ses-03_1","","2000","0","fixation","","<div class = centerbox><div class = fixation>+</div></div>","none","2000","","practice","","","",""
"809","71","poldrack-single-stim","11","30319","0.0-5.0-6.0","sub-11_ses-03_1","","1500","0","probe","","<div class = centerbox><div class = img-container><img src = ""/static/experiments/dot_pattern_expectancy/images/probe3.png""</img></div></div>","89,71","500","BY","practice","1","71","true",""
"-1","-1","poldrack-single-stim","12","30839","0.0-5.0-7.0","sub-11_ses-03_1","","500","0","feedback","","<div class = centerbox><div style=""color:#4FE829""; class = center-text>Correct!</div></div>","none","500","","practice","2","","",""
"-1","-1","poldrack-single-stim","13","31359","0.0-5.0-8.0","sub-11_ses-03_1","","500","0","cue","","<div class = centerbox><div class = img-container><img src = ""/static/experiments/dot_pattern_expectancy/images/cue4.png""</img></div></div>","none","500","AX","practice","2","","",""
"-1","-1","poldrack-single-stim","14","33378","0.0-5.0-9.0","sub-11_ses-03_1","","2000","0","fixation","","<div class = centerbox><div class = fixation>+</div></div>","none","2000","","practice","","","",""
"707","89","poldrack-single-stim","15","34888","0.0-5.0-10.0","sub-11_ses-03_1","","1500","0","probe","","<div class = centerbox><div class = img-container><img src = ""/static/experiments/dot_pattern_expectancy/images/probe6.png""</img></div></div>","89,71","500","AX","practice","2","89","true",""
"-1","-1","poldrack-single-stim","16","35409","0.0-5.0-11.0","sub-11_ses-03_1","","500","0","feedback","","<div class = centerbox><div style=""color:#4FE829""; class = center-text>Correct!</div></div>","none","500","","practice","3","","",""
"-1","-1","poldrack-single-stim","17","35928","0.0-5.0-12.0","sub-11_ses-03_1","","500","0","cue","","<div class = centerbox><div class = img-container><img src = ""/static/experiments/dot_pattern_expectancy/images/cue4.png""</img></div></div>","none","500","AX","practice","3","","",""
"-1","-1","poldrack-single-stim","18","37948","0.0-5.0-13.0","sub-11_ses-03_1","","2000","0","fixation","","<div class = centerbox><div class = fixation>+</div></div>","none","2000","","practice","","","",""
"859","89","poldrack-single-stim","19","40468","0.0-5.0-14.0","sub-11_ses-03_1","","2500","0","probe","","<div class = centerbox><div class = img-container><img src = ""/static/experiments/dot_pattern_expectancy/images/probe6.png""</img></div></div>","89,71","500","AX","practice","3","89","true",""
"-1","-1","poldrack-single-stim","20","40989","0.0-5.0-15.0","sub-11_ses-03_1","","500","0","feedback","","<div class = centerbox><div style=""color:#4FE829""; class = center-text>Correct!</div></div>","none","500","","practice","4","","",""
"-1","-1","poldrack-single-stim","21","41508","0.0-5.0-16.0","sub-11_ses-03_1","","500","0","cue","","<div class = centerbox><div class = img-container><img src = ""/static/experiments/dot_pattern_expectancy/images/cue4.png""</img></div></div>","none","500","AX","practice","4","","",""
"-1","-1","poldrack-single-stim","22","43529","0.0-5.0-17.0","sub-11_ses-03_1","","2000","0","fixation","","<div class = centerbox><div class = fixation>+</div></div>","none","2000","","practice","","","",""
"1139","89","poldrack-single-stim","23","45048","0.0-5.0-18.0","sub-11_ses-03_1","","1500","0","probe","","<div class = centerbox><div class = img-container><img src = ""/static/experiments/dot_pattern_expectancy/images/probe6.png""</img></div></div>","89,71","500","AX","practice","4","89","true",""
"-1","-1","poldrack-single-stim","24","45569","0.0-5.0-19.0","sub-11_ses-03_1","","500","0","feedback","","<div class = centerbox><div style=""color:#4FE829""; class = center-text>Correct!</div></div>","none","500","","practice","5","","",""
"-1","-1","poldrack-single-stim","25","46089","0.0-5.0-20.0","sub-11_ses-03_1","","500","0","cue","","<div class = centerbox><div class = img-container><img src = ""/static/experiments/dot_pattern_expectancy/images/cue6.png""</img></div></div>","none","500","BX","practice","5","","",""
"-1","-1","poldrack-single-stim","26","48107","0.0-5.0-21.0","sub-11_ses-03_1","","2000","0","fixation","","<div class = centerbox><div class = fixation>+</div></div>","none","2000","","practice","","","",""
"760","71","poldrack-single-stim","27","49628","0.0-5.0-22.0","sub-11_ses-03_1","","1500","0","probe","","<div class = centerbox><div class = img-container><img src = ""/static/experiments/dot_pattern_expectancy/images/probe6.png""</img></div></div>","89,71","500","BX","practice","5","71","true",""
"-1","-1","poldrack-single-stim","28","50149","0.0-5.0-23.0","sub-11_ses-03_1","","500","0","feedback","","<div class = centerbox><div style=""color:#4FE829""; class = center-text>Correct!</div></div>","none","500","","practice","6","","",""
"-1","-1","poldrack-single-stim","29","50669","0.0-5.0-24.0","sub-11_ses-03_1","","500","0","cue","","<div class = centerbox><div class = img-container><img src = ""/static/experiments/dot_pattern_expectancy/images/cue5.png""</img></div></div>","none","500","BX","practice","6","","",""
"-1","-1","poldrack-single-stim","30","52689","0.0-5.0-25.0","sub-11_ses-03_1","","2000","0","fixation","","<div class = centerbox><div class = fixation>+</div></div>","none","2000","","practice","","","",""
"804","71","poldrack-single-stim","31","54607","0.0-5.0-26.0","sub-11_ses-03_1","","1900","0","probe","","<div class = centerbox><div class = img-container><img src = ""/static/experiments/dot_pattern_expectancy/images/probe6.png""</img></div></div>","89,71","500","BX","practice","6","71","true",""
"-1","-1","poldrack-single-stim","32","55129","0.0-5.0-27.0","sub-11_ses-03_1","","500","0","feedback","","<div class = centerbox><div style=""color:#4FE829""; class = center-text>Correct!</div></div>","none","500","","practice","7","","",""
"-1","-1","poldrack-single-stim","33","55650","0.0-5.0-28.0","sub-11_ses-03_1","","500","0","cue","","<div class = centerbox><div class = img-container><img src = ""/static/experiments/dot_pattern_expectancy/images/cue1.png""</img></div></div>","none","500","BY","practice","7","","",""
"-1","-1","poldrack-single-stim","34","57669","0.0-5.0-29.0","sub-11_ses-03_1","","2000","0","fixation","","<div class = centerbox><div class = fixation>+</div></div>","none","2000","","practice","","","",""
"949","71","poldrack-single-stim","35","59990","0.0-5.0-30.0","sub-11_ses-03_1","","2300","0","probe","","<div class = centerbox><div class = img-container><img src = ""/static/experiments/dot_pattern_expectancy/images/probe3.png""</img></div></div>","89,71","500","BY","practice","7","71","true",""
"-1","-1","poldrack-single-stim","36","60510","0.0-5.0-31.0","sub-11_ses-03_1","","500","0","feedback","","<div class = centerbox><div style=""color:#4FE829""; class = center-text>Correct!</div></div>","none","500","","practice","8","","",""
"-1","-1","poldrack-single-stim","37","61030","0.0-5.0-32.0","sub-11_ses-03_1","","500","0","cue","","<div class = centerbox><div class = img-container><img src = ""/static/experiments/dot_pattern_expectancy/images/cue4.png""</img></div></div>","none","500","AY","practice","8","","",""
"-1","-1","poldrack-single-stim","38","63050","0.0-5.0-33.0","sub-11_ses-03_1","","2000","0","fixation","","<div class = centerbox><div class = fixation>+</div></div>","none","2000","","practice","","","",""
"1339","89","poldrack-single-stim","39","65168","0.0-5.0-34.0","sub-11_ses-03_1","","2100","0","probe","","<div class = centerbox><div class = img-container><img src = ""/static/experiments/dot_pattern_expectancy/images/probe3.png""</img></div></div>","89,71","500","AY","practice","8","71","false",""
"-1","-1","poldrack-single-stim","40","65689","0.0-5.0-35.0","sub-11_ses-03_1","","500","0","feedback","","<div class = centerbox><div style=""color:red""; class = center-text>Incorrect</div></div>","none","500","","practice","9","","",""
"-1","-1","poldrack-single-stim","41","66209","0.0-5.0-36.0","sub-11_ses-03_1","","500","0","cue","","<div class = centerbox><div class = img-container><img src = ""/static/experiments/dot_pattern_expectancy/images/cue4.png""</img></div></div>","none","500","AY","practice","9","","",""
"-1","-1","poldrack-single-stim","42","68229","0.0-5.0-37.0","sub-11_ses-03_1","","2000","0","fixation","","<div class = centerbox><div class = fixation>+</div></div>","none","2000","","practice","","","",""
"892","71","poldrack-single-stim","43","69739","0.0-5.0-38.0","sub-11_ses-03_1","","1500","0","probe","","<div class = centerbox><div class = img-container><img src = ""/static/experiments/dot_pattern_expectancy/images/probe4.png""</img></div></div>","89,71","500","AY","practice","9","71","true",""
"-1","-1","poldrack-single-stim","44","70259","0.0-5.0-39.0","sub-11_ses-03_1","","500","0","feedback","","<div class = centerbox><div style=""color:#4FE829""; class = center-text>Correct!</div></div>","none","500","","practice","10","","",""
"2216","32","poldrack-text","45","72481","0.0-6.0","sub-11_ses-03_1","<div class = centerbox><div  class = center-text>Scanner Setup</div></div>","2216","0","fmri_scanner_wait","","","","","","","","","",""
"54746","84","poldrack-text","46","127230","0.0-7.0","sub-11_ses-03_1","<div class = centerbox><div style='color:red'; class = center-text>+</div></div>","54746","0","fmri_trigger_wait","","","","","","","","","",""
"-1","-1","poldrack-single-stim","47","128248","0.0-8.0","sub-11_ses-03_1","","1000","0","fmri_buffer","","","none","1000","","","","","",""
"-1","-1","poldrack-single-stim","48","129769","0.0-9.0","sub-11_ses-03_1","","1500","500","test_start_block","","<div class = centerbox><div class = center-text>Preparez-vous!</p></div>","none","1500","","","","","",""
"-1","-1","poldrack-single-stim","49","130800","0.0-10.0","sub-11_ses-03_1","","500","0","cue","","<div class = centerbox><div class = img-container><img src = ""/static/experiments/dot_pattern_expectancy/images/cue2.png""</img></div></div>","none","500","BY","test","0","","",""
"-1","-1","poldrack-single-stim","50","132809","0.0-11.0","sub-11_ses-03_1","","2000","0","fixation","","<div class = centerbox><div class = fixation>+</div></div>","none","2000","","test","","","",""
"908","71","poldrack-single-stim","51","134468","0.0-12.0","sub-11_ses-03_1","","1636","0","probe","","<div class = centerbox><div class = img-container><img src = ""/static/experiments/dot_pattern_expectancy/images/probe3.png""</img></div></div>","89,71","500","BY","test","0","71","true",""
"-1","-1","poldrack-single-stim","52","134989","0.0-13.0","sub-11_ses-03_1","","500","0","cue","","<div class = centerbox><div class = img-container><img src = ""/static/experiments/dot_pattern_expectancy/images/cue4.png""</img></div></div>","none","500","AY","test","1","","",""
"-1","-1","poldrack-single-stim","53","137000","0.0-14.0","sub-11_ses-03_1","","2000","0","fixation","","<div class = centerbox><div class = fixation>+</div></div>","none","2000","","test","","","",""
"-1","-1","poldrack-single-stim","54","138518","0.0-15.0","sub-11_ses-03_1","","1500","0","probe","","<div class = centerbox><div class = img-container><img src = ""/static/experiments/dot_pattern_expectancy/images/probe3.png""</img></div></div>","89,71","500","AY","test","1","71","false",""
"-1","-1","poldrack-single-stim","55","139038","0.0-16.0","sub-11_ses-03_1","","500","0","cue","","<div class = centerbox><div class = img-container><img src = ""/static/experiments/dot_pattern_expectancy/images/cue4.png""</img></div></div>","none","500","AX","test","2","","",""
"-1","-1","poldrack-single-stim","56","141057","0.0-17.0","sub-11_ses-03_1","","2000","0","fixation","","<div class = centerbox><div class = fixation>+</div></div>","none","2000","","test","","","",""
"1696","89","poldrack-single-stim","57","143108","0.0-18.0","sub-11_ses-03_1","","2044","0","probe","","<div class = centerbox><div class = img-container><img src = ""/static/experiments/dot_pattern_expectancy/images/probe6.png""</img></div></div>","89,71","500","AX","test","2","89","true",""
"-1","-1","poldrack-single-stim","58","143629","0.0-19.0","sub-11_ses-03_1","","500","0","cue","","<div class = centerbox><div class = img-container><img src = ""/static/experiments/dot_pattern_expectancy/images/cue2.png""</img></div></div>","none","500","BY","test","3","","",""
"-1","-1","poldrack-single-stim","59","145650","0.0-20.0","sub-11_ses-03_1","","2000","0","fixation","","<div class = centerbox><div class = fixation>+</div></div>","none","2000","","test","","","",""
"598","71","poldrack-single-stim","60","147429","0.0-21.0","sub-11_ses-03_1","","1772","0","probe","","<div class = centerbox><div class = img-container><img src = ""/static/experiments/dot_pattern_expectancy/images/probe4.png""</img></div></div>","89,71","500","BY","test","3","71","true",""
"-1","-1","poldrack-single-stim","61","147939","0.0-22.0","sub-11_ses-03_1","","500","0","cue","","<div class = centerbox><div class = img-container><img src = ""/static/experiments/dot_pattern_expectancy/images/cue6.png""</img></div></div>","none","500","BX","test","4","","",""
"-1","-1","poldrack-single-stim","62","149960","0.0-23.0","sub-11_ses-03_1","","2000","0","fixation","","<div class = centerbox><div class = fixation>+</div></div>","none","2000","","test","","","",""
"1066","71","poldrack-single-stim","63","151618","0.0-24.0","sub-11_ses-03_1","","1636","0","probe","","<div class = centerbox><div class = img-container><img src = ""/static/experiments/dot_pattern_expectancy/images/probe6.png""</img></div></div>","89,71","500","BX","test","4","71","true",""
"-1","-1","poldrack-single-stim","64","152139","0.0-25.0","sub-11_ses-03_1","","500","0","cue","","<div class = centerbox><div class = img-container><img src = ""/static/experiments/dot_pattern_expectancy/images/cue4.png""</img></div></div>","none","500","AX","test","5","","",""
"-1","-1","poldrack-single-stim","65","154158","0.0-26.0","sub-11_ses-03_1","","2000","0","fixation","","<div class = centerbox><div class = fixation>+</div></div>","none","2000","","test","","","",""
"850","89","poldrack-single-stim","66","155797","0.0-27.0","sub-11_ses-03_1","","1636","0","probe","","<div class = centerbox><div class = img-container><img src = ""/static/experiments/dot_pattern_expectancy/images/probe6.png""</img></div></div>","89,71","500","AX","test","5","89","true",""
"-1","-1","poldrack-single-stim","67","156319","0.0-28.0","sub-11_ses-03_1","","500","0","cue","","<div class = centerbox><div class = img-container><img src = ""/static/experiments/dot_pattern_expectancy/images/cue4.png""</img></div></div>","none","500","AX","test","6","","",""
"-1","-1","poldrack-single-stim","68","158327","0.0-29.0","sub-11_ses-03_1","","2000","0","fixation","","<div class = centerbox><div class = fixation>+</div></div>","none","2000","","test","","","",""
"721","89","poldrack-single-stim","69","159848","0.0-30.0","sub-11_ses-03_1","","1500","0","probe","","<div class = centerbox><div class = img-container><img src = ""/static/experiments/dot_pattern_expectancy/images/probe6.png""</img></div></div>","89,71","500","AX","test","6","89","true",""
"-1","-1","poldrack-single-stim","70","160369","0.0-31.0","sub-11_ses-03_1","","500","0","cue","","<div class = centerbox><div class = img-container><img src = ""/static/experiments/dot_pattern_expectancy/images/cue4.png""</img></div></div>","none","500","AX","test","7","","",""
"-1","-1","poldrack-single-stim","71","162388","0.0-32.0","sub-11_ses-03_1","","2000","0","fixation","","<div class = centerbox><div class = fixation>+</div></div>","none","2000","","test","","","",""
"895","89","poldrack-single-stim","72","163908","0.0-33.0","sub-11_ses-03_1","","1500","0","probe","","<div class = centerbox><div class = img-container><img src = ""/static/experiments/dot_pattern_expectancy/images/probe6.png""</img></div></div>","89,71","500","AX","test","7","89","true",""
"-1","-1","poldrack-single-stim","73","164419","0.0-34.0","sub-11_ses-03_1","","500","0","cue","","<div class = centerbox><div class = img-container><img src = ""/static/experiments/dot_pattern_expectancy/images/cue4.png""</img></div></div>","none","500","AY","test","8","","",""
"-1","-1","poldrack-single-stim","74","166440","0.0-35.0","sub-11_ses-03_1","","2000","0","fixation","","<div class = centerbox><div class = fixation>+</div></div>","none","2000","","test","","","",""
"993","71","poldrack-single-stim","75","168488","0.0-36.0","sub-11_ses-03_1","","2044","0","probe","","<div class = centerbox><div class = img-container><img src = ""/static/experiments/dot_pattern_expectancy/images/probe5.png""</img></div></div>","89,71","500","AY","test","8","71","true",""
"-1","-1","poldrack-single-stim","76","169010","0.0-37.0","sub-11_ses-03_1","","500","0","cue","","<div class = centerbox><div class = img-container><img src = ""/static/experiments/dot_pattern_expectancy/images/cue4.png""</img></div></div>","none","500","AX","test","9","","",""
"-1","-1","poldrack-single-stim","77","171020","0.0-38.0","sub-11_ses-03_1","","2000","0","fixation","","<div class = centerbox><div class = fixation>+</div></div>","none","2000","","test","","","",""
"1086","89","poldrack-single-stim","78","173478","0.0-39.0","sub-11_ses-03_1","","2452","0","probe","","<div class = centerbox><div class = img-container><img src = ""/static/experiments/dot_pattern_expectancy/images/probe6.png""</img></div></div>","89,71","500","AX","test","9","89","true",""
"-1","-1","poldrack-single-stim","79","173999","0.0-40.0","sub-11_ses-03_1","","500","0","cue","","<div class = centerbox><div class = img-container><img src = ""/static/experiments/dot_pattern_expectancy/images/cue4.png""</img></div></div>","none","500","AX","test","10","","",""
"-1","-1","poldrack-single-stim","80","176019","0.0-41.0","sub-11_ses-03_1","","2000","0","fixation","","<div class = centerbox><div class = fixation>+</div></div>","none","2000","","test","","","",""
"1124","89","poldrack-single-stim","81","177939","0.0-42.0","sub-11_ses-03_1","","1908","0","probe","","<div class = centerbox><div class = img-container><img src = ""/static/experiments/dot_pattern_expectancy/images/probe6.png""</img></div></div>","89,71","500","AX","test","10","89","true",""
"-1","-1","poldrack-single-stim","82","178460","0.0-43.0","sub-11_ses-03_1","","500","0","cue","","<div class = centerbox><div class = img-container><img src = ""/static/experiments/dot_pattern_expectancy/images/cue4.png""</img></div></div>","none","500","AX","test","11","","",""
"-1","-1","poldrack-single-stim","83","180479","0.0-44.0","sub-11_ses-03_1","","2000","0","fixation","","<div class = centerbox><div class = fixation>+</div></div>","none","2000","","test","","","",""
"916","89","poldrack-single-stim","84","181997","0.0-45.0","sub-11_ses-03_1","","1500","0","probe","","<div class = centerbox><div class = img-container><img src = ""/static/experiments/dot_pattern_expectancy/images/probe6.png""</img></div></div>","89,71","500","AX","test","11","89","true",""
"-1","-1","poldrack-single-stim","85","182556","0.0-46.0","sub-11_ses-03_1","","500","0","cue","","<div class = centerbox><div class = img-container><img src = ""/static/experiments/dot_pattern_expectancy/images/cue4.png""</img></div></div>","none","500","AX","test","12","","",""
"-1","-1","poldrack-single-stim","86","184574","0.0-47.0","sub-11_ses-03_1","","2000","0","fixation","","<div class = centerbox><div class = fixation>+</div></div>","none","2000","","test","","","",""
"802","89","poldrack-single-stim","87","186499","0.0-48.0","sub-11_ses-03_1","","1908","0","probe","","<div class = centerbox><div class = img-container><img src = ""/static/experiments/dot_pattern_expectancy/images/probe6.png""</img></div></div>","89,71","500","AX","test","12","89","true",""
"-1","-1","poldrack-single-stim","88","187019","0.0-49.0","sub-11_ses-03_1","","500","0","cue","","<div class = centerbox><div class = img-container><img src = ""/static/experiments/dot_pattern_expectancy/images/cue6.png""</img></div></div>","none","500","BX","test","13","","",""
"-1","-1","poldrack-single-stim","89","189041","0.0-50.0","sub-11_ses-03_1","","2000","0","fixation","","<div class = centerbox><div class = fixation>+</div></div>","none","2000","","test","","","",""
"852","71","poldrack-single-stim","90","191228","0.0-51.0","sub-11_ses-03_1","","2180","0","probe","","<div class = centerbox><div class = img-container><img src = ""/static/experiments/dot_pattern_expectancy/images/probe6.png""</img></div></div>","89,71","500","BX","test","13","71","true",""
"-1","-1","poldrack-single-stim","91","191750","0.0-52.0","sub-11_ses-03_1","","500","0","cue","","<div class = centerbox><div class = img-container><img src = ""/static/experiments/dot_pattern_expectancy/images/cue4.png""</img></div></div>","none","500","AX","test","14","","",""
"-1","-1","poldrack-single-stim","92","193769","0.0-53.0","sub-11_ses-03_1","","2000","0","fixation","","<div class = centerbox><div class = fixation>+</div></div>","none","2000","","test","","","",""
"520","89","poldrack-single-stim","93","195287","0.0-54.0","sub-11_ses-03_1","","1500","0","probe","","<div class = centerbox><div class = img-container><img src = ""/static/experiments/dot_pattern_expectancy/images/probe6.png""</img></div></div>","89,71","500","AX","test","14","89","true",""
"-1","-1","poldrack-single-stim","94","195809","0.0-55.0","sub-11_ses-03_1","","500","0","cue","","<div class = centerbox><div class = img-container><img src = ""/static/experiments/dot_pattern_expectancy/images/cue5.png""</img></div></div>","none","500","BY","test","15","","",""
"-1","-1","poldrack-single-stim","95","197830","0.0-56.0","sub-11_ses-03_1","","2000","0","fixation","","<div class = centerbox><div class = fixation>+</div></div>","none","2000","","test","","","",""
"879","71","poldrack-single-stim","96","199749","0.0-57.0","sub-11_ses-03_1","","1908","0","probe","","<div class = centerbox><div class = img-container><img src = ""/static/experiments/dot_pattern_expectancy/images/probe5.png""</img></div></div>","89,71","500","BY","test","15","71","true",""
"-1","-1","poldrack-single-stim","97","200270","0.0-58.0","sub-11_ses-03_1","","500","0","cue","","<div class = centerbox><div class = img-container><img src = ""/static/experiments/dot_pattern_expectancy/images/cue5.png""</img></div></div>","none","500","BX","test","16","","",""
"-1","-1","poldrack-single-stim","98","202278","0.0-59.0","sub-11_ses-03_1","","2000","0","fixation","","<div class = centerbox><div class = fixation>+</div></div>","none","2000","","test","","","",""
"870","71","poldrack-single-stim","99","204599","0.0-60.0","sub-11_ses-03_1","","2316","0","probe","","<div class = centerbox><div class = img-container><img src = ""/static/experiments/dot_pattern_expectancy/images/probe6.png""</img></div></div>","89,71","500","BX","test","16","71","true",""
"-1","-1","poldrack-single-stim","100","205119","0.0-61.0","sub-11_ses-03_1","","500","0","cue","","<div class = centerbox><div class = img-container><img src = ""/static/experiments/dot_pattern_expectancy/images/cue4.png""</img></div></div>","none","500","AY","test","17","","",""
"-1","-1","poldrack-single-stim","101","207129","0.0-62.0","sub-11_ses-03_1","","2000","0","fixation","","<div class = centerbox><div class = fixation>+</div></div>","none","2000","","test","","","",""
"1084","71","poldrack-single-stim","102","209449","0.0-63.0","sub-11_ses-03_1","","2316","0","probe","","<div class = centerbox><div class = img-container><img src = ""/static/experiments/dot_pattern_expectancy/images/probe3.png""</img></div></div>","89,71","500","AY","test","17","71","true",""
"-1","-1","poldrack-single-stim","103","209969","0.0-64.0","sub-11_ses-03_1","","500","0","cue","","<div class = centerbox><div class = img-container><img src = ""/static/experiments/dot_pattern_expectancy/images/cue1.png""</img></div></div>","none","500","BX","test","18","","",""
"-1","-1","poldrack-single-stim","104","211979","0.0-65.0","sub-11_ses-03_1","","2000","0","fixation","","<div class = centerbox><div class = fixation>+</div></div>","none","2000","","test","","","",""
"883","71","poldrack-single-stim","105","213618","0.0-66.0","sub-11_ses-03_1","","1636","0","probe","","<div class = centerbox><div class = img-container><img src = ""/static/experiments/dot_pattern_expectancy/images/probe6.png""</img></div></div>","89,71","500","BX","test","18","71","true",""
"-1","-1","poldrack-single-stim","106","214129","0.0-67.0","sub-11_ses-03_1","","500","0","cue","","<div class = centerbox><div class = img-container><img src = ""/static/experiments/dot_pattern_expectancy/images/cue4.png""</img></div></div>","none","500","AY","test","19","","",""
"-1","-1","poldrack-single-stim","107","216139","0.0-68.0","sub-11_ses-03_1","","2000","0","fixation","","<div class = centerbox><div class = fixation>+</div></div>","none","2000","","test","","","",""
"910","71","poldrack-single-stim","108","217649","0.0-69.0","sub-11_ses-03_1","","1500","0","probe","","<div class = centerbox><div class = img-container><img src = ""/static/experiments/dot_pattern_expectancy/images/probe2.png""</img></div></div>","89,71","500","AY","test","19","71","true",""
"-1","-1","poldrack-single-stim","109","218169","0.0-70.0","sub-11_ses-03_1","","500","0","cue","","<div class = centerbox><div class = img-container><img src = ""/static/experiments/dot_pattern_expectancy/images/cue6.png""</img></div></div>","none","500","BY","test","20","","",""
"-1","-1","poldrack-single-stim","110","220189","0.0-71.0","sub-11_ses-03_1","","2000","0","fixation","","<div class = centerbox><div class = fixation>+</div></div>","none","2000","","test","","","",""
"935","71","poldrack-single-stim","111","222109","0.0-72.0","sub-11_ses-03_1","","1908","0","probe","","<div class = centerbox><div class = img-container><img src = ""/static/experiments/dot_pattern_expectancy/images/probe3.png""</img></div></div>","89,71","500","BY","test","20","71","true",""
"-1","-1","poldrack-single-stim","112","222629","0.0-73.0","sub-11_ses-03_1","","500","0","cue","","<div class = centerbox><div class = img-container><img src = ""/static/experiments/dot_pattern_expectancy/images/cue4.png""</img></div></div>","none","500","AX","test","21","","",""
"-1","-1","poldrack-single-stim","113","224649","0.0-74.0","sub-11_ses-03_1","","2000","0","fixation","","<div class = centerbox><div class = fixation>+</div></div>","none","2000","","test","","","",""
"709","89","poldrack-single-stim","114","226158","0.0-75.0","sub-11_ses-03_1","","1500","0","probe","","<div class = centerbox><div class = img-container><img src = ""/static/experiments/dot_pattern_expectancy/images/probe6.png""</img></div></div>","89,71","500","AX","test","21","89","true",""
"-1","-1","poldrack-single-stim","115","226679","0.0-76.0","sub-11_ses-03_1","","500","0","cue","","<div class = centerbox><div class = img-container><img src = ""/static/experiments/dot_pattern_expectancy/images/cue4.png""</img></div></div>","none","500","AY","test","22","","",""
"-1","-1","poldrack-single-stim","116","228690","0.0-77.0","sub-11_ses-03_1","","2000","0","fixation","","<div class = centerbox><div class = fixation>+</div></div>","none","2000","","test","","","",""
"859","71","poldrack-single-stim","117","231028","0.0-78.0","sub-11_ses-03_1","","2316","0","probe","","<div class = centerbox><div class = img-container><img src = ""/static/experiments/dot_pattern_expectancy/images/probe3.png""</img></div></div>","89,71","500","AY","test","22","71","true",""
"-1","-1","poldrack-single-stim","118","231550","0.0-79.0","sub-11_ses-03_1","","500","0","cue","","<div class = centerbox><div class = img-container><img src = ""/static/experiments/dot_pattern_expectancy/images/cue4.png""</img></div></div>","none","500","AX","test","23","","",""
"-1","-1","poldrack-single-stim","119","233570","0.0-80.0","sub-11_ses-03_1","","2000","0","fixation","","<div class = centerbox><div class = fixation>+</div></div>","none","2000","","test","","","",""
"782","89","poldrack-single-stim","120","235078","0.0-81.0","sub-11_ses-03_1","","1500","0","probe","","<div class = centerbox><div class = img-container><img src = ""/static/experiments/dot_pattern_expectancy/images/probe6.png""</img></div></div>","89,71","500","AX","test","23","89","true",""
"-1","-1","poldrack-single-stim","121","235600","0.0-82.0","sub-11_ses-03_1","","500","0","cue","","<div class = centerbox><div class = img-container><img src = ""/static/experiments/dot_pattern_expectancy/images/cue4.png""</img></div></div>","none","500","AY","test","24","","",""
"-1","-1","poldrack-single-stim","122","237621","0.0-83.0","sub-11_ses-03_1","","2000","0","fixation","","<div class = centerbox><div class = fixation>+</div></div>","none","2000","","test","","","",""
"788","71","poldrack-single-stim","123","240348","0.0-84.0","sub-11_ses-03_1","","2724","0","probe","","<div class = centerbox><div class = img-container><img src = ""/static/experiments/dot_pattern_expectancy/images/probe2.png""</img></div></div>","89,71","500","AY","test","24","71","true",""
"-1","-1","poldrack-single-stim","124","240869","0.0-85.0","sub-11_ses-03_1","","500","0","cue","","<div class = centerbox><div class = img-container><img src = ""/static/experiments/dot_pattern_expectancy/images/cue4.png""</img></div></div>","none","500","AX","test","25","","",""
"-1","-1","poldrack-single-stim","125","242889","0.0-86.0","sub-11_ses-03_1","","2000","0","fixation","","<div class = centerbox><div class = fixation>+</div></div>","none","2000","","test","","","",""
"962","89","poldrack-single-stim","126","244409","0.0-87.0","sub-11_ses-03_1","","1500","0","probe","","<div class = centerbox><div class = img-container><img src = ""/static/experiments/dot_pattern_expectancy/images/probe6.png""</img></div></div>","89,71","500","AX","test","25","89","true",""
"-1","-1","poldrack-single-stim","127","244929","0.0-88.0","sub-11_ses-03_1","","500","0","cue","","<div class = centerbox><div class = img-container><img src = ""/static/experiments/dot_pattern_expectancy/images/cue4.png""</img></div></div>","none","500","AX","test","26","","",""
"-1","-1","poldrack-single-stim","128","246939","0.0-89.0","sub-11_ses-03_1","","2000","0","fixation","","<div class = centerbox><div class = fixation>+</div></div>","none","2000","","test","","","",""
"777","89","poldrack-single-stim","129","248579","0.0-90.0","sub-11_ses-03_1","","1636","0","probe","","<div class = centerbox><div class = img-container><img src = ""/static/experiments/dot_pattern_expectancy/images/probe6.png""</img></div></div>","89,71","500","AX","test","26","89","true",""
"-1","-1","poldrack-single-stim","130","249088","0.0-91.0","sub-11_ses-03_1","","500","0","cue","","<div class = centerbox><div class = img-container><img src = ""/static/experiments/dot_pattern_expectancy/images/cue4.png""</img></div></div>","none","500","AX","test","27","","",""
"-1","-1","poldrack-single-stim","131","251109","0.0-92.0","sub-11_ses-03_1","","2000","0","fixation","","<div class = centerbox><div class = fixation>+</div></div>","none","2000","","test","","","",""
"563","89","poldrack-single-stim","132","252748","0.0-93.0","sub-11_ses-03_1","","1636","0","probe","","<div class = centerbox><div class = img-container><img src = ""/static/experiments/dot_pattern_expectancy/images/probe6.png""</img></div></div>","89,71","500","AX","test","27","89","true",""
"-1","-1","poldrack-single-stim","133","253269","0.0-94.0","sub-11_ses-03_1","","500","0","cue","","<div class = centerbox><div class = img-container><img src = ""/static/experiments/dot_pattern_expectancy/images/cue4.png""</img></div></div>","none","500","AX","test","28","","",""
"-1","-1","poldrack-single-stim","134","255279","0.0-95.0","sub-11_ses-03_1","","2000","0","fixation","","<div class = centerbox><div class = fixation>+</div></div>","none","2000","","test","","","",""
"715","89","poldrack-single-stim","135","257058","0.0-96.0","sub-11_ses-03_1","","1772","0","probe","","<div class = centerbox><div class = img-container><img src = ""/static/experiments/dot_pattern_expectancy/images/probe6.png""</img></div></div>","89,71","500","AX","test","28","89","true",""
"-1","-1","poldrack-single-stim","136","257578","0.0-97.0","sub-11_ses-03_1","","500","0","cue","","<div class = centerbox><div class = img-container><img src = ""/static/experiments/dot_pattern_expectancy/images/cue3.png""</img></div></div>","none","500","BY","test","29","","",""
"-1","-1","poldrack-single-stim","137","259600","0.0-98.0","sub-11_ses-03_1","","2000","0","fixation","","<div class = centerbox><div class = fixation>+</div></div>","none","2000","","test","","","",""
"799","71","poldrack-single-stim","138","261378","0.0-99.0","sub-11_ses-03_1","","1772","0","probe","","<div class = centerbox><div class = img-container><img src = ""/static/experiments/dot_pattern_expectancy/images/probe2.png""</img></div></div>","89,71","500","BY","test","29","71","true",""
"-1","-1","poldrack-single-stim","139","261899","0.0-100.0","sub-11_ses-03_1","","500","0","cue","","<div class = centerbox><div class = img-container><img src = ""/static/experiments/dot_pattern_expectancy/images/cue4.png""</img></div></div>","none","500","AX","test","30","","",""
"-1","-1","poldrack-single-stim","140","263921","0.0-101.0","sub-11_ses-03_1","","2000","0","fixation","","<div class = centerbox><div class = fixation>+</div></div>","none","2000","","test","","","",""
"896","89","poldrack-single-stim","141","265439","0.0-102.0","sub-11_ses-03_1","","1500","0","probe","","<div class = centerbox><div class = img-container><img src = ""/static/experiments/dot_pattern_expectancy/images/probe6.png""</img></div></div>","89,71","500","AX","test","30","89","true",""
"-1","-1","poldrack-single-stim","142","265960","0.0-103.0","sub-11_ses-03_1","","500","0","cue","","<div class = centerbox><div class = img-container><img src = ""/static/experiments/dot_pattern_expectancy/images/cue1.png""</img></div></div>","none","500","BY","test","31","","",""
"-1","-1","poldrack-single-stim","143","267980","0.0-104.0","sub-11_ses-03_1","","2000","0","fixation","","<div class = centerbox><div class = fixation>+</div></div>","none","2000","","test","","","",""
"964","71","poldrack-single-stim","144","270438","0.0-105.0","sub-11_ses-03_1","","2452","0","probe","","<div class = centerbox><div class = img-container><img src = ""/static/experiments/dot_pattern_expectancy/images/probe5.png""</img></div></div>","89,71","500","BY","test","31","71","true",""
"-1","-1","poldrack-single-stim","145","270959","0.0-106.0","sub-11_ses-03_1","","500","0","cue","","<div class = centerbox><div class = img-container><img src = ""/static/experiments/dot_pattern_expectancy/images/cue4.png""</img></div></div>","none","500","AX","test","32","","",""
"-1","-1","poldrack-single-stim","146","272979","0.0-107.0","sub-11_ses-03_1","","2000","0","fixation","","<div class = centerbox><div class = fixation>+</div></div>","none","2000","","test","","","",""
"938","89","poldrack-single-stim","147","274617","0.0-108.0","sub-11_ses-03_1","","1636","0","probe","","<div class = centerbox><div class = img-container><img src = ""/static/experiments/dot_pattern_expectancy/images/probe6.png""</img></div></div>","89,71","500","AX","test","32","89","true",""
"-1","-1","poldrack-single-stim","148","275139","0.0-109.0","sub-11_ses-03_1","","500","0","cue","","<div class = centerbox><div class = img-container><img src = ""/static/experiments/dot_pattern_expectancy/images/cue4.png""</img></div></div>","none","500","AX","test","33","","",""
"-1","-1","poldrack-single-stim","149","277149","0.0-110.0","sub-11_ses-03_1","","2000","0","fixation","","<div class = centerbox><div class = fixation>+</div></div>","none","2000","","test","","","",""
"979","89","poldrack-single-stim","150","278788","0.0-111.0","sub-11_ses-03_1","","1636","0","probe","","<div class = centerbox><div class = img-container><img src = ""/static/experiments/dot_pattern_expectancy/images/probe6.png""</img></div></div>","89,71","500","AX","test","33","89","true",""
"-1","-1","poldrack-single-stim","151","279309","0.0-112.0","sub-11_ses-03_1","","500","0","cue","","<div class = centerbox><div class = img-container><img src = ""/static/experiments/dot_pattern_expectancy/images/cue5.png""</img></div></div>","none","500","BX","test","34","","",""
"-1","-1","poldrack-single-stim","152","281318","0.0-113.0","sub-11_ses-03_1","","2000","0","fixation","","<div class = centerbox><div class = fixation>+</div></div>","none","2000","","test","","","",""
"996","71","poldrack-single-stim","153","282838","0.0-114.0","sub-11_ses-03_1","","1500","0","probe","","<div class = centerbox><div class = img-container><img src = ""/static/experiments/dot_pattern_expectancy/images/probe6.png""</img></div></div>","89,71","500","BX","test","34","71","true",""
"-1","-1","poldrack-single-stim","154","283359","0.0-115.0","sub-11_ses-03_1","","500","0","cue","","<div class = centerbox><div class = img-container><img src = ""/static/experiments/dot_pattern_expectancy/images/cue5.png""</img></div></div>","none","500","BX","test","35","","",""
"-1","-1","poldrack-single-stim","155","285369","0.0-116.0","sub-11_ses-03_1","","2000","0","fixation","","<div class = centerbox><div class = fixation>+</div></div>","none","2000","","test","","","",""
"842","71","poldrack-single-stim","156","286888","0.0-117.0","sub-11_ses-03_1","","1500","0","probe","","<div class = centerbox><div class = img-container><img src = ""/static/experiments/dot_pattern_expectancy/images/probe6.png""</img></div></div>","89,71","500","BX","test","35","71","true",""
"-1","-1","poldrack-single-stim","157","287410","0.0-118.0","sub-11_ses-03_1","","500","0","cue","","<div class = centerbox><div class = img-container><img src = ""/static/experiments/dot_pattern_expectancy/images/cue4.png""</img></div></div>","none","500","AX","test","36","","",""
"-1","-1","poldrack-single-stim","158","289419","0.0-119.0","sub-11_ses-03_1","","2000","0","fixation","","<div class = centerbox><div class = fixation>+</div></div>","none","2000","","test","","","",""
"811","89","poldrack-single-stim","159","291740","0.0-120.0","sub-11_ses-03_1","","2316","0","probe","","<div class = centerbox><div class = img-container><img src = ""/static/experiments/dot_pattern_expectancy/images/probe6.png""</img></div></div>","89,71","500","AX","test","36","89","true",""
"-1","-1","poldrack-single-stim","160","292258","0.0-121.0","sub-11_ses-03_1","","500","0","cue","","<div class = centerbox><div class = img-container><img src = ""/static/experiments/dot_pattern_expectancy/images/cue4.png""</img></div></div>","none","500","AY","test","37","","",""
"-1","-1","poldrack-single-stim","161","294279","0.0-122.0","sub-11_ses-03_1","","2000","0","fixation","","<div class = centerbox><div class = fixation>+</div></div>","none","2000","","test","","","",""
"913","71","poldrack-single-stim","162","296338","0.0-123.0","sub-11_ses-03_1","","2044","0","probe","","<div class = centerbox><div class = img-container><img src = ""/static/experiments/dot_pattern_expectancy/images/probe1.png""</img></div></div>","89,71","500","AY","test","37","71","true",""
"-1","-1","poldrack-single-stim","163","296859","0.0-124.0","sub-11_ses-03_1","","500","0","cue","","<div class = centerbox><div class = img-container><img src = ""/static/experiments/dot_pattern_expectancy/images/cue4.png""</img></div></div>","none","500","AX","test","38","","",""
"-1","-1","poldrack-single-stim","164","298879","0.0-125.0","sub-11_ses-03_1","","2000","0","fixation","","<div class = centerbox><div class = fixation>+</div></div>","none","2000","","test","","","",""
"705","89","poldrack-single-stim","165","302842","0.0-126.0","sub-11_ses-03_1","","3948","0","probe","","<div class = centerbox><div class = img-container><img src = ""/static/experiments/dot_pattern_expectancy/images/probe6.png""</img></div></div>","89,71","500","AX","test","38","89","true",""
"-1","-1","poldrack-single-stim","166","303360","0.0-127.0","sub-11_ses-03_1","","500","0","cue","","<div class = centerbox><div class = img-container><img src = ""/static/experiments/dot_pattern_expectancy/images/cue4.png""</img></div></div>","none","500","AX","test","39","","",""
"-1","-1","poldrack-single-stim","167","305379","0.0-128.0","sub-11_ses-03_1","","2000","0","fixation","","<div class = centerbox><div class = fixation>+</div></div>","none","2000","","test","","","",""
"959","89","poldrack-single-stim","168","307019","0.0-129.0","sub-11_ses-03_1","","1636","0","probe","","<div class = centerbox><div class = img-container><img src = ""/static/experiments/dot_pattern_expectancy/images/probe6.png""</img></div></div>","89,71","500","AX","test","39","89","true",""
"-1","-1","poldrack-single-stim","169","314528","0.0-130.0","sub-11_ses-03_1","","7500","1000","rest_block","","<div class = centerbox><div class = center-text>+</div></div>","none","7500","","","","","",""
"-1","-1","poldrack-single-stim","170","317068","0.0-131.0","sub-11_ses-03_1","","1500","500","test_start_block","","<div class = centerbox><div class = center-text>Preparez-vous!</p></div>","none","1500","","","","","",""
"-1","-1","poldrack-single-stim","171","318109","0.0-132.0","sub-11_ses-03_1","","500","0","cue","","<div class = centerbox><div class = img-container><img src = ""/static/experiments/dot_pattern_expectancy/images/cue4.png""</img></div></div>","none","500","AY","test","0","","",""
"-1","-1","poldrack-single-stim","172","320130","0.0-133.0","sub-11_ses-03_1","","2000","0","fixation","","<div class = centerbox><div class = fixation>+</div></div>","none","2000","","test","","","",""
"913","71","poldrack-single-stim","173","321768","0.0-134.0","sub-11_ses-03_1","","1636","0","probe","","<div class = centerbox><div class = img-container><img src = ""/static/experiments/dot_pattern_expectancy/images/probe3.png""</img></div></div>","89,71","500","AY","test","0","71","true",""
"-1","-1","poldrack-single-stim","174","322289","0.0-135.0","sub-11_ses-03_1","","500","0","cue","","<div class = centerbox><div class = img-container><img src = ""/static/experiments/dot_pattern_expectancy/images/cue4.png""</img></div></div>","none","500","AX","test","1","","",""
"-1","-1","poldrack-single-stim","175","324309","0.0-136.0","sub-11_ses-03_1","","2000","0","fixation","","<div class = centerbox><div class = fixation>+</div></div>","none","2000","","test","","","",""
"788","89","poldrack-single-stim","176","325958","0.0-137.0","sub-11_ses-03_1","","1636","0","probe","","<div class = centerbox><div class = img-container><img src = ""/static/experiments/dot_pattern_expectancy/images/probe6.png""</img></div></div>","89,71","500","AX","test","1","89","true",""
"-1","-1","poldrack-single-stim","177","326479","0.0-138.0","sub-11_ses-03_1","","500","0","cue","","<div class = centerbox><div class = img-container><img src = ""/static/experiments/dot_pattern_expectancy/images/cue4.png""</img></div></div>","none","500","AX","test","2","","",""
"-1","-1","poldrack-single-stim","178","328489","0.0-139.0","sub-11_ses-03_1","","2000","0","fixation","","<div class = centerbox><div class = fixation>+</div></div>","none","2000","","test","","","",""
"571","89","poldrack-single-stim","179","330009","0.0-140.0","sub-11_ses-03_1","","1500","0","probe","","<div class = centerbox><div class = img-container><img src = ""/static/experiments/dot_pattern_expectancy/images/probe6.png""</img></div></div>","89,71","500","AX","test","2","89","true",""
"-1","-1","poldrack-single-stim","180","330528","0.0-141.0","sub-11_ses-03_1","","500","0","cue","","<div class = centerbox><div class = img-container><img src = ""/static/experiments/dot_pattern_expectancy/images/cue4.png""</img></div></div>","none","500","AX","test","3","","",""
"-1","-1","poldrack-single-stim","181","332550","0.0-142.0","sub-11_ses-03_1","","2000","0","fixation","","<div class = centerbox><div class = fixation>+</div></div>","none","2000","","test","","","",""
"761","89","poldrack-single-stim","182","334068","0.0-143.0","sub-11_ses-03_1","","1500","0","probe","","<div class = centerbox><div class = img-container><img src = ""/static/experiments/dot_pattern_expectancy/images/probe6.png""</img></div></div>","89,71","500","AX","test","3","89","true",""
"-1","-1","poldrack-single-stim","183","334588","0.0-144.0","sub-11_ses-03_1","","500","0","cue","","<div class = centerbox><div class = img-container><img src = ""/static/experiments/dot_pattern_expectancy/images/cue4.png""</img></div></div>","none","500","AX","test","4","","",""
"-1","-1","poldrack-single-stim","184","336611","0.0-145.0","sub-11_ses-03_1","","2000","0","fixation","","<div class = centerbox><div class = fixation>+</div></div>","none","2000","","test","","","",""
"831","89","poldrack-single-stim","185","338528","0.0-146.0","sub-11_ses-03_1","","1908","0","probe","","<div class = centerbox><div class = img-container><img src = ""/static/experiments/dot_pattern_expectancy/images/probe6.png""</img></div></div>","89,71","500","AX","test","4","89","true",""
"-1","-1","poldrack-single-stim","186","339048","0.0-147.0","sub-11_ses-03_1","","500","0","cue","","<div class = centerbox><div class = img-container><img src = ""/static/experiments/dot_pattern_expectancy/images/cue3.png""</img></div></div>","none","500","BX","test","5","","",""
"-1","-1","poldrack-single-stim","187","341067","0.0-148.0","sub-11_ses-03_1","","2000","0","fixation","","<div class = centerbox><div class = fixation>+</div></div>","none","2000","","test","","","",""
"791","89","poldrack-single-stim","188","342718","0.0-149.0","sub-11_ses-03_1","","1636","0","probe","","<div class = centerbox><div class = img-container><img src = ""/static/experiments/dot_pattern_expectancy/images/probe6.png""</img></div></div>","89,71","500","BX","test","5","71","false",""
"-1","-1","poldrack-single-stim","189","343238","0.0-150.0","sub-11_ses-03_1","","500","0","cue","","<div class = centerbox><div class = img-container><img src = ""/static/experiments/dot_pattern_expectancy/images/cue4.png""</img></div></div>","none","500","AX","test","6","","",""
"-1","-1","poldrack-single-stim","190","345249","0.0-151.0","sub-11_ses-03_1","","2000","0","fixation","","<div class = centerbox><div class = fixation>+</div></div>","none","2000","","test","","","",""
"627","89","poldrack-single-stim","191","347308","0.0-152.0","sub-11_ses-03_1","","2044","0","probe","","<div class = centerbox><div class = img-container><img src = ""/static/experiments/dot_pattern_expectancy/images/probe6.png""</img></div></div>","89,71","500","AX","test","6","89","true",""
"-1","-1","poldrack-single-stim","192","347828","0.0-153.0","sub-11_ses-03_1","","500","0","cue","","<div class = centerbox><div class = img-container><img src = ""/static/experiments/dot_pattern_expectancy/images/cue4.png""</img></div></div>","none","500","AX","test","7","","",""
"-1","-1","poldrack-single-stim","193","349848","0.0-154.0","sub-11_ses-03_1","","2000","0","fixation","","<div class = centerbox><div class = fixation>+</div></div>","none","2000","","test","","","",""
"762","89","poldrack-single-stim","194","351638","0.0-155.0","sub-11_ses-03_1","","1772","0","probe","","<div class = centerbox><div class = img-container><img src = ""/static/experiments/dot_pattern_expectancy/images/probe6.png""</img></div></div>","89,71","500","AX","test","7","89","true",""
"-1","-1","poldrack-single-stim","195","352158","0.0-156.0","sub-11_ses-03_1","","500","0","cue","","<div class = centerbox><div class = img-container><img src = ""/static/experiments/dot_pattern_expectancy/images/cue4.png""</img></div></div>","none","500","AX","test","8","","",""
"-1","-1","poldrack-single-stim","196","354170","0.0-157.0","sub-11_ses-03_1","","2000","0","fixation","","<div class = centerbox><div class = fixation>+</div></div>","none","2000","","test","","","",""
"826","89","poldrack-single-stim","197","355688","0.0-158.0","sub-11_ses-03_1","","1500","0","probe","","<div class = centerbox><div class = img-container><img src = ""/static/experiments/dot_pattern_expectancy/images/probe6.png""</img></div></div>","89,71","500","AX","test","8","89","true",""
"-1","-1","poldrack-single-stim","198","356208","0.0-159.0","sub-11_ses-03_1","","500","0","cue","","<div class = centerbox><div class = img-container><img src = ""/static/experiments/dot_pattern_expectancy/images/cue4.png""</img></div></div>","none","500","AX","test","9","","",""
"-1","-1","poldrack-single-stim","199","358229","0.0-160.0","sub-11_ses-03_1","","2000","0","fixation","","<div class = centerbox><div class = fixation>+</div></div>","none","2000","","test","","","",""
"652","89","poldrack-single-stim","200","360418","0.0-161.0","sub-11_ses-03_1","","2180","0","probe","","<div class = centerbox><div class = img-container><img src = ""/static/experiments/dot_pattern_expectancy/images/probe6.png""</img></div></div>","89,71","500","AX","test","9","89","true",""
"-1","-1","poldrack-single-stim","201","360939","0.0-162.0","sub-11_ses-03_1","","500","0","cue","","<div class = centerbox><div class = img-container><img src = ""/static/experiments/dot_pattern_expectancy/images/cue4.png""</img></div></div>","none","500","AX","test","10","","",""
"-1","-1","poldrack-single-stim","202","362960","0.0-163.0","sub-11_ses-03_1","","2000","0","fixation","","<div class = centerbox><div class = fixation>+</div></div>","none","2000","","test","","","",""
"759","89","poldrack-single-stim","203","364478","0.0-164.0","sub-11_ses-03_1","","1500","0","probe","","<div class = centerbox><div class = img-container><img src = ""/static/experiments/dot_pattern_expectancy/images/probe6.png""</img></div></div>","89,71","500","AX","test","10","89","true",""
"-1","-1","poldrack-single-stim","204","364999","0.0-165.0","sub-11_ses-03_1","","500","0","cue","","<div class = centerbox><div class = img-container><img src = ""/static/experiments/dot_pattern_expectancy/images/cue5.png""</img></div></div>","none","500","BX","test","11","","",""
"-1","-1","poldrack-single-stim","205","367020","0.0-166.0","sub-11_ses-03_1","","2000","0","fixation","","<div class = centerbox><div class = fixation>+</div></div>","none","2000","","test","","","",""
"893","71","poldrack-single-stim","206","370708","0.0-167.0","sub-11_ses-03_1","","3676","0","probe","","<div class = centerbox><div class = img-container><img src = ""/static/experiments/dot_pattern_expectancy/images/probe6.png""</img></div></div>","89,71","500","BX","test","11","71","true",""
"-1","-1","poldrack-single-stim","207","371220","0.0-168.0","sub-11_ses-03_1","","500","0","cue","","<div class = centerbox><div class = img-container><img src = ""/static/experiments/dot_pattern_expectancy/images/cue5.png""</img></div></div>","none","500","BY","test","12","","",""
"-1","-1","poldrack-single-stim","208","373238","0.0-169.0","sub-11_ses-03_1","","2000","0","fixation","","<div class = centerbox><div class = fixation>+</div></div>","none","2000","","test","","","",""
"776","71","poldrack-single-stim","209","374879","0.0-170.0","sub-11_ses-03_1","","1636","0","probe","","<div class = centerbox><div class = img-container><img src = ""/static/experiments/dot_pattern_expectancy/images/probe1.png""</img></div></div>","89,71","500","BY","test","12","71","true",""
"-1","-1","poldrack-single-stim","210","375399","0.0-171.0","sub-11_ses-03_1","","500","0","cue","","<div class = centerbox><div class = img-container><img src = ""/static/experiments/dot_pattern_expectancy/images/cue3.png""</img></div></div>","none","500","BY","test","13","","",""
"-1","-1","poldrack-single-stim","211","377419","0.0-172.0","sub-11_ses-03_1","","2000","0","fixation","","<div class = centerbox><div class = fixation>+</div></div>","none","2000","","test","","","",""
"785","71","poldrack-single-stim","212","379067","0.0-173.0","sub-11_ses-03_1","","1636","0","probe","","<div class = centerbox><div class = img-container><img src = ""/static/experiments/dot_pattern_expectancy/images/probe2.png""</img></div></div>","89,71","500","BY","test","13","71","true",""
"-1","-1","poldrack-single-stim","213","379588","0.0-174.0","sub-11_ses-03_1","","500","0","cue","","<div class = centerbox><div class = img-container><img src = ""/static/experiments/dot_pattern_expectancy/images/cue3.png""</img></div></div>","none","500","BX","test","14","","",""
"-1","-1","poldrack-single-stim","214","381609","0.0-175.0","sub-11_ses-03_1","","2000","0","fixation","","<div class = centerbox><div class = fixation>+</div></div>","none","2000","","test","","","",""
"959","71","poldrack-single-stim","215","383128","0.0-176.0","sub-11_ses-03_1","","1500","0","probe","","<div class = centerbox><div class = img-container><img src = ""/static/experiments/dot_pattern_expectancy/images/probe6.png""</img></div></div>","89,71","500","BX","test","14","71","true",""
"-1","-1","poldrack-single-stim","216","383649","0.0-177.0","sub-11_ses-03_1","","500","0","cue","","<div class = centerbox><div class = img-container><img src = ""/static/experiments/dot_pattern_expectancy/images/cue4.png""</img></div></div>","none","500","AX","test","15","","",""
"-1","-1","poldrack-single-stim","217","385669","0.0-178.0","sub-11_ses-03_1","","2000","0","fixation","","<div class = centerbox><div class = fixation>+</div></div>","none","2000","","test","","","",""
"809","89","poldrack-single-stim","218","387589","0.0-179.0","sub-11_ses-03_1","","1908","0","probe","","<div class = centerbox><div class = img-container><img src = ""/static/experiments/dot_pattern_expectancy/images/probe6.png""</img></div></div>","89,71","500","AX","test","15","89","true",""
"-1","-1","poldrack-single-stim","219","388109","0.0-180.0","sub-11_ses-03_1","","500","0","cue","","<div class = centerbox><div class = img-container><img src = ""/static/experiments/dot_pattern_expectancy/images/cue4.png""</img></div></div>","none","500","AX","test","16","","",""
"-1","-1","poldrack-single-stim","220","390118","0.0-181.0","sub-11_ses-03_1","","2000","0","fixation","","<div class = centerbox><div class = fixation>+</div></div>","none","2000","","test","","","",""
"677","89","poldrack-single-stim","221","391758","0.0-182.0","sub-11_ses-03_1","","1636","0","probe","","<div class = centerbox><div class = img-container><img src = ""/static/experiments/dot_pattern_expectancy/images/probe6.png""</img></div></div>","89,71","500","AX","test","16","89","true",""
"-1","-1","poldrack-single-stim","222","392279","0.0-183.0","sub-11_ses-03_1","","500","0","cue","","<div class = centerbox><div class = img-container><img src = ""/static/experiments/dot_pattern_expectancy/images/cue5.png""</img></div></div>","none","500","BX","test","17","","",""
"-1","-1","poldrack-single-stim","223","394300","0.0-184.0","sub-11_ses-03_1","","2000","0","fixation","","<div class = centerbox><div class = fixation>+</div></div>","none","2000","","test","","","",""
"877","71","poldrack-single-stim","224","395818","0.0-185.0","sub-11_ses-03_1","","1500","0","probe","","<div class = centerbox><div class = img-container><img src = ""/static/experiments/dot_pattern_expectancy/images/probe6.png""</img></div></div>","89,71","500","BX","test","17","71","true",""
"-1","-1","poldrack-single-stim","225","396338","0.0-186.0","sub-11_ses-03_1","","500","0","cue","","<div class = centerbox><div class = img-container><img src = ""/static/experiments/dot_pattern_expectancy/images/cue4.png""</img></div></div>","none","500","AX","test","18","","",""
"-1","-1","poldrack-single-stim","226","398359","0.0-187.0","sub-11_ses-03_1","","2000","0","fixation","","<div class = centerbox><div class = fixation>+</div></div>","none","2000","","test","","","",""
"832","89","poldrack-single-stim","227","400278","0.0-188.0","sub-11_ses-03_1","","1908","0","probe","","<div class = centerbox><div class = img-container><img src = ""/static/experiments/dot_pattern_expectancy/images/probe6.png""</img></div></div>","89,71","500","AX","test","18","89","true",""
"-1","-1","poldrack-single-stim","228","400798","0.0-189.0","sub-11_ses-03_1","","500","0","cue","","<div class = centerbox><div class = img-container><img src = ""/static/experiments/dot_pattern_expectancy/images/cue2.png""</img></div></div>","none","500","BY","test","19","","",""
"-1","-1","poldrack-single-stim","229","402808","0.0-190.0","sub-11_ses-03_1","","2000","0","fixation","","<div class = centerbox><div class = fixation>+</div></div>","none","2000","","test","","","",""
"582","71","poldrack-single-stim","230","405007","0.0-191.0","sub-11_ses-03_1","","2180","0","probe","","<div class = centerbox><div class = img-container><img src = ""/static/experiments/dot_pattern_expectancy/images/probe3.png""</img></div></div>","89,71","500","BY","test","19","71","true",""
"-1","-1","poldrack-single-stim","231","405528","0.0-192.0","sub-11_ses-03_1","","500","0","cue","","<div class = centerbox><div class = img-container><img src = ""/static/experiments/dot_pattern_expectancy/images/cue4.png""</img></div></div>","none","500","AX","test","20","","",""
"-1","-1","poldrack-single-stim","232","407539","0.0-193.0","sub-11_ses-03_1","","2000","0","fixation","","<div class = centerbox><div class = fixation>+</div></div>","none","2000","","test","","","",""
"809","89","poldrack-single-stim","233","409318","0.0-194.0","sub-11_ses-03_1","","1772","0","probe","","<div class = centerbox><div class = img-container><img src = ""/static/experiments/dot_pattern_expectancy/images/probe6.png""</img></div></div>","89,71","500","AX","test","20","89","true",""
"-1","-1","poldrack-single-stim","234","409840","0.0-195.0","sub-11_ses-03_1","","500","0","cue","","<div class = centerbox><div class = img-container><img src = ""/static/experiments/dot_pattern_expectancy/images/cue4.png""</img></div></div>","none","500","AX","test","21","","",""
"-1","-1","poldrack-single-stim","235","411859","0.0-196.0","sub-11_ses-03_1","","2000","0","fixation","","<div class = centerbox><div class = fixation>+</div></div>","none","2000","","test","","","",""
"810","89","poldrack-single-stim","236","413377","0.0-197.0","sub-11_ses-03_1","","1500","0","probe","","<div class = centerbox><div class = img-container><img src = ""/static/experiments/dot_pattern_expectancy/images/probe6.png""</img></div></div>","89,71","500","AX","test","21","89","true",""
"-1","-1","poldrack-single-stim","237","413890","0.0-198.0","sub-11_ses-03_1","","500","0","cue","","<div class = centerbox><div class = img-container><img src = ""/static/experiments/dot_pattern_expectancy/images/cue4.png""</img></div></div>","none","500","AX","test","22","","",""
"-1","-1","poldrack-single-stim","238","415906","0.0-199.0","sub-11_ses-03_1","","2000","0","fixation","","<div class = centerbox><div class = fixation>+</div></div>","none","2000","","test","","","",""
"800","89","poldrack-single-stim","239","417409","0.0-200.0","sub-11_ses-03_1","","1500","0","probe","","<div class = centerbox><div class = img-container><img src = ""/static/experiments/dot_pattern_expectancy/images/probe6.png""</img></div></div>","89,71","500","AX","test","22","89","true",""
"-1","-1","poldrack-single-stim","240","417929","0.0-201.0","sub-11_ses-03_1","","500","0","cue","","<div class = centerbox><div class = img-container><img src = ""/static/experiments/dot_pattern_expectancy/images/cue4.png""</img></div></div>","none","500","AX","test","23","","",""
"-1","-1","poldrack-single-stim","241","419949","0.0-202.0","sub-11_ses-03_1","","2000","0","fixation","","<div class = centerbox><div class = fixation>+</div></div>","none","2000","","test","","","",""
"672","89","poldrack-single-stim","242","422009","0.0-203.0","sub-11_ses-03_1","","2044","0","probe","","<div class = centerbox><div class = img-container><img src = ""/static/experiments/dot_pattern_expectancy/images/probe6.png""</img></div></div>","89,71","500","AX","test","23","89","true",""
"-1","-1","poldrack-single-stim","243","422533","0.0-204.0","sub-11_ses-03_1","","500","0","cue","","<div class = centerbox><div class = img-container><img src = ""/static/experiments/dot_pattern_expectancy/images/cue4.png""</img></div></div>","none","500","AX","test","24","","",""
"-1","-1","poldrack-single-stim","244","424549","0.0-205.0","sub-11_ses-03_1","","2000","0","fixation","","<div class = centerbox><div class = fixation>+</div></div>","none","2000","","test","","","",""
"615","89","poldrack-single-stim","245","427428","0.0-206.0","sub-11_ses-03_1","","2860","0","probe","","<div class = centerbox><div class = img-container><img src = ""/static/experiments/dot_pattern_expectancy/images/probe6.png""</img></div></div>","89,71","500","AX","test","24","89","true",""
"-1","-1","poldrack-single-stim","246","427950","0.0-207.0","sub-11_ses-03_1","","500","0","cue","","<div class = centerbox><div class = img-container><img src = ""/static/experiments/dot_pattern_expectancy/images/cue5.png""</img></div></div>","none","500","BX","test","25","","",""
"-1","-1","poldrack-single-stim","247","429967","0.0-208.0","sub-11_ses-03_1","","2000","0","fixation","","<div class = centerbox><div class = fixation>+</div></div>","none","2000","","test","","","",""
"498","71","poldrack-single-stim","248","431487","0.0-209.0","sub-11_ses-03_1","","1500","0","probe","","<div class = centerbox><div class = img-container><img src = ""/static/experiments/dot_pattern_expectancy/images/probe6.png""</img></div></div>","89,71","500","BX","test","25","71","true",""
"-1","-1","poldrack-single-stim","249","432009","0.0-210.0","sub-11_ses-03_1","","500","0","cue","","<div class = centerbox><div class = img-container><img src = ""/static/experiments/dot_pattern_expectancy/images/cue6.png""</img></div></div>","none","500","BY","test","26","","",""
"-1","-1","poldrack-single-stim","250","434028","0.0-211.0","sub-11_ses-03_1","","2000","0","fixation","","<div class = centerbox><div class = fixation>+</div></div>","none","2000","","test","","","",""
"885","71","poldrack-single-stim","251","435808","0.0-212.0","sub-11_ses-03_1","","1772","0","probe","","<div class = centerbox><div class = img-container><img src = ""/static/experiments/dot_pattern_expectancy/images/probe2.png""</img></div></div>","89,71","500","BY","test","26","71","true",""
"-1","-1","poldrack-single-stim","252","436322","0.0-213.0","sub-11_ses-03_1","","500","0","cue","","<div class = centerbox><div class = img-container><img src = ""/static/experiments/dot_pattern_expectancy/images/cue4.png""</img></div></div>","none","500","AX","test","27","","",""
"-1","-1","poldrack-single-stim","253","438340","0.0-214.0","sub-11_ses-03_1","","2000","0","fixation","","<div class = centerbox><div class = fixation>+</div></div>","none","2000","","test","","","",""
"946","89","poldrack-single-stim","254","440118","0.0-215.0","sub-11_ses-03_1","","1772","0","probe","","<div class = centerbox><div class = img-container><img src = ""/static/experiments/dot_pattern_expectancy/images/probe6.png""</img></div></div>","89,71","500","AX","test","27","89","true",""
"-1","-1","poldrack-single-stim","255","440639","0.0-216.0","sub-11_ses-03_1","","500","0","cue","","<div class = centerbox><div class = img-container><img src = ""/static/experiments/dot_pattern_expectancy/images/cue4.png""</img></div></div>","none","500","AX","test","28","","",""
"-1","-1","poldrack-single-stim","256","442658","0.0-217.0","sub-11_ses-03_1","","2000","0","fixation","","<div class = centerbox><div class = fixation>+</div></div>","none","2000","","test","","","",""
"764","89","poldrack-single-stim","257","445541","0.0-218.0","sub-11_ses-03_1","","2860","0","probe","","<div class = centerbox><div class = img-container><img src = ""/static/experiments/dot_pattern_expectancy/images/probe6.png""</img></div></div>","89,71","500","AX","test","28","89","true",""
"-1","-1","poldrack-single-stim","258","446059","0.0-219.0","sub-11_ses-03_1","","500","0","cue","","<div class = centerbox><div class = img-container><img src = ""/static/experiments/dot_pattern_expectancy/images/cue4.png""</img></div></div>","none","500","AX","test","29","","",""
"-1","-1","poldrack-single-stim","259","448078","0.0-220.0","sub-11_ses-03_1","","2000","0","fixation","","<div class = centerbox><div class = fixation>+</div></div>","none","2000","","test","","","",""
"825","89","poldrack-single-stim","260","449859","0.0-221.0","sub-11_ses-03_1","","1772","0","probe","","<div class = centerbox><div class = img-container><img src = ""/static/experiments/dot_pattern_expectancy/images/probe6.png""</img></div></div>","89,71","500","AX","test","29","89","true",""
"-1","-1","poldrack-single-stim","261","450379","0.0-222.0","sub-11_ses-03_1","","500","0","cue","","<div class = centerbox><div class = img-container><img src = ""/static/experiments/dot_pattern_expectancy/images/cue1.png""</img></div></div>","none","500","BX","test","30","","",""
"-1","-1","poldrack-single-stim","262","452399","0.0-223.0","sub-11_ses-03_1","","2000","0","fixation","","<div class = centerbox><div class = fixation>+</div></div>","none","2000","","test","","","",""
"835","71","poldrack-single-stim","263","454038","0.0-224.0","sub-11_ses-03_1","","1636","0","probe","","<div class = centerbox><div class = img-container><img src = ""/static/experiments/dot_pattern_expectancy/images/probe6.png""</img></div></div>","89,71","500","BX","test","30","71","true",""
"-1","-1","poldrack-single-stim","264","454561","0.0-225.0","sub-11_ses-03_1","","500","0","cue","","<div class = centerbox><div class = img-container><img src = ""/static/experiments/dot_pattern_expectancy/images/cue1.png""</img></div></div>","none","500","BX","test","31","","",""
"-1","-1","poldrack-single-stim","265","456579","0.0-226.0","sub-11_ses-03_1","","2000","0","fixation","","<div class = centerbox><div class = fixation>+</div></div>","none","2000","","test","","","",""
"744","71","poldrack-single-stim","266","459038","0.0-227.0","sub-11_ses-03_1","","2452","0","probe","","<div class = centerbox><div class = img-container><img src = ""/static/experiments/dot_pattern_expectancy/images/probe6.png""</img></div></div>","89,71","500","BX","test","31","71","true",""
"-1","-1","poldrack-single-stim","267","459559","0.0-228.0","sub-11_ses-03_1","","500","0","cue","","<div class = centerbox><div class = img-container><img src = ""/static/experiments/dot_pattern_expectancy/images/cue4.png""</img></div></div>","none","500","AX","test","32","","",""
"-1","-1","poldrack-single-stim","268","461578","0.0-229.0","sub-11_ses-03_1","","2000","0","fixation","","<div class = centerbox><div class = fixation>+</div></div>","none","2000","","test","","","",""
"856","89","poldrack-single-stim","269","463219","0.0-230.0","sub-11_ses-03_1","","1636","0","probe","","<div class = centerbox><div class = img-container><img src = ""/static/experiments/dot_pattern_expectancy/images/probe6.png""</img></div></div>","89,71","500","AX","test","32","89","true",""
"-1","-1","poldrack-single-stim","270","463739","0.0-231.0","sub-11_ses-03_1","","500","0","cue","","<div class = centerbox><div class = img-container><img src = ""/static/experiments/dot_pattern_expectancy/images/cue6.png""</img></div></div>","none","500","BX","test","33","","",""
"-1","-1","poldrack-single-stim","271","465758","0.0-232.0","sub-11_ses-03_1","","2000","0","fixation","","<div class = centerbox><div class = fixation>+</div></div>","none","2000","","test","","","",""
"944","71","poldrack-single-stim","272","467278","0.0-233.0","sub-11_ses-03_1","","1500","0","probe","","<div class = centerbox><div class = img-container><img src = ""/static/experiments/dot_pattern_expectancy/images/probe6.png""</img></div></div>","89,71","500","BX","test","33","71","true",""
"-1","-1","poldrack-single-stim","273","467798","0.0-234.0","sub-11_ses-03_1","","500","0","cue","","<div class = centerbox><div class = img-container><img src = ""/static/experiments/dot_pattern_expectancy/images/cue4.png""</img></div></div>","none","500","AX","test","34","","",""
"-1","-1","poldrack-single-stim","274","469808","0.0-235.0","sub-11_ses-03_1","","2000","0","fixation","","<div class = centerbox><div class = fixation>+</div></div>","none","2000","","test","","","",""
"860","89","poldrack-single-stim","275","471449","0.0-236.0","sub-11_ses-03_1","","1636","0","probe","","<div class = centerbox><div class = img-container><img src = ""/static/experiments/dot_pattern_expectancy/images/probe6.png""</img></div></div>","89,71","500","AX","test","34","89","true",""
"-1","-1","poldrack-single-stim","276","471969","0.0-237.0","sub-11_ses-03_1","","500","0","cue","","<div class = centerbox><div class = img-container><img src = ""/static/experiments/dot_pattern_expectancy/images/cue4.png""</img></div></div>","none","500","AX","test","35","","",""
"-1","-1","poldrack-single-stim","277","473979","0.0-238.0","sub-11_ses-03_1","","2000","0","fixation","","<div class = centerbox><div class = fixation>+</div></div>","none","2000","","test","","","",""
"827","89","poldrack-single-stim","278","475618","0.0-239.0","sub-11_ses-03_1","","1636","0","probe","","<div class = centerbox><div class = img-container><img src = ""/static/experiments/dot_pattern_expectancy/images/probe6.png""</img></div></div>","89,71","500","AX","test","35","89","true",""
"-1","-1","poldrack-single-stim","279","476139","0.0-240.0","sub-11_ses-03_1","","500","0","cue","","<div class = centerbox><div class = img-container><img src = ""/static/experiments/dot_pattern_expectancy/images/cue2.png""</img></div></div>","none","500","BY","test","36","","",""
"-1","-1","poldrack-single-stim","280","478159","0.0-241.0","sub-11_ses-03_1","","2000","0","fixation","","<div class = centerbox><div class = fixation>+</div></div>","none","2000","","test","","","",""
"715","71","poldrack-single-stim","281","480348","0.0-242.0","sub-11_ses-03_1","","2180","0","probe","","<div class = centerbox><div class = img-container><img src = ""/static/experiments/dot_pattern_expectancy/images/probe1.png""</img></div></div>","89,71","500","BY","test","36","71","true",""
"-1","-1","poldrack-single-stim","282","480868","0.0-243.0","sub-11_ses-03_1","","500","0","cue","","<div class = centerbox><div class = img-container><img src = ""/static/experiments/dot_pattern_expectancy/images/cue4.png""</img></div></div>","none","500","AX","test","37","","",""
"-1","-1","poldrack-single-stim","283","482878","0.0-244.0","sub-11_ses-03_1","","2000","0","fixation","","<div class = centerbox><div class = fixation>+</div></div>","none","2000","","test","","","",""
"536","89","poldrack-single-stim","284","484388","0.0-245.0","sub-11_ses-03_1","","1500","0","probe","","<div class = centerbox><div class = img-container><img src = ""/static/experiments/dot_pattern_expectancy/images/probe6.png""</img></div></div>","89,71","500","AX","test","37","89","true",""
"-1","-1","poldrack-single-stim","285","484909","0.0-246.0","sub-11_ses-03_1","","500","0","cue","","<div class = centerbox><div class = img-container><img src = ""/static/experiments/dot_pattern_expectancy/images/cue4.png""</img></div></div>","none","500","AY","test","38","","",""
"-1","-1","poldrack-single-stim","286","486929","0.0-247.0","sub-11_ses-03_1","","2000","0","fixation","","<div class = centerbox><div class = fixation>+</div></div>","none","2000","","test","","","",""
"1092","71","poldrack-single-stim","287","488568","0.0-248.0","sub-11_ses-03_1","","1636","0","probe","","<div class = centerbox><div class = img-container><img src = ""/static/experiments/dot_pattern_expectancy/images/probe4.png""</img></div></div>","89,71","500","AY","test","38","71","true",""
"-1","-1","poldrack-single-stim","288","489088","0.0-249.0","sub-11_ses-03_1","","500","0","cue","","<div class = centerbox><div class = img-container><img src = ""/static/experiments/dot_pattern_expectancy/images/cue4.png""</img></div></div>","none","500","AX","test","39","","",""
"-1","-1","poldrack-single-stim","289","491114","0.0-250.0","sub-11_ses-03_1","","2000","0","fixation","","<div class = centerbox><div class = fixation>+</div></div>","none","2000","","test","","","",""
"460","89","poldrack-single-stim","290","492757","0.0-251.0","sub-11_ses-03_1","","1636","0","probe","","<div class = centerbox><div class = img-container><img src = ""/static/experiments/dot_pattern_expectancy/images/probe6.png""</img></div></div>","89,71","500","AX","test","39","89","true",""
"-1","-1","poldrack-single-stim","291","500270","0.0-252.0","sub-11_ses-03_1","","7500","1000","rest_block","","<div class = centerbox><div class = center-text>+</div></div>","none","7500","","","","","",""
"-1","-1","poldrack-single-stim","292","502799","0.0-253.0","sub-11_ses-03_1","","1500","500","test_start_block","","<div class = centerbox><div class = center-text>Preparez-vous!</p></div>","none","1500","","","","","",""
"-1","-1","poldrack-single-stim","293","503830","0.0-254.0","sub-11_ses-03_1","","500","0","cue","","<div class = centerbox><div class = img-container><img src = ""/static/experiments/dot_pattern_expectancy/images/cue4.png""</img></div></div>","none","500","AX","test","0","","",""
"-1","-1","poldrack-single-stim","294","505849","0.0-255.0","sub-11_ses-03_1","","2000","0","fixation","","<div class = centerbox><div class = fixation>+</div></div>","none","2000","","test","","","",""
"686","89","poldrack-single-stim","295","508038","0.0-256.0","sub-11_ses-03_1","","2180","0","probe","","<div class = centerbox><div class = img-container><img src = ""/static/experiments/dot_pattern_expectancy/images/probe6.png""</img></div></div>","89,71","500","AX","test","0","89","true",""
"-1","-1","poldrack-single-stim","296","508549","0.0-257.0","sub-11_ses-03_1","","500","0","cue","","<div class = centerbox><div class = img-container><img src = ""/static/experiments/dot_pattern_expectancy/images/cue4.png""</img></div></div>","none","500","AY","test","1","","",""
"-1","-1","poldrack-single-stim","297","510558","0.0-258.0","sub-11_ses-03_1","","2000","0","fixation","","<div class = centerbox><div class = fixation>+</div></div>","none","2000","","test","","","",""
"847","71","poldrack-single-stim","298","512877","0.0-259.0","sub-11_ses-03_1","","2316","0","probe","","<div class = centerbox><div class = img-container><img src = ""/static/experiments/dot_pattern_expectancy/images/probe4.png""</img></div></div>","89,71","500","AY","test","1","71","true",""
"-1","-1","poldrack-single-stim","299","513399","0.0-260.0","sub-11_ses-03_1","","500","0","cue","","<div class = centerbox><div class = img-container><img src = ""/static/experiments/dot_pattern_expectancy/images/cue4.png""</img></div></div>","none","500","AY","test","2","","",""
"-1","-1","poldrack-single-stim","300","515419","0.0-261.0","sub-11_ses-03_1","","2000","0","fixation","","<div class = centerbox><div class = fixation>+</div></div>","none","2000","","test","","","",""
"1072","71","poldrack-single-stim","301","517068","0.0-262.0","sub-11_ses-03_1","","1636","0","probe","","<div class = centerbox><div class = img-container><img src = ""/static/experiments/dot_pattern_expectancy/images/probe3.png""</img></div></div>","89,71","500","AY","test","2","71","true",""
"-1","-1","poldrack-single-stim","302","517579","0.0-263.0","sub-11_ses-03_1","","500","0","cue","","<div class = centerbox><div class = img-container><img src = ""/static/experiments/dot_pattern_expectancy/images/cue3.png""</img></div></div>","none","500","BX","test","3","","",""
"-1","-1","poldrack-single-stim","303","519599","0.0-264.0","sub-11_ses-03_1","","2000","0","fixation","","<div class = centerbox><div class = fixation>+</div></div>","none","2000","","test","","","",""
"883","71","poldrack-single-stim","304","521519","0.0-265.0","sub-11_ses-03_1","","1908","0","probe","","<div class = centerbox><div class = img-container><img src = ""/static/experiments/dot_pattern_expectancy/images/probe6.png""</img></div></div>","89,71","500","BX","test","3","71","true",""
"-1","-1","poldrack-single-stim","305","522039","0.0-266.0","sub-11_ses-03_1","","500","0","cue","","<div class = centerbox><div class = img-container><img src = ""/static/experiments/dot_pattern_expectancy/images/cue4.png""</img></div></div>","none","500","AX","test","4","","",""
"-1","-1","poldrack-single-stim","306","524060","0.0-267.0","sub-11_ses-03_1","","2000","0","fixation","","<div class = centerbox><div class = fixation>+</div></div>","none","2000","","test","","","",""
"563","89","poldrack-single-stim","307","527618","0.0-268.0","sub-11_ses-03_1","","3540","0","probe","","<div class = centerbox><div class = img-container><img src = ""/static/experiments/dot_pattern_expectancy/images/probe6.png""</img></div></div>","89,71","500","AX","test","4","89","true",""
"-1","-1","poldrack-single-stim","308","528138","0.0-269.0","sub-11_ses-03_1","","500","0","cue","","<div class = centerbox><div class = img-container><img src = ""/static/experiments/dot_pattern_expectancy/images/cue6.png""</img></div></div>","none","500","BX","test","5","","",""
"-1","-1","poldrack-single-stim","309","530158","0.0-270.0","sub-11_ses-03_1","","2000","0","fixation","","<div class = centerbox><div class = fixation>+</div></div>","none","2000","","test","","","",""
"792","71","poldrack-single-stim","310","531808","0.0-271.0","sub-11_ses-03_1","","1636","0","probe","","<div class = centerbox><div class = img-container><img src = ""/static/experiments/dot_pattern_expectancy/images/probe6.png""</img></div></div>","89,71","500","BX","test","5","71","true",""
"-1","-1","poldrack-single-stim","311","532329","0.0-272.0","sub-11_ses-03_1","","500","0","cue","","<div class = centerbox><div class = img-container><img src = ""/static/experiments/dot_pattern_expectancy/images/cue1.png""</img></div></div>","none","500","BY","test","6","","",""
"-1","-1","poldrack-single-stim","312","534348","0.0-273.0","sub-11_ses-03_1","","2000","0","fixation","","<div class = centerbox><div class = fixation>+</div></div>","none","2000","","test","","","",""
"935","71","poldrack-single-stim","313","535869","0.0-274.0","sub-11_ses-03_1","","1500","0","probe","","<div class = centerbox><div class = img-container><img src = ""/static/experiments/dot_pattern_expectancy/images/probe5.png""</img></div></div>","89,71","500","BY","test","6","71","true",""
"-1","-1","poldrack-single-stim","314","536389","0.0-275.0","sub-11_ses-03_1","","500","0","cue","","<div class = centerbox><div class = img-container><img src = ""/static/experiments/dot_pattern_expectancy/images/cue4.png""</img></div></div>","none","500","AX","test","7","","",""
"-1","-1","poldrack-single-stim","315","538399","0.0-276.0","sub-11_ses-03_1","","2000","0","fixation","","<div class = centerbox><div class = fixation>+</div></div>","none","2000","","test","","","",""
"755","89","poldrack-single-stim","316","539917","0.0-277.0","sub-11_ses-03_1","","1500","0","probe","","<div class = centerbox><div class = img-container><img src = ""/static/experiments/dot_pattern_expectancy/images/probe6.png""</img></div></div>","89,71","500","AX","test","7","89","true",""
"-1","-1","poldrack-single-stim","317","540430","0.0-278.0","sub-11_ses-03_1","","500","0","cue","","<div class = centerbox><div class = img-container><img src = ""/static/experiments/dot_pattern_expectancy/images/cue4.png""</img></div></div>","none","500","AX","test","8","","",""
"-1","-1","poldrack-single-stim","318","542438","0.0-279.0","sub-11_ses-03_1","","2000","0","fixation","","<div class = centerbox><div class = fixation>+</div></div>","none","2000","","test","","","",""
"642","89","poldrack-single-stim","319","544228","0.0-280.0","sub-11_ses-03_1","","1772","0","probe","","<div class = centerbox><div class = img-container><img src = ""/static/experiments/dot_pattern_expectancy/images/probe6.png""</img></div></div>","89,71","500","AX","test","8","89","true",""
"-1","-1","poldrack-single-stim","320","544748","0.0-281.0","sub-11_ses-03_1","","500","0","cue","","<div class = centerbox><div class = img-container><img src = ""/static/experiments/dot_pattern_expectancy/images/cue2.png""</img></div></div>","none","500","BY","test","9","","",""
"-1","-1","poldrack-single-stim","321","546769","0.0-282.0","sub-11_ses-03_1","","2000","0","fixation","","<div class = centerbox><div class = fixation>+</div></div>","none","2000","","test","","","",""
"405","71","poldrack-single-stim","322","549228","0.0-283.0","sub-11_ses-03_1","","2452","0","probe","","<div class = centerbox><div class = img-container><img src = ""/static/experiments/dot_pattern_expectancy/images/probe4.png""</img></div></div>","89,71","500","BY","test","9","71","true",""
"-1","-1","poldrack-single-stim","323","549749","0.0-284.0","sub-11_ses-03_1","","500","0","cue","","<div class = centerbox><div class = img-container><img src = ""/static/experiments/dot_pattern_expectancy/images/cue4.png""</img></div></div>","none","500","AX","test","10","","",""
"-1","-1","poldrack-single-stim","324","551769","0.0-285.0","sub-11_ses-03_1","","2000","0","fixation","","<div class = centerbox><div class = fixation>+</div></div>","none","2000","","test","","","",""
"510","89","poldrack-single-stim","325","553697","0.0-286.0","sub-11_ses-03_1","","1908","0","probe","","<div class = centerbox><div class = img-container><img src = ""/static/experiments/dot_pattern_expectancy/images/probe6.png""</img></div></div>","89,71","500","AX","test","10","89","true",""
"-1","-1","poldrack-single-stim","326","554219","0.0-287.0","sub-11_ses-03_1","","500","0","cue","","<div class = centerbox><div class = img-container><img src = ""/static/experiments/dot_pattern_expectancy/images/cue6.png""</img></div></div>","none","500","BX","test","11","","",""
"-1","-1","poldrack-single-stim","327","556228","0.0-288.0","sub-11_ses-03_1","","2000","0","fixation","","<div class = centerbox><div class = fixation>+</div></div>","none","2000","","test","","","",""
"755","71","poldrack-single-stim","328","557867","0.0-289.0","sub-11_ses-03_1","","1636","0","probe","","<div class = centerbox><div class = img-container><img src = ""/static/experiments/dot_pattern_expectancy/images/probe6.png""</img></div></div>","89,71","500","BX","test","11","71","true",""
"-1","-1","poldrack-single-stim","329","558388","0.0-290.0","sub-11_ses-03_1","","500","0","cue","","<div class = centerbox><div class = img-container><img src = ""/static/experiments/dot_pattern_expectancy/images/cue4.png""</img></div></div>","none","500","AX","test","12","","",""
"-1","-1","poldrack-single-stim","330","560410","0.0-291.0","sub-11_ses-03_1","","2000","0","fixation","","<div class = centerbox><div class = fixation>+</div></div>","none","2000","","test","","","",""
"701","89","poldrack-single-stim","331","561928","0.0-292.0","sub-11_ses-03_1","","1500","0","probe","","<div class = centerbox><div class = img-container><img src = ""/static/experiments/dot_pattern_expectancy/images/probe6.png""</img></div></div>","89,71","500","AX","test","12","89","true",""
"-1","-1","poldrack-single-stim","332","562448","0.0-293.0","sub-11_ses-03_1","","500","0","cue","","<div class = centerbox><div class = img-container><img src = ""/static/experiments/dot_pattern_expectancy/images/cue4.png""</img></div></div>","none","500","AX","test","13","","",""
"-1","-1","poldrack-single-stim","333","564470","0.0-294.0","sub-11_ses-03_1","","2000","0","fixation","","<div class = centerbox><div class = fixation>+</div></div>","none","2000","","test","","","",""
"1091","89","poldrack-single-stim","334","566108","0.0-295.0","sub-11_ses-03_1","","1636","0","probe","","<div class = centerbox><div class = img-container><img src = ""/static/experiments/dot_pattern_expectancy/images/probe6.png""</img></div></div>","89,71","500","AX","test","13","89","true",""
"-1","-1","poldrack-single-stim","335","566628","0.0-296.0","sub-11_ses-03_1","","500","0","cue","","<div class = centerbox><div class = img-container><img src = ""/static/experiments/dot_pattern_expectancy/images/cue4.png""</img></div></div>","none","500","AX","test","14","","",""
"-1","-1","poldrack-single-stim","336","568650","0.0-297.0","sub-11_ses-03_1","","2000","0","fixation","","<div class = centerbox><div class = fixation>+</div></div>","none","2000","","test","","","",""
"820","89","poldrack-single-stim","337","570307","0.0-298.0","sub-11_ses-03_1","","1636","0","probe","","<div class = centerbox><div class = img-container><img src = ""/static/experiments/dot_pattern_expectancy/images/probe6.png""</img></div></div>","89,71","500","AX","test","14","89","true",""
"-1","-1","poldrack-single-stim","338","570828","0.0-299.0","sub-11_ses-03_1","","500","0","cue","","<div class = centerbox><div class = img-container><img src = ""/static/experiments/dot_pattern_expectancy/images/cue2.png""</img></div></div>","none","500","BY","test","15","","",""
"-1","-1","poldrack-single-stim","339","572848","0.0-300.0","sub-11_ses-03_1","","2000","0","fixation","","<div class = centerbox><div class = fixation>+</div></div>","none","2000","","test","","","",""
"495","71","poldrack-single-stim","340","575307","0.0-301.0","sub-11_ses-03_1","","2452","0","probe","","<div class = centerbox><div class = img-container><img src = ""/static/experiments/dot_pattern_expectancy/images/probe1.png""</img></div></div>","89,71","500","BY","test","15","71","true",""
"-1","-1","poldrack-single-stim","341","575828","0.0-302.0","sub-11_ses-03_1","","500","0","cue","","<div class = centerbox><div class = img-container><img src = ""/static/experiments/dot_pattern_expectancy/images/cue4.png""</img></div></div>","none","500","AX","test","16","","",""
"-1","-1","poldrack-single-stim","342","577838","0.0-303.0","sub-11_ses-03_1","","2000","0","fixation","","<div class = centerbox><div class = fixation>+</div></div>","none","2000","","test","","","",""
"-1","-1","poldrack-single-stim","343","579358","0.0-304.0","sub-11_ses-03_1","","1500","0","probe","","<div class = centerbox><div class = img-container><img src = ""/static/experiments/dot_pattern_expectancy/images/probe6.png""</img></div></div>","89,71","500","AX","test","16","89","false",""
"-1","-1","poldrack-single-stim","344","579878","0.0-305.0","sub-11_ses-03_1","","500","0","cue","","<div class = centerbox><div class = img-container><img src = ""/static/experiments/dot_pattern_expectancy/images/cue1.png""</img></div></div>","none","500","BY","test","17","","",""
"-1","-1","poldrack-single-stim","345","581898","0.0-306.0","sub-11_ses-03_1","","2000","0","fixation","","<div class = centerbox><div class = fixation>+</div></div>","none","2000","","test","","","",""
"766","71","poldrack-single-stim","346","583418","0.0-307.0","sub-11_ses-03_1","","1500","0","probe","","<div class = centerbox><div class = img-container><img src = ""/static/experiments/dot_pattern_expectancy/images/probe5.png""</img></div></div>","89,71","500","BY","test","17","71","true",""
"-1","-1","poldrack-single-stim","347","583938","0.0-308.0","sub-11_ses-03_1","","500","0","cue","","<div class = centerbox><div class = img-container><img src = ""/static/experiments/dot_pattern_expectancy/images/cue4.png""</img></div></div>","none","500","AX","test","18","","",""
"-1","-1","poldrack-single-stim","348","585949","0.0-309.0","sub-11_ses-03_1","","2000","0","fixation","","<div class = centerbox><div class = fixation>+</div></div>","none","2000","","test","","","",""
"826","89","poldrack-single-stim","349","587588","0.0-310.0","sub-11_ses-03_1","","1636","0","probe","","<div class = centerbox><div class = img-container><img src = ""/static/experiments/dot_pattern_expectancy/images/probe6.png""</img></div></div>","89,71","500","AX","test","18","89","true",""
"-1","-1","poldrack-single-stim","350","588108","0.0-311.0","sub-11_ses-03_1","","500","0","cue","","<div class = centerbox><div class = img-container><img src = ""/static/experiments/dot_pattern_expectancy/images/cue4.png""</img></div></div>","none","500","AX","test","19","","",""
"-1","-1","poldrack-single-stim","351","590128","0.0-312.0","sub-11_ses-03_1","","2000","0","fixation","","<div class = centerbox><div class = fixation>+</div></div>","none","2000","","test","","","",""
"765","89","poldrack-single-stim","352","591768","0.0-313.0","sub-11_ses-03_1","","1636","0","probe","","<div class = centerbox><div class = img-container><img src = ""/static/experiments/dot_pattern_expectancy/images/probe6.png""</img></div></div>","89,71","500","AX","test","19","89","true",""
"-1","-1","poldrack-single-stim","353","592288","0.0-314.0","sub-11_ses-03_1","","500","0","cue","","<div class = centerbox><div class = img-container><img src = ""/static/experiments/dot_pattern_expectancy/images/cue4.png""</img></div></div>","none","500","AY","test","20","","",""
"-1","-1","poldrack-single-stim","354","594308","0.0-315.0","sub-11_ses-03_1","","2000","0","fixation","","<div class = centerbox><div class = fixation>+</div></div>","none","2000","","test","","","",""
"875","71","poldrack-single-stim","355","595947","0.0-316.0","sub-11_ses-03_1","","1636","0","probe","","<div class = centerbox><div class = img-container><img src = ""/static/experiments/dot_pattern_expectancy/images/probe2.png""</img></div></div>","89,71","500","AY","test","20","71","true",""
"-1","-1","poldrack-single-stim","356","596470","0.0-317.0","sub-11_ses-03_1","","500","0","cue","","<div class = centerbox><div class = img-container><img src = ""/static/experiments/dot_pattern_expectancy/images/cue4.png""</img></div></div>","none","500","AX","test","21","","",""
"-1","-1","poldrack-single-stim","357","598489","0.0-318.0","sub-11_ses-03_1","","2000","0","fixation","","<div class = centerbox><div class = fixation>+</div></div>","none","2000","","test","","","",""
"840","89","poldrack-single-stim","358","600008","0.0-319.0","sub-11_ses-03_1","","1500","0","probe","","<div class = centerbox><div class = img-container><img src = ""/static/experiments/dot_pattern_expectancy/images/probe6.png""</img></div></div>","89,71","500","AX","test","21","89","true",""
"-1","-1","poldrack-single-stim","359","600528","0.0-320.0","sub-11_ses-03_1","","500","0","cue","","<div class = centerbox><div class = img-container><img src = ""/static/experiments/dot_pattern_expectancy/images/cue4.png""</img></div></div>","none","500","AX","test","22","","",""
"-1","-1","poldrack-single-stim","360","602549","0.0-321.0","sub-11_ses-03_1","","2000","0","fixation","","<div class = centerbox><div class = fixation>+</div></div>","none","2000","","test","","","",""
"797","89","poldrack-single-stim","361","604058","0.0-322.0","sub-11_ses-03_1","","1500","0","probe","","<div class = centerbox><div class = img-container><img src = ""/static/experiments/dot_pattern_expectancy/images/probe6.png""</img></div></div>","89,71","500","AX","test","22","89","true",""
"-1","-1","poldrack-single-stim","362","604579","0.0-323.0","sub-11_ses-03_1","","500","0","cue","","<div class = centerbox><div class = img-container><img src = ""/static/experiments/dot_pattern_expectancy/images/cue4.png""</img></div></div>","none","500","AX","test","23","","",""
"-1","-1","poldrack-single-stim","363","606598","0.0-324.0","sub-11_ses-03_1","","2000","0","fixation","","<div class = centerbox><div class = fixation>+</div></div>","none","2000","","test","","","",""
"776","89","poldrack-single-stim","364","608389","0.0-325.0","sub-11_ses-03_1","","1772","0","probe","","<div class = centerbox><div class = img-container><img src = ""/static/experiments/dot_pattern_expectancy/images/probe6.png""</img></div></div>","89,71","500","AX","test","23","89","true",""
"-1","-1","poldrack-single-stim","365","608910","0.0-326.0","sub-11_ses-03_1","","500","0","cue","","<div class = centerbox><div class = img-container><img src = ""/static/experiments/dot_pattern_expectancy/images/cue4.png""</img></div></div>","none","500","AX","test","24","","",""
"-1","-1","poldrack-single-stim","366","610928","0.0-327.0","sub-11_ses-03_1","","2000","0","fixation","","<div class = centerbox><div class = fixation>+</div></div>","none","2000","","test","","","",""
"648","89","poldrack-single-stim","367","613118","0.0-328.0","sub-11_ses-03_1","","2180","0","probe","","<div class = centerbox><div class = img-container><img src = ""/static/experiments/dot_pattern_expectancy/images/probe6.png""</img></div></div>","89,71","500","AX","test","24","89","true",""
"-1","-1","poldrack-single-stim","368","613639","0.0-329.0","sub-11_ses-03_1","","500","0","cue","","<div class = centerbox><div class = img-container><img src = ""/static/experiments/dot_pattern_expectancy/images/cue1.png""</img></div></div>","none","500","BX","test","25","","",""
"-1","-1","poldrack-single-stim","369","615659","0.0-330.0","sub-11_ses-03_1","","2000","0","fixation","","<div class = centerbox><div class = fixation>+</div></div>","none","2000","","test","","","",""
"798","71","poldrack-single-stim","370","617438","0.0-331.0","sub-11_ses-03_1","","1772","0","probe","","<div class = centerbox><div class = img-container><img src = ""/static/experiments/dot_pattern_expectancy/images/probe6.png""</img></div></div>","89,71","500","BX","test","25","71","true",""
"-1","-1","poldrack-single-stim","371","617958","0.0-332.0","sub-11_ses-03_1","","500","0","cue","","<div class = centerbox><div class = img-container><img src = ""/static/experiments/dot_pattern_expectancy/images/cue2.png""</img></div></div>","none","500","BY","test","26","","",""
"-1","-1","poldrack-single-stim","372","619978","0.0-333.0","sub-11_ses-03_1","","2000","0","fixation","","<div class = centerbox><div class = fixation>+</div></div>","none","2000","","test","","","",""
"806","71","poldrack-single-stim","373","621497","0.0-334.0","sub-11_ses-03_1","","1500","0","probe","","<div class = centerbox><div class = img-container><img src = ""/static/experiments/dot_pattern_expectancy/images/probe4.png""</img></div></div>","89,71","500","BY","test","26","71","true",""
"-1","-1","poldrack-single-stim","374","622018","0.0-335.0","sub-11_ses-03_1","","500","0","cue","","<div class = centerbox><div class = img-container><img src = ""/static/experiments/dot_pattern_expectancy/images/cue4.png""</img></div></div>","none","500","AX","test","27","","",""
"-1","-1","poldrack-single-stim","375","624028","0.0-336.0","sub-11_ses-03_1","","2000","0","fixation","","<div class = centerbox><div class = fixation>+</div></div>","none","2000","","test","","","",""
"594","89","poldrack-single-stim","376","625549","0.0-337.0","sub-11_ses-03_1","","1500","0","probe","","<div class = centerbox><div class = img-container><img src = ""/static/experiments/dot_pattern_expectancy/images/probe6.png""</img></div></div>","89,71","500","AX","test","27","89","true",""
"-1","-1","poldrack-single-stim","377","626059","0.0-338.0","sub-11_ses-03_1","","500","0","cue","","<div class = centerbox><div class = img-container><img src = ""/static/experiments/dot_pattern_expectancy/images/cue4.png""</img></div></div>","none","500","AX","test","28","","",""
"-1","-1","poldrack-single-stim","378","628068","0.0-339.0","sub-11_ses-03_1","","2000","0","fixation","","<div class = centerbox><div class = fixation>+</div></div>","none","2000","","test","","","",""
"800","89","poldrack-single-stim","379","629719","0.0-340.0","sub-11_ses-03_1","","1636","0","probe","","<div class = centerbox><div class = img-container><img src = ""/static/experiments/dot_pattern_expectancy/images/probe6.png""</img></div></div>","89,71","500","AX","test","28","89","true",""
"-1","-1","poldrack-single-stim","380","630238","0.0-341.0","sub-11_ses-03_1","","500","0","cue","","<div class = centerbox><div class = img-container><img src = ""/static/experiments/dot_pattern_expectancy/images/cue4.png""</img></div></div>","none","500","AY","test","29","","",""
"-1","-1","poldrack-single-stim","381","632258","0.0-342.0","sub-11_ses-03_1","","2000","0","fixation","","<div class = centerbox><div class = fixation>+</div></div>","none","2000","","test","","","",""
"881","71","poldrack-single-stim","382","634447","0.0-343.0","sub-11_ses-03_1","","2180","0","probe","","<div class = centerbox><div class = img-container><img src = ""/static/experiments/dot_pattern_expectancy/images/probe5.png""</img></div></div>","89,71","500","AY","test","29","71","true",""
"-1","-1","poldrack-single-stim","383","634967","0.0-344.0","sub-11_ses-03_1","","500","0","cue","","<div class = centerbox><div class = img-container><img src = ""/static/experiments/dot_pattern_expectancy/images/cue4.png""</img></div></div>","none","500","AY","test","30","","",""
"-1","-1","poldrack-single-stim","384","636989","0.0-345.0","sub-11_ses-03_1","","2000","0","fixation","","<div class = centerbox><div class = fixation>+</div></div>","none","2000","","test","","","",""
