"rt","key_press","trial_type","trial_index","time_elapsed","internal_node_id","subject","text","block_duration","timing_post_trial","trial_id","stimulus","possible_responses","stim_duration","exp_stage","correct","correct_response","feedback_duration","flanker_middle_direction","flanker_type","flanker_location","cue","trial_num","exp_id"
"4178","13","text","0","4182","0.0-0.0","sub-07_ses-01_1","","","","","","","","","","","","","","","","",""
"2354","89","poldrack-text","1","7562","0.0-1.0","sub-07_ses-01_1","<div class = centerbox><div style = 'font-size: 50px' class = center-text>Veuillez appuyer avec votre index</p></div>","2354","500","fmri_response_test","","","","","","","","","","","","",""
"409","71","poldrack-text","2","8486","0.0-2.0","sub-07_ses-01_1","<div class = centerbox><div style = 'font-size: 50px' class = center-text>Veuillez appuyer avec votre majeur</p></div>","409","500","fmri_response_test","","","","","","","","","","","","",""
"5152","32","poldrack-single-stim","3","14152","0.0-3.0","sub-07_ses-01_1","","5152","500","instructions","<div class = centerbox><div class = center-text>Indiquez dans quelle direction la fleche centrale pointe.<br>Apuyez sur l'index (gauche) ou le majeur (droite).</div>","32","5152","","","","","","","","","",""
"-1","-1","poldrack-single-stim","4","14796","0.0-4.0-0.0","sub-07_ses-01_1","","100","0","doublecue","<div class = centerbox><div class = ANT_text>+</div></div><div class = ANT_down><div class = ANT_text>*</div></div><div class = ANT_up><div class = ANT_text>*</div><div></div>","none","100","practice","","","","","","","","",""
"-1","-1","poldrack-single-stim","5","15204","0.0-4.0-1.0","sub-07_ses-01_1","","400","0","fixation","<div class = centerbox><div class = ANT_text>+</div></div>","none","400","practice","","","","","","","","",""
"964","89","poldrack-categorize","6","17951","0.0-4.0-2.0","sub-07_ses-01_1","","1700","500","stim","<div class = centerbox><div class = ANT_text>+</div></div><div class = ANT_up><img class = ""ANT_img first"" src = /static/experiments/attention_network_task/images/right_arrow.png></img><img class = ANT_img src = /static/experiments/attention_network_task/images/right_arrow.png></img><img class = ANT_img src = /static/experiments/attention_network_task/images/left_arrow.png></img><img class = ANT_img src = /static/experiments/attention_network_task/images/right_arrow.png></img><img class = ANT_img src = /static/experiments/attention_network_task/images/right_arrow.png></img></div></div>","89,71","1700","practice","true","89","1000","left","incongruent","up","double","",""
"-1","-1","poldrack-single-stim","7","18594","0.0-4.0-3.0","sub-07_ses-01_1","","100","0","spatialcue","<div class = centerbox><div class = ANT_text>+</div></div><div class = centerbox><div class = ANT_down><div class = ANT_text>*</p></div></div>","none","100","practice","","","","","","","","",""
"-1","-1","poldrack-single-stim","8","19012","0.0-4.0-4.0","sub-07_ses-01_1","","400","0","fixation","<div class = centerbox><div class = ANT_text>+</div></div>","none","400","practice","","","","","","","","",""
"639","71","poldrack-categorize","9","21752","0.0-4.0-5.0","sub-07_ses-01_1","","1700","500","stim","<div class = centerbox><div class = ANT_text>+</div></div><div class = ANT_down><img class = ""ANT_img first"" src = /static/experiments/attention_network_task/images/left_arrow.png></img><img class = ANT_img src = /static/experiments/attention_network_task/images/left_arrow.png></img><img class = ANT_img src = /static/experiments/attention_network_task/images/right_arrow.png></img><img class = ANT_img src = /static/experiments/attention_network_task/images/left_arrow.png></img><img class = ANT_img src = /static/experiments/attention_network_task/images/left_arrow.png></img></div></div>","89,71","1700","practice","true","71","1000","right","incongruent","down","spatial","",""
"-1","-1","poldrack-single-stim","10","22393","0.0-4.0-6.0","sub-07_ses-01_1","","100","0","doublecue","<div class = centerbox><div class = ANT_text>+</div></div><div class = ANT_down><div class = ANT_text>*</div></div><div class = ANT_up><div class = ANT_text>*</div><div></div>","none","100","practice","","","","","","","","",""
"-1","-1","poldrack-single-stim","11","22813","0.0-4.0-7.0","sub-07_ses-01_1","","400","0","fixation","<div class = centerbox><div class = ANT_text>+</div></div>","none","400","practice","","","","","","","","",""
"1039","89","poldrack-categorize","12","25551","0.0-4.0-8.0","sub-07_ses-01_1","","1700","500","stim","<div class = centerbox><div class = ANT_text>+</div></div><div class = ANT_down><img class = ""ANT_img first"" src = /static/experiments/attention_network_task/images/left_arrow.png></img><img class = ANT_img src = /static/experiments/attention_network_task/images/left_arrow.png></img><img class = ANT_img src = /static/experiments/attention_network_task/images/left_arrow.png></img><img class = ANT_img src = /static/experiments/attention_network_task/images/left_arrow.png></img><img class = ANT_img src = /static/experiments/attention_network_task/images/left_arrow.png></img></div></div>","89,71","1700","practice","true","89","1000","left","congruent","down","double","",""
"-1","-1","poldrack-single-stim","13","26192","0.0-4.0-9.0","sub-07_ses-01_1","","100","0","doublecue","<div class = centerbox><div class = ANT_text>+</div></div><div class = ANT_down><div class = ANT_text>*</div></div><div class = ANT_up><div class = ANT_text>*</div><div></div>","none","100","practice","","","","","","","","",""
"-1","-1","poldrack-single-stim","14","26611","0.0-4.0-10.0","sub-07_ses-01_1","","400","0","fixation","<div class = centerbox><div class = ANT_text>+</div></div>","none","400","practice","","","","","","","","",""
"711","71","poldrack-categorize","15","29343","0.0-4.0-11.0","sub-07_ses-01_1","","1700","500","stim","<div class = centerbox><div class = ANT_text>+</div></div><div class = ANT_up><img class = ""ANT_img first"" src = /static/experiments/attention_network_task/images/right_arrow.png></img><img class = ANT_img src = /static/experiments/attention_network_task/images/right_arrow.png></img><img class = ANT_img src = /static/experiments/attention_network_task/images/right_arrow.png></img><img class = ANT_img src = /static/experiments/attention_network_task/images/right_arrow.png></img><img class = ANT_img src = /static/experiments/attention_network_task/images/right_arrow.png></img></div></div>","89,71","1700","practice","true","71","1000","right","congruent","up","double","",""
"-1","-1","poldrack-single-stim","16","29982","0.0-4.0-12.0","sub-07_ses-01_1","","100","0","spatialcue","<div class = centerbox><div class = ANT_text>+</div></div><div class = centerbox><div class = ANT_down><div class = ANT_text>*</p></div></div>","none","100","practice","","","","","","","","",""
"-1","-1","poldrack-single-stim","17","30402","0.0-4.0-13.0","sub-07_ses-01_1","","400","0","fixation","<div class = centerbox><div class = ANT_text>+</div></div>","none","400","practice","","","","","","","","",""
"823","89","poldrack-categorize","18","33132","0.0-4.0-14.0","sub-07_ses-01_1","","1700","500","stim","<div class = centerbox><div class = ANT_text>+</div></div><div class = ANT_down><img class = ""ANT_img first"" src = /static/experiments/attention_network_task/images/right_arrow.png></img><img class = ANT_img src = /static/experiments/attention_network_task/images/right_arrow.png></img><img class = ANT_img src = /static/experiments/attention_network_task/images/left_arrow.png></img><img class = ANT_img src = /static/experiments/attention_network_task/images/right_arrow.png></img><img class = ANT_img src = /static/experiments/attention_network_task/images/right_arrow.png></img></div></div>","89,71","1700","practice","true","89","1000","left","incongruent","down","spatial","",""
"-1","-1","poldrack-single-stim","19","33773","0.0-4.0-15.0","sub-07_ses-01_1","","100","0","doublecue","<div class = centerbox><div class = ANT_text>+</div></div><div class = ANT_down><div class = ANT_text>*</div></div><div class = ANT_up><div class = ANT_text>*</div><div></div>","none","100","practice","","","","","","","","",""
"-1","-1","poldrack-single-stim","20","34193","0.0-4.0-16.0","sub-07_ses-01_1","","400","0","fixation","<div class = centerbox><div class = ANT_text>+</div></div>","none","400","practice","","","","","","","","",""
"819","71","poldrack-categorize","21","36933","0.0-4.0-17.0","sub-07_ses-01_1","","1700","500","stim","<div class = centerbox><div class = ANT_text>+</div></div><div class = ANT_up><img class = ""ANT_img first"" src = /static/experiments/attention_network_task/images/left_arrow.png></img><img class = ANT_img src = /static/experiments/attention_network_task/images/left_arrow.png></img><img class = ANT_img src = /static/experiments/attention_network_task/images/right_arrow.png></img><img class = ANT_img src = /static/experiments/attention_network_task/images/left_arrow.png></img><img class = ANT_img src = /static/experiments/attention_network_task/images/left_arrow.png></img></div></div>","89,71","1700","practice","true","71","1000","right","incongruent","up","double","",""
"-1","-1","poldrack-single-stim","22","37571","0.0-4.0-18.0","sub-07_ses-01_1","","100","0","spatialcue","<div class = centerbox><div class = ANT_text>+</div></div><div class = centerbox><div class = ANT_up><div class = ANT_text>*</p></div></div>","none","100","practice","","","","","","","","",""
"-1","-1","poldrack-single-stim","23","37992","0.0-4.0-19.0","sub-07_ses-01_1","","400","0","fixation","<div class = centerbox><div class = ANT_text>+</div></div>","none","400","practice","","","","","","","","",""
"719","71","poldrack-categorize","24","40722","0.0-4.0-20.0","sub-07_ses-01_1","","1700","500","stim","<div class = centerbox><div class = ANT_text>+</div></div><div class = ANT_up><img class = ""ANT_img first"" src = /static/experiments/attention_network_task/images/left_arrow.png></img><img class = ANT_img src = /static/experiments/attention_network_task/images/left_arrow.png></img><img class = ANT_img src = /static/experiments/attention_network_task/images/right_arrow.png></img><img class = ANT_img src = /static/experiments/attention_network_task/images/left_arrow.png></img><img class = ANT_img src = /static/experiments/attention_network_task/images/left_arrow.png></img></div></div>","89,71","1700","practice","true","71","1000","right","incongruent","up","spatial","",""
"-1","-1","poldrack-single-stim","25","41352","0.0-4.0-21.0","sub-07_ses-01_1","","100","0","spatialcue","<div class = centerbox><div class = ANT_text>+</div></div><div class = centerbox><div class = ANT_up><div class = ANT_text>*</p></div></div>","none","100","practice","","","","","","","","",""
"-1","-1","poldrack-single-stim","26","41773","0.0-4.0-22.0","sub-07_ses-01_1","","400","0","fixation","<div class = centerbox><div class = ANT_text>+</div></div>","none","400","practice","","","","","","","","",""
"610","71","poldrack-categorize","27","44512","0.0-4.0-23.0","sub-07_ses-01_1","","1700","500","stim","<div class = centerbox><div class = ANT_text>+</div></div><div class = ANT_up><img class = ""ANT_img first"" src = /static/experiments/attention_network_task/images/right_arrow.png></img><img class = ANT_img src = /static/experiments/attention_network_task/images/right_arrow.png></img><img class = ANT_img src = /static/experiments/attention_network_task/images/right_arrow.png></img><img class = ANT_img src = /static/experiments/attention_network_task/images/right_arrow.png></img><img class = ANT_img src = /static/experiments/attention_network_task/images/right_arrow.png></img></div></div>","89,71","1700","practice","true","71","1000","right","congruent","up","spatial","",""
"-1","-1","poldrack-single-stim","28","45153","0.0-4.0-24.0","sub-07_ses-01_1","","100","0","spatialcue","<div class = centerbox><div class = ANT_text>+</div></div><div class = centerbox><div class = ANT_up><div class = ANT_text>*</p></div></div>","none","100","practice","","","","","","","","",""
"-1","-1","poldrack-single-stim","29","45572","0.0-4.0-25.0","sub-07_ses-01_1","","400","0","fixation","<div class = centerbox><div class = ANT_text>+</div></div>","none","400","practice","","","","","","","","",""
"619","89","poldrack-categorize","30","48301","0.0-4.0-26.0","sub-07_ses-01_1","","1700","500","stim","<div class = centerbox><div class = ANT_text>+</div></div><div class = ANT_up><img class = ""ANT_img first"" src = /static/experiments/attention_network_task/images/right_arrow.png></img><img class = ANT_img src = /static/experiments/attention_network_task/images/right_arrow.png></img><img class = ANT_img src = /static/experiments/attention_network_task/images/left_arrow.png></img><img class = ANT_img src = /static/experiments/attention_network_task/images/right_arrow.png></img><img class = ANT_img src = /static/experiments/attention_network_task/images/right_arrow.png></img></div></div>","89,71","1700","practice","true","89","1000","left","incongruent","up","spatial","",""
"-1","-1","poldrack-single-stim","31","48942","0.0-4.0-27.0","sub-07_ses-01_1","","100","0","doublecue","<div class = centerbox><div class = ANT_text>+</div></div><div class = ANT_down><div class = ANT_text>*</div></div><div class = ANT_up><div class = ANT_text>*</div><div></div>","none","100","practice","","","","","","","","",""
"-1","-1","poldrack-single-stim","32","49363","0.0-4.0-28.0","sub-07_ses-01_1","","400","0","fixation","<div class = centerbox><div class = ANT_text>+</div></div>","none","400","practice","","","","","","","","",""
"844","89","poldrack-categorize","33","52091","0.0-4.0-29.0","sub-07_ses-01_1","","1700","500","stim","<div class = centerbox><div class = ANT_text>+</div></div><div class = ANT_down><img class = ""ANT_img first"" src = /static/experiments/attention_network_task/images/right_arrow.png></img><img class = ANT_img src = /static/experiments/attention_network_task/images/right_arrow.png></img><img class = ANT_img src = /static/experiments/attention_network_task/images/left_arrow.png></img><img class = ANT_img src = /static/experiments/attention_network_task/images/right_arrow.png></img><img class = ANT_img src = /static/experiments/attention_network_task/images/right_arrow.png></img></div></div>","89,71","1700","practice","true","89","1000","left","incongruent","down","double","",""
"-1","-1","poldrack-single-stim","34","52733","0.0-4.0-30.0","sub-07_ses-01_1","","100","0","spatialcue","<div class = centerbox><div class = ANT_text>+</div></div><div class = centerbox><div class = ANT_up><div class = ANT_text>*</p></div></div>","none","100","practice","","","","","","","","",""
"-1","-1","poldrack-single-stim","35","53152","0.0-4.0-31.0","sub-07_ses-01_1","","400","0","fixation","<div class = centerbox><div class = ANT_text>+</div></div>","none","400","practice","","","","","","","","",""
"707","89","poldrack-categorize","36","55872","0.0-4.0-32.0","sub-07_ses-01_1","","1700","500","stim","<div class = centerbox><div class = ANT_text>+</div></div><div class = ANT_up><img class = ""ANT_img first"" src = /static/experiments/attention_network_task/images/left_arrow.png></img><img class = ANT_img src = /static/experiments/attention_network_task/images/left_arrow.png></img><img class = ANT_img src = /static/experiments/attention_network_task/images/left_arrow.png></img><img class = ANT_img src = /static/experiments/attention_network_task/images/left_arrow.png></img><img class = ANT_img src = /static/experiments/attention_network_task/images/left_arrow.png></img></div></div>","89,71","1700","practice","true","89","1000","left","congruent","up","spatial","",""
"-1","-1","poldrack-single-stim","37","56511","0.0-4.0-33.0","sub-07_ses-01_1","","100","0","spatialcue","<div class = centerbox><div class = ANT_text>+</div></div><div class = centerbox><div class = ANT_down><div class = ANT_text>*</p></div></div>","none","100","practice","","","","","","","","",""
"-1","-1","poldrack-single-stim","38","56932","0.0-4.0-34.0","sub-07_ses-01_1","","400","0","fixation","<div class = centerbox><div class = ANT_text>+</div></div>","none","400","practice","","","","","","","","",""
"774","89","poldrack-categorize","39","59672","0.0-4.0-35.0","sub-07_ses-01_1","","1700","500","stim","<div class = centerbox><div class = ANT_text>+</div></div><div class = ANT_down><img class = ""ANT_img first"" src = /static/experiments/attention_network_task/images/left_arrow.png></img><img class = ANT_img src = /static/experiments/attention_network_task/images/left_arrow.png></img><img class = ANT_img src = /static/experiments/attention_network_task/images/left_arrow.png></img><img class = ANT_img src = /static/experiments/attention_network_task/images/left_arrow.png></img><img class = ANT_img src = /static/experiments/attention_network_task/images/left_arrow.png></img></div></div>","89,71","1700","practice","true","89","1000","left","congruent","down","spatial","",""
"5230","32","poldrack-text","40","65429","0.0-5.0","sub-07_ses-01_1","<div class = centerbox><div  class = center-text>Scanner Setup</div></div>","5230","0","fmri_scanner_wait","","","","","","","","","","","","",""
"58219","84","poldrack-text","41","123649","0.0-6.0","sub-07_ses-01_1","<div class = centerbox><div style='color:red'; class = center-text>+</div></div>","58219","0","fmri_trigger_wait","","","","","","","","","","","","",""
"-1","-1","poldrack-single-stim","42","124662","0.0-7.0","sub-07_ses-01_1","","1000","0","fmri_buffer","","none","1000","","","","","","","","","",""
"-1","-1","poldrack-single-stim","43","126173","0.0-8.0","sub-07_ses-01_1","","1500","500","test_start_block","<div class = centerbox><div class = center-text>Preparez-vous!</div></div>","none","1500","","","","","","","","","",""
"-1","-1","poldrack-single-stim","44","126813","0.0-9.0","sub-07_ses-01_1","","100","0","spatialcue","<div class = centerbox><div class = ANT_text>+</div></div><div class = centerbox><div class = ANT_up><div class = ANT_text>*</p></div></div>","none","100","test","","","","","","","","",""
"-1","-1","poldrack-single-stim","45","127232","0.0-10.0","sub-07_ses-01_1","","400","0","fixation","<div class = centerbox><div class = ANT_text>+</div></div>","none","400","test","","","","","","","","",""
"733","71","poldrack-single-stim","46","129352","0.0-11.0","sub-07_ses-01_1","","2100","0","stim","<div class = centerbox><div class = ANT_text>+</div></div><div class = ANT_up><img class = ""ANT_img first"" src = /static/experiments/attention_network_task/images/right_arrow.png></img><img class = ANT_img src = /static/experiments/attention_network_task/images/right_arrow.png></img><img class = ANT_img src = /static/experiments/attention_network_task/images/right_arrow.png></img><img class = ANT_img src = /static/experiments/attention_network_task/images/right_arrow.png></img><img class = ANT_img src = /static/experiments/attention_network_task/images/right_arrow.png></img></div></div>","89,71","1700","test","true","71","","right","congruent","up","spatial","0",""
"-1","-1","poldrack-single-stim","47","129472","0.0-12.0","sub-07_ses-01_1","","100","0","doublecue","<div class = centerbox><div class = ANT_text>+</div></div><div class = ANT_down><div class = ANT_text>*</div></div><div class = ANT_up><div class = ANT_text>*</div><div></div>","none","100","test","","","","","","","","",""
"-1","-1","poldrack-single-stim","48","129891","0.0-13.0","sub-07_ses-01_1","","400","0","fixation","<div class = centerbox><div class = ANT_text>+</div></div>","none","400","test","","","","","","","","",""
"848","71","poldrack-single-stim","49","132013","0.0-14.0","sub-07_ses-01_1","","2100.272","0","stim","<div class = centerbox><div class = ANT_text>+</div></div><div class = ANT_down><img class = ""ANT_img first"" src = /static/experiments/attention_network_task/images/left_arrow.png></img><img class = ANT_img src = /static/experiments/attention_network_task/images/left_arrow.png></img><img class = ANT_img src = /static/experiments/attention_network_task/images/right_arrow.png></img><img class = ANT_img src = /static/experiments/attention_network_task/images/left_arrow.png></img><img class = ANT_img src = /static/experiments/attention_network_task/images/left_arrow.png></img></div></div>","89,71","1700","test","true","71","","right","incongruent","down","double","1",""
"-1","-1","poldrack-single-stim","50","132133","0.0-15.0","sub-07_ses-01_1","","100","0","spatialcue","<div class = centerbox><div class = ANT_text>+</div></div><div class = centerbox><div class = ANT_down><div class = ANT_text>*</p></div></div>","none","100","test","","","","","","","","",""
"-1","-1","poldrack-single-stim","51","132552","0.0-16.0","sub-07_ses-01_1","","400","0","fixation","<div class = centerbox><div class = ANT_text>+</div></div>","none","400","test","","","","","","","","",""
"856","89","poldrack-single-stim","52","134673","0.0-17.0","sub-07_ses-01_1","","2100","0","stim","<div class = centerbox><div class = ANT_text>+</div></div><div class = ANT_down><img class = ""ANT_img first"" src = /static/experiments/attention_network_task/images/left_arrow.png></img><img class = ANT_img src = /static/experiments/attention_network_task/images/left_arrow.png></img><img class = ANT_img src = /static/experiments/attention_network_task/images/left_arrow.png></img><img class = ANT_img src = /static/experiments/attention_network_task/images/left_arrow.png></img><img class = ANT_img src = /static/experiments/attention_network_task/images/left_arrow.png></img></div></div>","89,71","1700","test","true","89","","left","congruent","down","spatial","2",""
"-1","-1","poldrack-single-stim","53","134793","0.0-18.0","sub-07_ses-01_1","","100","0","spatialcue","<div class = centerbox><div class = ANT_text>+</div></div><div class = centerbox><div class = ANT_down><div class = ANT_text>*</p></div></div>","none","100","test","","","","","","","","",""
"-1","-1","poldrack-single-stim","54","135212","0.0-19.0","sub-07_ses-01_1","","400","0","fixation","<div class = centerbox><div class = ANT_text>+</div></div>","none","400","test","","","","","","","","",""
"765","89","poldrack-single-stim","55","137333","0.0-20.0","sub-07_ses-01_1","","2100.136","0","stim","<div class = centerbox><div class = ANT_text>+</div></div><div class = ANT_down><img class = ""ANT_img first"" src = /static/experiments/attention_network_task/images/left_arrow.png></img><img class = ANT_img src = /static/experiments/attention_network_task/images/left_arrow.png></img><img class = ANT_img src = /static/experiments/attention_network_task/images/left_arrow.png></img><img class = ANT_img src = /static/experiments/attention_network_task/images/left_arrow.png></img><img class = ANT_img src = /static/experiments/attention_network_task/images/left_arrow.png></img></div></div>","89,71","1700","test","true","89","","left","congruent","down","spatial","3",""
"-1","-1","poldrack-single-stim","56","137452","0.0-21.0","sub-07_ses-01_1","","100","0","doublecue","<div class = centerbox><div class = ANT_text>+</div></div><div class = ANT_down><div class = ANT_text>*</div></div><div class = ANT_up><div class = ANT_text>*</div><div></div>","none","100","test","","","","","","","","",""
"-1","-1","poldrack-single-stim","57","137872","0.0-22.0","sub-07_ses-01_1","","400","0","fixation","<div class = centerbox><div class = ANT_text>+</div></div>","none","400","test","","","","","","","","",""
"720","89","poldrack-single-stim","58","139992","0.0-23.0","sub-07_ses-01_1","","2100.408","0","stim","<div class = centerbox><div class = ANT_text>+</div></div><div class = ANT_up><img class = ""ANT_img first"" src = /static/experiments/attention_network_task/images/right_arrow.png></img><img class = ANT_img src = /static/experiments/attention_network_task/images/right_arrow.png></img><img class = ANT_img src = /static/experiments/attention_network_task/images/left_arrow.png></img><img class = ANT_img src = /static/experiments/attention_network_task/images/right_arrow.png></img><img class = ANT_img src = /static/experiments/attention_network_task/images/right_arrow.png></img></div></div>","89,71","1700","test","true","89","","left","incongruent","up","double","4",""
"-1","-1","poldrack-single-stim","59","140112","0.0-24.0","sub-07_ses-01_1","","100","0","doublecue","<div class = centerbox><div class = ANT_text>+</div></div><div class = ANT_down><div class = ANT_text>*</div></div><div class = ANT_up><div class = ANT_text>*</div><div></div>","none","100","test","","","","","","","","",""
"-1","-1","poldrack-single-stim","60","140533","0.0-25.0","sub-07_ses-01_1","","400","0","fixation","<div class = centerbox><div class = ANT_text>+</div></div>","none","400","test","","","","","","","","",""
"756","89","poldrack-single-stim","61","142642","0.0-26.0","sub-07_ses-01_1","","2100.544","0","stim","<div class = centerbox><div class = ANT_text>+</div></div><div class = ANT_up><img class = ""ANT_img first"" src = /static/experiments/attention_network_task/images/left_arrow.png></img><img class = ANT_img src = /static/experiments/attention_network_task/images/left_arrow.png></img><img class = ANT_img src = /static/experiments/attention_network_task/images/left_arrow.png></img><img class = ANT_img src = /static/experiments/attention_network_task/images/left_arrow.png></img><img class = ANT_img src = /static/experiments/attention_network_task/images/left_arrow.png></img></div></div>","89,71","1700","test","true","89","","left","congruent","up","double","5",""
"-1","-1","poldrack-single-stim","62","142762","0.0-27.0","sub-07_ses-01_1","","100","0","doublecue","<div class = centerbox><div class = ANT_text>+</div></div><div class = ANT_down><div class = ANT_text>*</div></div><div class = ANT_up><div class = ANT_text>*</div><div></div>","none","100","test","","","","","","","","",""
"-1","-1","poldrack-single-stim","63","143183","0.0-28.0","sub-07_ses-01_1","","400","0","fixation","<div class = centerbox><div class = ANT_text>+</div></div>","none","400","test","","","","","","","","",""
"778","89","poldrack-single-stim","64","145302","0.0-29.0","sub-07_ses-01_1","","2100","0","stim","<div class = centerbox><div class = ANT_text>+</div></div><div class = ANT_down><img class = ""ANT_img first"" src = /static/experiments/attention_network_task/images/right_arrow.png></img><img class = ANT_img src = /static/experiments/attention_network_task/images/right_arrow.png></img><img class = ANT_img src = /static/experiments/attention_network_task/images/left_arrow.png></img><img class = ANT_img src = /static/experiments/attention_network_task/images/right_arrow.png></img><img class = ANT_img src = /static/experiments/attention_network_task/images/right_arrow.png></img></div></div>","89,71","1700","test","true","89","","left","incongruent","down","double","6",""
"-1","-1","poldrack-single-stim","65","145422","0.0-30.0","sub-07_ses-01_1","","100","0","spatialcue","<div class = centerbox><div class = ANT_text>+</div></div><div class = centerbox><div class = ANT_up><div class = ANT_text>*</p></div></div>","none","100","test","","","","","","","","",""
"-1","-1","poldrack-single-stim","66","145843","0.0-31.0","sub-07_ses-01_1","","400","0","fixation","<div class = centerbox><div class = ANT_text>+</div></div>","none","400","test","","","","","","","","",""
"733","71","poldrack-single-stim","67","147962","0.0-32.0","sub-07_ses-01_1","","2100.136","0","stim","<div class = centerbox><div class = ANT_text>+</div></div><div class = ANT_up><img class = ""ANT_img first"" src = /static/experiments/attention_network_task/images/left_arrow.png></img><img class = ANT_img src = /static/experiments/attention_network_task/images/left_arrow.png></img><img class = ANT_img src = /static/experiments/attention_network_task/images/right_arrow.png></img><img class = ANT_img src = /static/experiments/attention_network_task/images/left_arrow.png></img><img class = ANT_img src = /static/experiments/attention_network_task/images/left_arrow.png></img></div></div>","89,71","1700","test","true","71","","right","incongruent","up","spatial","7",""
"-1","-1","poldrack-single-stim","68","148120","0.0-33.0","sub-07_ses-01_1","","100","0","doublecue","<div class = centerbox><div class = ANT_text>+</div></div><div class = ANT_down><div class = ANT_text>*</div></div><div class = ANT_up><div class = ANT_text>*</div><div></div>","none","100","test","","","","","","","","",""
"-1","-1","poldrack-single-stim","69","148542","0.0-34.0","sub-07_ses-01_1","","400","0","fixation","<div class = centerbox><div class = ANT_text>+</div></div>","none","400","test","","","","","","","","",""
"775","89","poldrack-single-stim","70","150652","0.0-35.0","sub-07_ses-01_1","","2100.136","0","stim","<div class = centerbox><div class = ANT_text>+</div></div><div class = ANT_down><img class = ""ANT_img first"" src = /static/experiments/attention_network_task/images/right_arrow.png></img><img class = ANT_img src = /static/experiments/attention_network_task/images/right_arrow.png></img><img class = ANT_img src = /static/experiments/attention_network_task/images/left_arrow.png></img><img class = ANT_img src = /static/experiments/attention_network_task/images/right_arrow.png></img><img class = ANT_img src = /static/experiments/attention_network_task/images/right_arrow.png></img></div></div>","89,71","1700","test","true","89","","left","incongruent","down","double","8",""
"-1","-1","poldrack-single-stim","71","150773","0.0-36.0","sub-07_ses-01_1","","100","0","spatialcue","<div class = centerbox><div class = ANT_text>+</div></div><div class = centerbox><div class = ANT_up><div class = ANT_text>*</p></div></div>","none","100","test","","","","","","","","",""
"-1","-1","poldrack-single-stim","72","151192","0.0-37.0","sub-07_ses-01_1","","400","0","fixation","<div class = centerbox><div class = ANT_text>+</div></div>","none","400","test","","","","","","","","",""
"819","89","poldrack-single-stim","73","153302","0.0-38.0","sub-07_ses-01_1","","2100.136","0","stim","<div class = centerbox><div class = ANT_text>+</div></div><div class = ANT_up><img class = ""ANT_img first"" src = /static/experiments/attention_network_task/images/right_arrow.png></img><img class = ANT_img src = /static/experiments/attention_network_task/images/right_arrow.png></img><img class = ANT_img src = /static/experiments/attention_network_task/images/left_arrow.png></img><img class = ANT_img src = /static/experiments/attention_network_task/images/right_arrow.png></img><img class = ANT_img src = /static/experiments/attention_network_task/images/right_arrow.png></img></div></div>","89,71","1700","test","true","89","","left","incongruent","up","spatial","9",""
"-1","-1","poldrack-single-stim","74","153423","0.0-39.0","sub-07_ses-01_1","","100","0","doublecue","<div class = centerbox><div class = ANT_text>+</div></div><div class = ANT_down><div class = ANT_text>*</div></div><div class = ANT_up><div class = ANT_text>*</div><div></div>","none","100","test","","","","","","","","",""
"-1","-1","poldrack-single-stim","75","153843","0.0-40.0","sub-07_ses-01_1","","400","0","fixation","<div class = centerbox><div class = ANT_text>+</div></div>","none","400","test","","","","","","","","",""
"700","89","poldrack-single-stim","76","155952","0.0-41.0","sub-07_ses-01_1","","2100.136","0","stim","<div class = centerbox><div class = ANT_text>+</div></div><div class = ANT_down><img class = ""ANT_img first"" src = /static/experiments/attention_network_task/images/left_arrow.png></img><img class = ANT_img src = /static/experiments/attention_network_task/images/left_arrow.png></img><img class = ANT_img src = /static/experiments/attention_network_task/images/left_arrow.png></img><img class = ANT_img src = /static/experiments/attention_network_task/images/left_arrow.png></img><img class = ANT_img src = /static/experiments/attention_network_task/images/left_arrow.png></img></div></div>","89,71","1700","test","true","89","","left","congruent","down","double","10",""
"-1","-1","poldrack-single-stim","77","156073","0.0-42.0","sub-07_ses-01_1","","100","0","spatialcue","<div class = centerbox><div class = ANT_text>+</div></div><div class = centerbox><div class = ANT_down><div class = ANT_text>*</p></div></div>","none","100","test","","","","","","","","",""
"-1","-1","poldrack-single-stim","78","156492","0.0-43.0","sub-07_ses-01_1","","400","0","fixation","<div class = centerbox><div class = ANT_text>+</div></div>","none","400","test","","","","","","","","",""
"731","89","poldrack-single-stim","79","158612","0.0-44.0","sub-07_ses-01_1","","2100.272","0","stim","<div class = centerbox><div class = ANT_text>+</div></div><div class = ANT_down><img class = ""ANT_img first"" src = /static/experiments/attention_network_task/images/right_arrow.png></img><img class = ANT_img src = /static/experiments/attention_network_task/images/right_arrow.png></img><img class = ANT_img src = /static/experiments/attention_network_task/images/left_arrow.png></img><img class = ANT_img src = /static/experiments/attention_network_task/images/right_arrow.png></img><img class = ANT_img src = /static/experiments/attention_network_task/images/right_arrow.png></img></div></div>","89,71","1700","test","true","89","","left","incongruent","down","spatial","11",""
"-1","-1","poldrack-single-stim","80","158733","0.0-45.0","sub-07_ses-01_1","","100","0","spatialcue","<div class = centerbox><div class = ANT_text>+</div></div><div class = centerbox><div class = ANT_up><div class = ANT_text>*</p></div></div>","none","100","test","","","","","","","","",""
"-1","-1","poldrack-single-stim","81","159143","0.0-46.0","sub-07_ses-01_1","","400","0","fixation","<div class = centerbox><div class = ANT_text>+</div></div>","none","400","test","","","","","","","","",""
"629","89","poldrack-single-stim","82","161261","0.0-47.0","sub-07_ses-01_1","","2100.136","0","stim","<div class = centerbox><div class = ANT_text>+</div></div><div class = ANT_up><img class = ""ANT_img first"" src = /static/experiments/attention_network_task/images/right_arrow.png></img><img class = ANT_img src = /static/experiments/attention_network_task/images/right_arrow.png></img><img class = ANT_img src = /static/experiments/attention_network_task/images/left_arrow.png></img><img class = ANT_img src = /static/experiments/attention_network_task/images/right_arrow.png></img><img class = ANT_img src = /static/experiments/attention_network_task/images/right_arrow.png></img></div></div>","89,71","1700","test","true","89","","left","incongruent","up","spatial","12",""
"-1","-1","poldrack-single-stim","83","161382","0.0-48.0","sub-07_ses-01_1","","100","0","spatialcue","<div class = centerbox><div class = ANT_text>+</div></div><div class = centerbox><div class = ANT_down><div class = ANT_text>*</p></div></div>","none","100","test","","","","","","","","",""
"-1","-1","poldrack-single-stim","84","161802","0.0-49.0","sub-07_ses-01_1","","400","0","fixation","<div class = centerbox><div class = ANT_text>+</div></div>","none","400","test","","","","","","","","",""
"813","71","poldrack-single-stim","85","163921","0.0-50.0","sub-07_ses-01_1","","2100.408","0","stim","<div class = centerbox><div class = ANT_text>+</div></div><div class = ANT_down><img class = ""ANT_img first"" src = /static/experiments/attention_network_task/images/left_arrow.png></img><img class = ANT_img src = /static/experiments/attention_network_task/images/left_arrow.png></img><img class = ANT_img src = /static/experiments/attention_network_task/images/right_arrow.png></img><img class = ANT_img src = /static/experiments/attention_network_task/images/left_arrow.png></img><img class = ANT_img src = /static/experiments/attention_network_task/images/left_arrow.png></img></div></div>","89,71","1700","test","true","71","","right","incongruent","down","spatial","13",""
"-1","-1","poldrack-single-stim","86","164042","0.0-51.0","sub-07_ses-01_1","","100","0","doublecue","<div class = centerbox><div class = ANT_text>+</div></div><div class = ANT_down><div class = ANT_text>*</div></div><div class = ANT_up><div class = ANT_text>*</div><div></div>","none","100","test","","","","","","","","",""
"-1","-1","poldrack-single-stim","87","164462","0.0-52.0","sub-07_ses-01_1","","400","0","fixation","<div class = centerbox><div class = ANT_text>+</div></div>","none","400","test","","","","","","","","",""
"793","89","poldrack-single-stim","88","166572","0.0-53.0","sub-07_ses-01_1","","2100","0","stim","<div class = centerbox><div class = ANT_text>+</div></div><div class = ANT_down><img class = ""ANT_img first"" src = /static/experiments/attention_network_task/images/right_arrow.png></img><img class = ANT_img src = /static/experiments/attention_network_task/images/right_arrow.png></img><img class = ANT_img src = /static/experiments/attention_network_task/images/left_arrow.png></img><img class = ANT_img src = /static/experiments/attention_network_task/images/right_arrow.png></img><img class = ANT_img src = /static/experiments/attention_network_task/images/right_arrow.png></img></div></div>","89,71","1700","test","true","89","","left","incongruent","down","double","14",""
"-1","-1","poldrack-single-stim","89","166692","0.0-54.0","sub-07_ses-01_1","","100","0","doublecue","<div class = centerbox><div class = ANT_text>+</div></div><div class = ANT_down><div class = ANT_text>*</div></div><div class = ANT_up><div class = ANT_text>*</div><div></div>","none","100","test","","","","","","","","",""
"-1","-1","poldrack-single-stim","90","167113","0.0-55.0","sub-07_ses-01_1","","400","0","fixation","<div class = centerbox><div class = ANT_text>+</div></div>","none","400","test","","","","","","","","",""
"667","89","poldrack-single-stim","91","169222","0.0-56.0","sub-07_ses-01_1","","2100.136","0","stim","<div class = centerbox><div class = ANT_text>+</div></div><div class = ANT_down><img class = ""ANT_img first"" src = /static/experiments/attention_network_task/images/left_arrow.png></img><img class = ANT_img src = /static/experiments/attention_network_task/images/left_arrow.png></img><img class = ANT_img src = /static/experiments/attention_network_task/images/left_arrow.png></img><img class = ANT_img src = /static/experiments/attention_network_task/images/left_arrow.png></img><img class = ANT_img src = /static/experiments/attention_network_task/images/left_arrow.png></img></div></div>","89,71","1700","test","true","89","","left","congruent","down","double","15",""
"-1","-1","poldrack-single-stim","92","169341","0.0-57.0","sub-07_ses-01_1","","100","0","spatialcue","<div class = centerbox><div class = ANT_text>+</div></div><div class = centerbox><div class = ANT_down><div class = ANT_text>*</p></div></div>","none","100","test","","","","","","","","",""
"-1","-1","poldrack-single-stim","93","169762","0.0-58.0","sub-07_ses-01_1","","400","0","fixation","<div class = centerbox><div class = ANT_text>+</div></div>","none","400","test","","","","","","","","",""
"748","71","poldrack-single-stim","94","171881","0.0-59.0","sub-07_ses-01_1","","2100","0","stim","<div class = centerbox><div class = ANT_text>+</div></div><div class = ANT_down><img class = ""ANT_img first"" src = /static/experiments/attention_network_task/images/right_arrow.png></img><img class = ANT_img src = /static/experiments/attention_network_task/images/right_arrow.png></img><img class = ANT_img src = /static/experiments/attention_network_task/images/right_arrow.png></img><img class = ANT_img src = /static/experiments/attention_network_task/images/right_arrow.png></img><img class = ANT_img src = /static/experiments/attention_network_task/images/right_arrow.png></img></div></div>","89,71","1700","test","true","71","","right","congruent","down","spatial","16",""
"-1","-1","poldrack-single-stim","95","172002","0.0-60.0","sub-07_ses-01_1","","100","0","doublecue","<div class = centerbox><div class = ANT_text>+</div></div><div class = ANT_down><div class = ANT_text>*</div></div><div class = ANT_up><div class = ANT_text>*</div><div></div>","none","100","test","","","","","","","","",""
"-1","-1","poldrack-single-stim","96","172422","0.0-61.0","sub-07_ses-01_1","","400","0","fixation","<div class = centerbox><div class = ANT_text>+</div></div>","none","400","test","","","","","","","","",""
"878","71","poldrack-single-stim","97","174541","0.0-62.0","sub-07_ses-01_1","","2100.136","0","stim","<div class = centerbox><div class = ANT_text>+</div></div><div class = ANT_up><img class = ""ANT_img first"" src = /static/experiments/attention_network_task/images/left_arrow.png></img><img class = ANT_img src = /static/experiments/attention_network_task/images/left_arrow.png></img><img class = ANT_img src = /static/experiments/attention_network_task/images/right_arrow.png></img><img class = ANT_img src = /static/experiments/attention_network_task/images/left_arrow.png></img><img class = ANT_img src = /static/experiments/attention_network_task/images/left_arrow.png></img></div></div>","89,71","1700","test","true","71","","right","incongruent","up","double","17",""
"-1","-1","poldrack-single-stim","98","174662","0.0-63.0","sub-07_ses-01_1","","100","0","spatialcue","<div class = centerbox><div class = ANT_text>+</div></div><div class = centerbox><div class = ANT_down><div class = ANT_text>*</p></div></div>","none","100","test","","","","","","","","",""
"-1","-1","poldrack-single-stim","99","175083","0.0-64.0","sub-07_ses-01_1","","400","0","fixation","<div class = centerbox><div class = ANT_text>+</div></div>","none","400","test","","","","","","","","",""
"771","89","poldrack-single-stim","100","177201","0.0-65.0","sub-07_ses-01_1","","2100.952","0","stim","<div class = centerbox><div class = ANT_text>+</div></div><div class = ANT_down><img class = ""ANT_img first"" src = /static/experiments/attention_network_task/images/left_arrow.png></img><img class = ANT_img src = /static/experiments/attention_network_task/images/left_arrow.png></img><img class = ANT_img src = /static/experiments/attention_network_task/images/left_arrow.png></img><img class = ANT_img src = /static/experiments/attention_network_task/images/left_arrow.png></img><img class = ANT_img src = /static/experiments/attention_network_task/images/left_arrow.png></img></div></div>","89,71","1700","test","true","89","","left","congruent","down","spatial","18",""
"-1","-1","poldrack-single-stim","101","177322","0.0-66.0","sub-07_ses-01_1","","100","0","doublecue","<div class = centerbox><div class = ANT_text>+</div></div><div class = ANT_down><div class = ANT_text>*</div></div><div class = ANT_up><div class = ANT_text>*</div><div></div>","none","100","test","","","","","","","","",""
"-1","-1","poldrack-single-stim","102","177743","0.0-67.0","sub-07_ses-01_1","","400","0","fixation","<div class = centerbox><div class = ANT_text>+</div></div>","none","400","test","","","","","","","","",""
"822","71","poldrack-single-stim","103","179862","0.0-68.0","sub-07_ses-01_1","","2100.272","0","stim","<div class = centerbox><div class = ANT_text>+</div></div><div class = ANT_up><img class = ""ANT_img first"" src = /static/experiments/attention_network_task/images/right_arrow.png></img><img class = ANT_img src = /static/experiments/attention_network_task/images/right_arrow.png></img><img class = ANT_img src = /static/experiments/attention_network_task/images/right_arrow.png></img><img class = ANT_img src = /static/experiments/attention_network_task/images/right_arrow.png></img><img class = ANT_img src = /static/experiments/attention_network_task/images/right_arrow.png></img></div></div>","89,71","1700","test","true","71","","right","congruent","up","double","19",""
"-1","-1","poldrack-single-stim","104","179983","0.0-69.0","sub-07_ses-01_1","","100","0","doublecue","<div class = centerbox><div class = ANT_text>+</div></div><div class = ANT_down><div class = ANT_text>*</div></div><div class = ANT_up><div class = ANT_text>*</div><div></div>","none","100","test","","","","","","","","",""
"-1","-1","poldrack-single-stim","105","180402","0.0-70.0","sub-07_ses-01_1","","400","0","fixation","<div class = centerbox><div class = ANT_text>+</div></div>","none","400","test","","","","","","","","",""
"910","71","poldrack-single-stim","106","182521","0.0-71.0","sub-07_ses-01_1","","2100.136","0","stim","<div class = centerbox><div class = ANT_text>+</div></div><div class = ANT_up><img class = ""ANT_img first"" src = /static/experiments/attention_network_task/images/right_arrow.png></img><img class = ANT_img src = /static/experiments/attention_network_task/images/right_arrow.png></img><img class = ANT_img src = /static/experiments/attention_network_task/images/right_arrow.png></img><img class = ANT_img src = /static/experiments/attention_network_task/images/right_arrow.png></img><img class = ANT_img src = /static/experiments/attention_network_task/images/right_arrow.png></img></div></div>","89,71","1700","test","true","71","","right","congruent","up","double","20",""
"-1","-1","poldrack-single-stim","107","182642","0.0-72.0","sub-07_ses-01_1","","100","0","doublecue","<div class = centerbox><div class = ANT_text>+</div></div><div class = ANT_down><div class = ANT_text>*</div></div><div class = ANT_up><div class = ANT_text>*</div><div></div>","none","100","test","","","","","","","","",""
"-1","-1","poldrack-single-stim","108","183063","0.0-73.0","sub-07_ses-01_1","","400","0","fixation","<div class = centerbox><div class = ANT_text>+</div></div>","none","400","test","","","","","","","","",""
"768","71","poldrack-single-stim","109","185173","0.0-74.0","sub-07_ses-01_1","","2100","0","stim","<div class = centerbox><div class = ANT_text>+</div></div><div class = ANT_up><img class = ""ANT_img first"" src = /static/experiments/attention_network_task/images/left_arrow.png></img><img class = ANT_img src = /static/experiments/attention_network_task/images/left_arrow.png></img><img class = ANT_img src = /static/experiments/attention_network_task/images/right_arrow.png></img><img class = ANT_img src = /static/experiments/attention_network_task/images/left_arrow.png></img><img class = ANT_img src = /static/experiments/attention_network_task/images/left_arrow.png></img></div></div>","89,71","1700","test","true","71","","right","incongruent","up","double","21",""
"-1","-1","poldrack-single-stim","110","185292","0.0-75.0","sub-07_ses-01_1","","100","0","spatialcue","<div class = centerbox><div class = ANT_text>+</div></div><div class = centerbox><div class = ANT_down><div class = ANT_text>*</p></div></div>","none","100","test","","","","","","","","",""
"-1","-1","poldrack-single-stim","111","185714","0.0-76.0","sub-07_ses-01_1","","400","0","fixation","<div class = centerbox><div class = ANT_text>+</div></div>","none","400","test","","","","","","","","",""
"916","89","poldrack-single-stim","112","187832","0.0-77.0","sub-07_ses-01_1","","2100.136","0","stim","<div class = centerbox><div class = ANT_text>+</div></div><div class = ANT_down><img class = ""ANT_img first"" src = /static/experiments/attention_network_task/images/right_arrow.png></img><img class = ANT_img src = /static/experiments/attention_network_task/images/right_arrow.png></img><img class = ANT_img src = /static/experiments/attention_network_task/images/left_arrow.png></img><img class = ANT_img src = /static/experiments/attention_network_task/images/right_arrow.png></img><img class = ANT_img src = /static/experiments/attention_network_task/images/right_arrow.png></img></div></div>","89,71","1700","test","true","89","","left","incongruent","down","spatial","22",""
"-1","-1","poldrack-single-stim","113","187954","0.0-78.0","sub-07_ses-01_1","","100","0","doublecue","<div class = centerbox><div class = ANT_text>+</div></div><div class = ANT_down><div class = ANT_text>*</div></div><div class = ANT_up><div class = ANT_text>*</div><div></div>","none","100","test","","","","","","","","",""
"-1","-1","poldrack-single-stim","114","188362","0.0-79.0","sub-07_ses-01_1","","400","0","fixation","<div class = centerbox><div class = ANT_text>+</div></div>","none","400","test","","","","","","","","",""
"959","89","poldrack-single-stim","115","190482","0.0-80.0","sub-07_ses-01_1","","2100","0","stim","<div class = centerbox><div class = ANT_text>+</div></div><div class = ANT_up><img class = ""ANT_img first"" src = /static/experiments/attention_network_task/images/left_arrow.png></img><img class = ANT_img src = /static/experiments/attention_network_task/images/left_arrow.png></img><img class = ANT_img src = /static/experiments/attention_network_task/images/left_arrow.png></img><img class = ANT_img src = /static/experiments/attention_network_task/images/left_arrow.png></img><img class = ANT_img src = /static/experiments/attention_network_task/images/left_arrow.png></img></div></div>","89,71","1700","test","true","89","","left","congruent","up","double","23",""
"-1","-1","poldrack-single-stim","116","190603","0.0-81.0","sub-07_ses-01_1","","100","0","spatialcue","<div class = centerbox><div class = ANT_text>+</div></div><div class = centerbox><div class = ANT_down><div class = ANT_text>*</p></div></div>","none","100","test","","","","","","","","",""
"-1","-1","poldrack-single-stim","117","191023","0.0-82.0","sub-07_ses-01_1","","400","0","fixation","<div class = centerbox><div class = ANT_text>+</div></div>","none","400","test","","","","","","","","",""
"869","71","poldrack-single-stim","118","193142","0.0-83.0","sub-07_ses-01_1","","2100.136","0","stim","<div class = centerbox><div class = ANT_text>+</div></div><div class = ANT_down><img class = ""ANT_img first"" src = /static/experiments/attention_network_task/images/left_arrow.png></img><img class = ANT_img src = /static/experiments/attention_network_task/images/left_arrow.png></img><img class = ANT_img src = /static/experiments/attention_network_task/images/right_arrow.png></img><img class = ANT_img src = /static/experiments/attention_network_task/images/left_arrow.png></img><img class = ANT_img src = /static/experiments/attention_network_task/images/left_arrow.png></img></div></div>","89,71","1700","test","true","71","","right","incongruent","down","spatial","24",""
"-1","-1","poldrack-single-stim","119","193263","0.0-84.0","sub-07_ses-01_1","","100","0","doublecue","<div class = centerbox><div class = ANT_text>+</div></div><div class = ANT_down><div class = ANT_text>*</div></div><div class = ANT_up><div class = ANT_text>*</div><div></div>","none","100","test","","","","","","","","",""
"-1","-1","poldrack-single-stim","120","193682","0.0-85.0","sub-07_ses-01_1","","400","0","fixation","<div class = centerbox><div class = ANT_text>+</div></div>","none","400","test","","","","","","","","",""
"811","89","poldrack-single-stim","121","195801","0.0-86.0","sub-07_ses-01_1","","2100.272","0","stim","<div class = centerbox><div class = ANT_text>+</div></div><div class = ANT_down><img class = ""ANT_img first"" src = /static/experiments/attention_network_task/images/right_arrow.png></img><img class = ANT_img src = /static/experiments/attention_network_task/images/right_arrow.png></img><img class = ANT_img src = /static/experiments/attention_network_task/images/left_arrow.png></img><img class = ANT_img src = /static/experiments/attention_network_task/images/right_arrow.png></img><img class = ANT_img src = /static/experiments/attention_network_task/images/right_arrow.png></img></div></div>","89,71","1700","test","true","89","","left","incongruent","down","double","25",""
"-1","-1","poldrack-single-stim","122","195924","0.0-87.0","sub-07_ses-01_1","","100","0","spatialcue","<div class = centerbox><div class = ANT_text>+</div></div><div class = centerbox><div class = ANT_up><div class = ANT_text>*</p></div></div>","none","100","test","","","","","","","","",""
"-1","-1","poldrack-single-stim","123","196343","0.0-88.0","sub-07_ses-01_1","","400","0","fixation","<div class = centerbox><div class = ANT_text>+</div></div>","none","400","test","","","","","","","","",""
"755","71","poldrack-single-stim","124","198452","0.0-89.0","sub-07_ses-01_1","","2100.272","0","stim","<div class = centerbox><div class = ANT_text>+</div></div><div class = ANT_up><img class = ""ANT_img first"" src = /static/experiments/attention_network_task/images/left_arrow.png></img><img class = ANT_img src = /static/experiments/attention_network_task/images/left_arrow.png></img><img class = ANT_img src = /static/experiments/attention_network_task/images/right_arrow.png></img><img class = ANT_img src = /static/experiments/attention_network_task/images/left_arrow.png></img><img class = ANT_img src = /static/experiments/attention_network_task/images/left_arrow.png></img></div></div>","89,71","1700","test","true","71","","right","incongruent","up","spatial","26",""
"-1","-1","poldrack-single-stim","125","198570","0.0-90.0","sub-07_ses-01_1","","100","0","doublecue","<div class = centerbox><div class = ANT_text>+</div></div><div class = ANT_down><div class = ANT_text>*</div></div><div class = ANT_up><div class = ANT_text>*</div><div></div>","none","100","test","","","","","","","","",""
"-1","-1","poldrack-single-stim","126","198981","0.0-91.0","sub-07_ses-01_1","","400","0","fixation","<div class = centerbox><div class = ANT_text>+</div></div>","none","400","test","","","","","","","","",""
"758","71","poldrack-single-stim","127","201101","0.0-92.0","sub-07_ses-01_1","","2100.136","0","stim","<div class = centerbox><div class = ANT_text>+</div></div><div class = ANT_up><img class = ""ANT_img first"" src = /static/experiments/attention_network_task/images/right_arrow.png></img><img class = ANT_img src = /static/experiments/attention_network_task/images/right_arrow.png></img><img class = ANT_img src = /static/experiments/attention_network_task/images/right_arrow.png></img><img class = ANT_img src = /static/experiments/attention_network_task/images/right_arrow.png></img><img class = ANT_img src = /static/experiments/attention_network_task/images/right_arrow.png></img></div></div>","89,71","1700","test","true","71","","right","congruent","up","double","27",""
"-1","-1","poldrack-single-stim","128","201221","0.0-93.0","sub-07_ses-01_1","","100","0","doublecue","<div class = centerbox><div class = ANT_text>+</div></div><div class = ANT_down><div class = ANT_text>*</div></div><div class = ANT_up><div class = ANT_text>*</div><div></div>","none","100","test","","","","","","","","",""
"-1","-1","poldrack-single-stim","129","201642","0.0-94.0","sub-07_ses-01_1","","400","0","fixation","<div class = centerbox><div class = ANT_text>+</div></div>","none","400","test","","","","","","","","",""
"741","89","poldrack-single-stim","130","203762","0.0-95.0","sub-07_ses-01_1","","2100","0","stim","<div class = centerbox><div class = ANT_text>+</div></div><div class = ANT_up><img class = ""ANT_img first"" src = /static/experiments/attention_network_task/images/right_arrow.png></img><img class = ANT_img src = /static/experiments/attention_network_task/images/right_arrow.png></img><img class = ANT_img src = /static/experiments/attention_network_task/images/left_arrow.png></img><img class = ANT_img src = /static/experiments/attention_network_task/images/right_arrow.png></img><img class = ANT_img src = /static/experiments/attention_network_task/images/right_arrow.png></img></div></div>","89,71","1700","test","true","89","","left","incongruent","up","double","28",""
"-1","-1","poldrack-single-stim","131","203883","0.0-96.0","sub-07_ses-01_1","","100","0","doublecue","<div class = centerbox><div class = ANT_text>+</div></div><div class = ANT_down><div class = ANT_text>*</div></div><div class = ANT_up><div class = ANT_text>*</div><div></div>","none","100","test","","","","","","","","",""
"-1","-1","poldrack-single-stim","132","204301","0.0-97.0","sub-07_ses-01_1","","400","0","fixation","<div class = centerbox><div class = ANT_text>+</div></div>","none","400","test","","","","","","","","",""
"822","71","poldrack-single-stim","133","206412","0.0-98.0","sub-07_ses-01_1","","2100.136","0","stim","<div class = centerbox><div class = ANT_text>+</div></div><div class = ANT_down><img class = ""ANT_img first"" src = /static/experiments/attention_network_task/images/left_arrow.png></img><img class = ANT_img src = /static/experiments/attention_network_task/images/left_arrow.png></img><img class = ANT_img src = /static/experiments/attention_network_task/images/right_arrow.png></img><img class = ANT_img src = /static/experiments/attention_network_task/images/left_arrow.png></img><img class = ANT_img src = /static/experiments/attention_network_task/images/left_arrow.png></img></div></div>","89,71","1700","test","true","71","","right","incongruent","down","double","29",""
"-1","-1","poldrack-single-stim","134","206591","0.0-99.0","sub-07_ses-01_1","","100","0","spatialcue","<div class = centerbox><div class = ANT_text>+</div></div><div class = centerbox><div class = ANT_down><div class = ANT_text>*</p></div></div>","none","100","test","","","","","","","","",""
"-1","-1","poldrack-single-stim","135","207018","0.0-100.0","sub-07_ses-01_1","","400","0","fixation","<div class = centerbox><div class = ANT_text>+</div></div>","none","400","test","","","","","","","","",""
"682","89","poldrack-single-stim","136","209132","0.0-101.0","sub-07_ses-01_1","","2100","0","stim","<div class = centerbox><div class = ANT_text>+</div></div><div class = ANT_down><img class = ""ANT_img first"" src = /static/experiments/attention_network_task/images/left_arrow.png></img><img class = ANT_img src = /static/experiments/attention_network_task/images/left_arrow.png></img><img class = ANT_img src = /static/experiments/attention_network_task/images/left_arrow.png></img><img class = ANT_img src = /static/experiments/attention_network_task/images/left_arrow.png></img><img class = ANT_img src = /static/experiments/attention_network_task/images/left_arrow.png></img></div></div>","89,71","1700","test","true","89","","left","congruent","down","spatial","30",""
"-1","-1","poldrack-single-stim","137","209252","0.0-102.0","sub-07_ses-01_1","","100","0","doublecue","<div class = centerbox><div class = ANT_text>+</div></div><div class = ANT_down><div class = ANT_text>*</div></div><div class = ANT_up><div class = ANT_text>*</div><div></div>","none","100","test","","","","","","","","",""
"-1","-1","poldrack-single-stim","138","209671","0.0-103.0","sub-07_ses-01_1","","400","0","fixation","<div class = centerbox><div class = ANT_text>+</div></div>","none","400","test","","","","","","","","",""
"691","89","poldrack-single-stim","139","211782","0.0-104.0","sub-07_ses-01_1","","2100.272","0","stim","<div class = centerbox><div class = ANT_text>+</div></div><div class = ANT_down><img class = ""ANT_img first"" src = /static/experiments/attention_network_task/images/left_arrow.png></img><img class = ANT_img src = /static/experiments/attention_network_task/images/left_arrow.png></img><img class = ANT_img src = /static/experiments/attention_network_task/images/left_arrow.png></img><img class = ANT_img src = /static/experiments/attention_network_task/images/left_arrow.png></img><img class = ANT_img src = /static/experiments/attention_network_task/images/left_arrow.png></img></div></div>","89,71","1700","test","true","89","","left","congruent","down","double","31",""
"-1","-1","poldrack-single-stim","140","211901","0.0-105.0","sub-07_ses-01_1","","100","0","spatialcue","<div class = centerbox><div class = ANT_text>+</div></div><div class = centerbox><div class = ANT_up><div class = ANT_text>*</p></div></div>","none","100","test","","","","","","","","",""
"-1","-1","poldrack-single-stim","141","212312","0.0-106.0","sub-07_ses-01_1","","400","0","fixation","<div class = centerbox><div class = ANT_text>+</div></div>","none","400","test","","","","","","","","",""
"968","71","poldrack-single-stim","142","214433","0.0-107.0","sub-07_ses-01_1","","2100","0","stim","<div class = centerbox><div class = ANT_text>+</div></div><div class = ANT_up><img class = ""ANT_img first"" src = /static/experiments/attention_network_task/images/left_arrow.png></img><img class = ANT_img src = /static/experiments/attention_network_task/images/left_arrow.png></img><img class = ANT_img src = /static/experiments/attention_network_task/images/right_arrow.png></img><img class = ANT_img src = /static/experiments/attention_network_task/images/left_arrow.png></img><img class = ANT_img src = /static/experiments/attention_network_task/images/left_arrow.png></img></div></div>","89,71","1700","test","true","71","","right","incongruent","up","spatial","32",""
"-1","-1","poldrack-single-stim","143","214552","0.0-108.0","sub-07_ses-01_1","","100","0","spatialcue","<div class = centerbox><div class = ANT_text>+</div></div><div class = centerbox><div class = ANT_down><div class = ANT_text>*</p></div></div>","none","100","test","","","","","","","","",""
"-1","-1","poldrack-single-stim","144","214972","0.0-109.0","sub-07_ses-01_1","","400","0","fixation","<div class = centerbox><div class = ANT_text>+</div></div>","none","400","test","","","","","","","","",""
"851","89","poldrack-single-stim","145","217092","0.0-110.0","sub-07_ses-01_1","","2100","0","stim","<div class = centerbox><div class = ANT_text>+</div></div><div class = ANT_down><img class = ""ANT_img first"" src = /static/experiments/attention_network_task/images/right_arrow.png></img><img class = ANT_img src = /static/experiments/attention_network_task/images/right_arrow.png></img><img class = ANT_img src = /static/experiments/attention_network_task/images/left_arrow.png></img><img class = ANT_img src = /static/experiments/attention_network_task/images/right_arrow.png></img><img class = ANT_img src = /static/experiments/attention_network_task/images/right_arrow.png></img></div></div>","89,71","1700","test","true","89","","left","incongruent","down","spatial","33",""
"-1","-1","poldrack-single-stim","146","217211","0.0-111.0","sub-07_ses-01_1","","100","0","spatialcue","<div class = centerbox><div class = ANT_text>+</div></div><div class = centerbox><div class = ANT_up><div class = ANT_text>*</p></div></div>","none","100","test","","","","","","","","",""
"-1","-1","poldrack-single-stim","147","217632","0.0-112.0","sub-07_ses-01_1","","400","0","fixation","<div class = centerbox><div class = ANT_text>+</div></div>","none","400","test","","","","","","","","",""
"665","71","poldrack-single-stim","148","219751","0.0-113.0","sub-07_ses-01_1","","2100.136","0","stim","<div class = centerbox><div class = ANT_text>+</div></div><div class = ANT_up><img class = ""ANT_img first"" src = /static/experiments/attention_network_task/images/right_arrow.png></img><img class = ANT_img src = /static/experiments/attention_network_task/images/right_arrow.png></img><img class = ANT_img src = /static/experiments/attention_network_task/images/right_arrow.png></img><img class = ANT_img src = /static/experiments/attention_network_task/images/right_arrow.png></img><img class = ANT_img src = /static/experiments/attention_network_task/images/right_arrow.png></img></div></div>","89,71","1700","test","true","71","","right","congruent","up","spatial","34",""
"-1","-1","poldrack-single-stim","149","219871","0.0-114.0","sub-07_ses-01_1","","100","0","spatialcue","<div class = centerbox><div class = ANT_text>+</div></div><div class = centerbox><div class = ANT_up><div class = ANT_text>*</p></div></div>","none","100","test","","","","","","","","",""
"-1","-1","poldrack-single-stim","150","220292","0.0-115.0","sub-07_ses-01_1","","400","0","fixation","<div class = centerbox><div class = ANT_text>+</div></div>","none","400","test","","","","","","","","",""
"881","89","poldrack-single-stim","151","222411","0.0-116.0","sub-07_ses-01_1","","2100.272","0","stim","<div class = centerbox><div class = ANT_text>+</div></div><div class = ANT_up><img class = ""ANT_img first"" src = /static/experiments/attention_network_task/images/left_arrow.png></img><img class = ANT_img src = /static/experiments/attention_network_task/images/left_arrow.png></img><img class = ANT_img src = /static/experiments/attention_network_task/images/left_arrow.png></img><img class = ANT_img src = /static/experiments/attention_network_task/images/left_arrow.png></img><img class = ANT_img src = /static/experiments/attention_network_task/images/left_arrow.png></img></div></div>","89,71","1700","test","true","89","","left","congruent","up","spatial","35",""
"-1","-1","poldrack-single-stim","152","222532","0.0-117.0","sub-07_ses-01_1","","100","0","doublecue","<div class = centerbox><div class = ANT_text>+</div></div><div class = ANT_down><div class = ANT_text>*</div></div><div class = ANT_up><div class = ANT_text>*</div><div></div>","none","100","test","","","","","","","","",""
"-1","-1","poldrack-single-stim","153","222953","0.0-118.0","sub-07_ses-01_1","","400","0","fixation","<div class = centerbox><div class = ANT_text>+</div></div>","none","400","test","","","","","","","","",""
"707","89","poldrack-single-stim","154","225070","0.0-119.0","sub-07_ses-01_1","","2100.408","0","stim","<div class = centerbox><div class = ANT_text>+</div></div><div class = ANT_down><img class = ""ANT_img first"" src = /static/experiments/attention_network_task/images/right_arrow.png></img><img class = ANT_img src = /static/experiments/attention_network_task/images/right_arrow.png></img><img class = ANT_img src = /static/experiments/attention_network_task/images/left_arrow.png></img><img class = ANT_img src = /static/experiments/attention_network_task/images/right_arrow.png></img><img class = ANT_img src = /static/experiments/attention_network_task/images/right_arrow.png></img></div></div>","89,71","1700","test","true","89","","left","incongruent","down","double","36",""
"-1","-1","poldrack-single-stim","155","225181","0.0-120.0","sub-07_ses-01_1","","100","0","doublecue","<div class = centerbox><div class = ANT_text>+</div></div><div class = ANT_down><div class = ANT_text>*</div></div><div class = ANT_up><div class = ANT_text>*</div><div></div>","none","100","test","","","","","","","","",""
"-1","-1","poldrack-single-stim","156","225602","0.0-121.0","sub-07_ses-01_1","","400","0","fixation","<div class = centerbox><div class = ANT_text>+</div></div>","none","400","test","","","","","","","","",""
"858","89","poldrack-single-stim","157","227711","0.0-122.0","sub-07_ses-01_1","","2100","0","stim","<div class = centerbox><div class = ANT_text>+</div></div><div class = ANT_up><img class = ""ANT_img first"" src = /static/experiments/attention_network_task/images/left_arrow.png></img><img class = ANT_img src = /static/experiments/attention_network_task/images/left_arrow.png></img><img class = ANT_img src = /static/experiments/attention_network_task/images/left_arrow.png></img><img class = ANT_img src = /static/experiments/attention_network_task/images/left_arrow.png></img><img class = ANT_img src = /static/experiments/attention_network_task/images/left_arrow.png></img></div></div>","89,71","1700","test","true","89","","left","congruent","up","double","37",""
"-1","-1","poldrack-single-stim","158","227832","0.0-123.0","sub-07_ses-01_1","","100","0","doublecue","<div class = centerbox><div class = ANT_text>+</div></div><div class = ANT_down><div class = ANT_text>*</div></div><div class = ANT_up><div class = ANT_text>*</div><div></div>","none","100","test","","","","","","","","",""
"-1","-1","poldrack-single-stim","159","228242","0.0-124.0","sub-07_ses-01_1","","400","0","fixation","<div class = centerbox><div class = ANT_text>+</div></div>","none","400","test","","","","","","","","",""
"902","71","poldrack-single-stim","160","230352","0.0-125.0","sub-07_ses-01_1","","2100.136","0","stim","<div class = centerbox><div class = ANT_text>+</div></div><div class = ANT_down><img class = ""ANT_img first"" src = /static/experiments/attention_network_task/images/right_arrow.png></img><img class = ANT_img src = /static/experiments/attention_network_task/images/right_arrow.png></img><img class = ANT_img src = /static/experiments/attention_network_task/images/right_arrow.png></img><img class = ANT_img src = /static/experiments/attention_network_task/images/right_arrow.png></img><img class = ANT_img src = /static/experiments/attention_network_task/images/right_arrow.png></img></div></div>","89,71","1700","test","true","71","","right","congruent","down","double","38",""
"-1","-1","poldrack-single-stim","161","230472","0.0-126.0","sub-07_ses-01_1","","100","0","spatialcue","<div class = centerbox><div class = ANT_text>+</div></div><div class = centerbox><div class = ANT_down><div class = ANT_text>*</p></div></div>","none","100","test","","","","","","","","",""
"-1","-1","poldrack-single-stim","162","230888","0.0-127.0","sub-07_ses-01_1","","400","0","fixation","<div class = centerbox><div class = ANT_text>+</div></div>","none","400","test","","","","","","","","",""
"748","89","poldrack-single-stim","163","232991","0.0-128.0","sub-07_ses-01_1","","2100.136","0","stim","<div class = centerbox><div class = ANT_text>+</div></div><div class = ANT_down><img class = ""ANT_img first"" src = /static/experiments/attention_network_task/images/left_arrow.png></img><img class = ANT_img src = /static/experiments/attention_network_task/images/left_arrow.png></img><img class = ANT_img src = /static/experiments/attention_network_task/images/left_arrow.png></img><img class = ANT_img src = /static/experiments/attention_network_task/images/left_arrow.png></img><img class = ANT_img src = /static/experiments/attention_network_task/images/left_arrow.png></img></div></div>","89,71","1700","test","true","89","","left","congruent","down","spatial","39",""
"-1","-1","poldrack-single-stim","164","233112","0.0-129.0","sub-07_ses-01_1","","100","0","doublecue","<div class = centerbox><div class = ANT_text>+</div></div><div class = ANT_down><div class = ANT_text>*</div></div><div class = ANT_up><div class = ANT_text>*</div><div></div>","none","100","test","","","","","","","","",""
"-1","-1","poldrack-single-stim","165","233532","0.0-130.0","sub-07_ses-01_1","","400","0","fixation","<div class = centerbox><div class = ANT_text>+</div></div>","none","400","test","","","","","","","","",""
"1096","71","poldrack-single-stim","166","235643","0.0-131.0","sub-07_ses-01_1","","2100","0","stim","<div class = centerbox><div class = ANT_text>+</div></div><div class = ANT_down><img class = ""ANT_img first"" src = /static/experiments/attention_network_task/images/right_arrow.png></img><img class = ANT_img src = /static/experiments/attention_network_task/images/right_arrow.png></img><img class = ANT_img src = /static/experiments/attention_network_task/images/right_arrow.png></img><img class = ANT_img src = /static/experiments/attention_network_task/images/right_arrow.png></img><img class = ANT_img src = /static/experiments/attention_network_task/images/right_arrow.png></img></div></div>","89,71","1700","test","true","71","","right","congruent","down","double","40",""
"-1","-1","poldrack-single-stim","167","235763","0.0-132.0","sub-07_ses-01_1","","100","0","doublecue","<div class = centerbox><div class = ANT_text>+</div></div><div class = ANT_down><div class = ANT_text>*</div></div><div class = ANT_up><div class = ANT_text>*</div><div></div>","none","100","test","","","","","","","","",""
"-1","-1","poldrack-single-stim","168","236183","0.0-133.0","sub-07_ses-01_1","","400","0","fixation","<div class = centerbox><div class = ANT_text>+</div></div>","none","400","test","","","","","","","","",""
"1101","71","poldrack-single-stim","169","238302","0.0-134.0","sub-07_ses-01_1","","2100.408","0","stim","<div class = centerbox><div class = ANT_text>+</div></div><div class = ANT_up><img class = ""ANT_img first"" src = /static/experiments/attention_network_task/images/left_arrow.png></img><img class = ANT_img src = /static/experiments/attention_network_task/images/left_arrow.png></img><img class = ANT_img src = /static/experiments/attention_network_task/images/right_arrow.png></img><img class = ANT_img src = /static/experiments/attention_network_task/images/left_arrow.png></img><img class = ANT_img src = /static/experiments/attention_network_task/images/left_arrow.png></img></div></div>","89,71","1700","test","true","71","","right","incongruent","up","double","41",""
"-1","-1","poldrack-single-stim","170","238421","0.0-135.0","sub-07_ses-01_1","","100","0","spatialcue","<div class = centerbox><div class = ANT_text>+</div></div><div class = centerbox><div class = ANT_down><div class = ANT_text>*</p></div></div>","none","100","test","","","","","","","","",""
"-1","-1","poldrack-single-stim","171","238843","0.0-136.0","sub-07_ses-01_1","","400","0","fixation","<div class = centerbox><div class = ANT_text>+</div></div>","none","400","test","","","","","","","","",""
"752","89","poldrack-single-stim","172","240952","0.0-137.0","sub-07_ses-01_1","","2100.544","0","stim","<div class = centerbox><div class = ANT_text>+</div></div><div class = ANT_down><img class = ""ANT_img first"" src = /static/experiments/attention_network_task/images/left_arrow.png></img><img class = ANT_img src = /static/experiments/attention_network_task/images/left_arrow.png></img><img class = ANT_img src = /static/experiments/attention_network_task/images/left_arrow.png></img><img class = ANT_img src = /static/experiments/attention_network_task/images/left_arrow.png></img><img class = ANT_img src = /static/experiments/attention_network_task/images/left_arrow.png></img></div></div>","89,71","1700","test","true","89","","left","congruent","down","spatial","42",""
"-1","-1","poldrack-single-stim","173","241072","0.0-138.0","sub-07_ses-01_1","","100","0","spatialcue","<div class = centerbox><div class = ANT_text>+</div></div><div class = centerbox><div class = ANT_up><div class = ANT_text>*</p></div></div>","none","100","test","","","","","","","","",""
"-1","-1","poldrack-single-stim","174","241492","0.0-139.0","sub-07_ses-01_1","","400","0","fixation","<div class = centerbox><div class = ANT_text>+</div></div>","none","400","test","","","","","","","","",""
"833","71","poldrack-single-stim","175","243602","0.0-140.0","sub-07_ses-01_1","","2100.136","0","stim","<div class = centerbox><div class = ANT_text>+</div></div><div class = ANT_up><img class = ""ANT_img first"" src = /static/experiments/attention_network_task/images/right_arrow.png></img><img class = ANT_img src = /static/experiments/attention_network_task/images/right_arrow.png></img><img class = ANT_img src = /static/experiments/attention_network_task/images/right_arrow.png></img><img class = ANT_img src = /static/experiments/attention_network_task/images/right_arrow.png></img><img class = ANT_img src = /static/experiments/attention_network_task/images/right_arrow.png></img></div></div>","89,71","1700","test","true","71","","right","congruent","up","spatial","43",""
"-1","-1","poldrack-single-stim","176","243722","0.0-141.0","sub-07_ses-01_1","","100","0","spatialcue","<div class = centerbox><div class = ANT_text>+</div></div><div class = centerbox><div class = ANT_down><div class = ANT_text>*</p></div></div>","none","100","test","","","","","","","","",""
"-1","-1","poldrack-single-stim","177","244141","0.0-142.0","sub-07_ses-01_1","","400","0","fixation","<div class = centerbox><div class = ANT_text>+</div></div>","none","400","test","","","","","","","","",""
"909","71","poldrack-single-stim","178","246251","0.0-143.0","sub-07_ses-01_1","","2100.136","0","stim","<div class = centerbox><div class = ANT_text>+</div></div><div class = ANT_down><img class = ""ANT_img first"" src = /static/experiments/attention_network_task/images/right_arrow.png></img><img class = ANT_img src = /static/experiments/attention_network_task/images/right_arrow.png></img><img class = ANT_img src = /static/experiments/attention_network_task/images/right_arrow.png></img><img class = ANT_img src = /static/experiments/attention_network_task/images/right_arrow.png></img><img class = ANT_img src = /static/experiments/attention_network_task/images/right_arrow.png></img></div></div>","89,71","1700","test","true","71","","right","congruent","down","spatial","44",""
"-1","-1","poldrack-single-stim","179","246372","0.0-144.0","sub-07_ses-01_1","","100","0","spatialcue","<div class = centerbox><div class = ANT_text>+</div></div><div class = centerbox><div class = ANT_up><div class = ANT_text>*</p></div></div>","none","100","test","","","","","","","","",""
"-1","-1","poldrack-single-stim","180","246792","0.0-145.0","sub-07_ses-01_1","","400","0","fixation","<div class = centerbox><div class = ANT_text>+</div></div>","none","400","test","","","","","","","","",""
"847","89","poldrack-single-stim","181","248902","0.0-146.0","sub-07_ses-01_1","","2100","0","stim","<div class = centerbox><div class = ANT_text>+</div></div><div class = ANT_up><img class = ""ANT_img first"" src = /static/experiments/attention_network_task/images/right_arrow.png></img><img class = ANT_img src = /static/experiments/attention_network_task/images/right_arrow.png></img><img class = ANT_img src = /static/experiments/attention_network_task/images/left_arrow.png></img><img class = ANT_img src = /static/experiments/attention_network_task/images/right_arrow.png></img><img class = ANT_img src = /static/experiments/attention_network_task/images/right_arrow.png></img></div></div>","89,71","1700","test","true","89","","left","incongruent","up","spatial","45",""
"-1","-1","poldrack-single-stim","182","249021","0.0-147.0","sub-07_ses-01_1","","100","0","doublecue","<div class = centerbox><div class = ANT_text>+</div></div><div class = ANT_down><div class = ANT_text>*</div></div><div class = ANT_up><div class = ANT_text>*</div><div></div>","none","100","test","","","","","","","","",""
"-1","-1","poldrack-single-stim","183","249442","0.0-148.0","sub-07_ses-01_1","","400","0","fixation","<div class = centerbox><div class = ANT_text>+</div></div>","none","400","test","","","","","","","","",""
"694","89","poldrack-single-stim","184","251551","0.0-149.0","sub-07_ses-01_1","","2100","0","stim","<div class = centerbox><div class = ANT_text>+</div></div><div class = ANT_down><img class = ""ANT_img first"" src = /static/experiments/attention_network_task/images/left_arrow.png></img><img class = ANT_img src = /static/experiments/attention_network_task/images/left_arrow.png></img><img class = ANT_img src = /static/experiments/attention_network_task/images/left_arrow.png></img><img class = ANT_img src = /static/experiments/attention_network_task/images/left_arrow.png></img><img class = ANT_img src = /static/experiments/attention_network_task/images/left_arrow.png></img></div></div>","89,71","1700","test","true","89","","left","congruent","down","double","46",""
"-1","-1","poldrack-single-stim","185","251673","0.0-150.0","sub-07_ses-01_1","","100","0","doublecue","<div class = centerbox><div class = ANT_text>+</div></div><div class = ANT_down><div class = ANT_text>*</div></div><div class = ANT_up><div class = ANT_text>*</div><div></div>","none","100","test","","","","","","","","",""
"-1","-1","poldrack-single-stim","186","252093","0.0-151.0","sub-07_ses-01_1","","400","0","fixation","<div class = centerbox><div class = ANT_text>+</div></div>","none","400","test","","","","","","","","",""
"710","89","poldrack-single-stim","187","254202","0.0-152.0","sub-07_ses-01_1","","2100.136","0","stim","<div class = centerbox><div class = ANT_text>+</div></div><div class = ANT_down><img class = ""ANT_img first"" src = /static/experiments/attention_network_task/images/left_arrow.png></img><img class = ANT_img src = /static/experiments/attention_network_task/images/left_arrow.png></img><img class = ANT_img src = /static/experiments/attention_network_task/images/left_arrow.png></img><img class = ANT_img src = /static/experiments/attention_network_task/images/left_arrow.png></img><img class = ANT_img src = /static/experiments/attention_network_task/images/left_arrow.png></img></div></div>","89,71","1700","test","true","89","","left","congruent","down","double","47",""
"-1","-1","poldrack-single-stim","188","254321","0.0-153.0","sub-07_ses-01_1","","100","0","doublecue","<div class = centerbox><div class = ANT_text>+</div></div><div class = ANT_down><div class = ANT_text>*</div></div><div class = ANT_up><div class = ANT_text>*</div><div></div>","none","100","test","","","","","","","","",""
"-1","-1","poldrack-single-stim","189","254732","0.0-154.0","sub-07_ses-01_1","","400","0","fixation","<div class = centerbox><div class = ANT_text>+</div></div>","none","400","test","","","","","","","","",""
"660","71","poldrack-single-stim","190","256852","0.0-155.0","sub-07_ses-01_1","","2100","0","stim","<div class = centerbox><div class = ANT_text>+</div></div><div class = ANT_up><img class = ""ANT_img first"" src = /static/experiments/attention_network_task/images/right_arrow.png></img><img class = ANT_img src = /static/experiments/attention_network_task/images/right_arrow.png></img><img class = ANT_img src = /static/experiments/attention_network_task/images/right_arrow.png></img><img class = ANT_img src = /static/experiments/attention_network_task/images/right_arrow.png></img><img class = ANT_img src = /static/experiments/attention_network_task/images/right_arrow.png></img></div></div>","89,71","1700","test","true","71","","right","congruent","up","double","48",""
"-1","-1","poldrack-single-stim","191","256972","0.0-156.0","sub-07_ses-01_1","","100","0","doublecue","<div class = centerbox><div class = ANT_text>+</div></div><div class = ANT_down><div class = ANT_text>*</div></div><div class = ANT_up><div class = ANT_text>*</div><div></div>","none","100","test","","","","","","","","",""
"-1","-1","poldrack-single-stim","192","257392","0.0-157.0","sub-07_ses-01_1","","400","0","fixation","<div class = centerbox><div class = ANT_text>+</div></div>","none","400","test","","","","","","","","",""
"641","89","poldrack-single-stim","193","259511","0.0-158.0","sub-07_ses-01_1","","2100.136","0","stim","<div class = centerbox><div class = ANT_text>+</div></div><div class = ANT_down><img class = ""ANT_img first"" src = /static/experiments/attention_network_task/images/left_arrow.png></img><img class = ANT_img src = /static/experiments/attention_network_task/images/left_arrow.png></img><img class = ANT_img src = /static/experiments/attention_network_task/images/left_arrow.png></img><img class = ANT_img src = /static/experiments/attention_network_task/images/left_arrow.png></img><img class = ANT_img src = /static/experiments/attention_network_task/images/left_arrow.png></img></div></div>","89,71","1700","test","true","89","","left","congruent","down","double","49",""
"-1","-1","poldrack-single-stim","194","259633","0.0-159.0","sub-07_ses-01_1","","100","0","doublecue","<div class = centerbox><div class = ANT_text>+</div></div><div class = ANT_down><div class = ANT_text>*</div></div><div class = ANT_up><div class = ANT_text>*</div><div></div>","none","100","test","","","","","","","","",""
"-1","-1","poldrack-single-stim","195","260052","0.0-160.0","sub-07_ses-01_1","","400","0","fixation","<div class = centerbox><div class = ANT_text>+</div></div>","none","400","test","","","","","","","","",""
"644","71","poldrack-single-stim","196","262171","0.0-161.0","sub-07_ses-01_1","","2100","0","stim","<div class = centerbox><div class = ANT_text>+</div></div><div class = ANT_up><img class = ""ANT_img first"" src = /static/experiments/attention_network_task/images/right_arrow.png></img><img class = ANT_img src = /static/experiments/attention_network_task/images/right_arrow.png></img><img class = ANT_img src = /static/experiments/attention_network_task/images/right_arrow.png></img><img class = ANT_img src = /static/experiments/attention_network_task/images/right_arrow.png></img><img class = ANT_img src = /static/experiments/attention_network_task/images/right_arrow.png></img></div></div>","89,71","1700","test","true","71","","right","congruent","up","double","50",""
"-1","-1","poldrack-single-stim","197","262291","0.0-162.0","sub-07_ses-01_1","","100","0","spatialcue","<div class = centerbox><div class = ANT_text>+</div></div><div class = centerbox><div class = ANT_down><div class = ANT_text>*</p></div></div>","none","100","test","","","","","","","","",""
"-1","-1","poldrack-single-stim","198","262712","0.0-163.0","sub-07_ses-01_1","","400","0","fixation","<div class = centerbox><div class = ANT_text>+</div></div>","none","400","test","","","","","","","","",""
"608","89","poldrack-single-stim","199","264822","0.0-164.0","sub-07_ses-01_1","","2100.408","0","stim","<div class = centerbox><div class = ANT_text>+</div></div><div class = ANT_down><img class = ""ANT_img first"" src = /static/experiments/attention_network_task/images/left_arrow.png></img><img class = ANT_img src = /static/experiments/attention_network_task/images/left_arrow.png></img><img class = ANT_img src = /static/experiments/attention_network_task/images/left_arrow.png></img><img class = ANT_img src = /static/experiments/attention_network_task/images/left_arrow.png></img><img class = ANT_img src = /static/experiments/attention_network_task/images/left_arrow.png></img></div></div>","89,71","1700","test","true","89","","left","congruent","down","spatial","51",""
"-1","-1","poldrack-single-stim","200","264942","0.0-165.0","sub-07_ses-01_1","","100","0","spatialcue","<div class = centerbox><div class = ANT_text>+</div></div><div class = centerbox><div class = ANT_down><div class = ANT_text>*</p></div></div>","none","100","test","","","","","","","","",""
"-1","-1","poldrack-single-stim","201","265363","0.0-166.0","sub-07_ses-01_1","","400","0","fixation","<div class = centerbox><div class = ANT_text>+</div></div>","none","400","test","","","","","","","","",""
"752","89","poldrack-single-stim","202","267482","0.0-167.0","sub-07_ses-01_1","","2100","0","stim","<div class = centerbox><div class = ANT_text>+</div></div><div class = ANT_down><img class = ""ANT_img first"" src = /static/experiments/attention_network_task/images/right_arrow.png></img><img class = ANT_img src = /static/experiments/attention_network_task/images/right_arrow.png></img><img class = ANT_img src = /static/experiments/attention_network_task/images/left_arrow.png></img><img class = ANT_img src = /static/experiments/attention_network_task/images/right_arrow.png></img><img class = ANT_img src = /static/experiments/attention_network_task/images/right_arrow.png></img></div></div>","89,71","1700","test","true","89","","left","incongruent","down","spatial","52",""
"-1","-1","poldrack-single-stim","203","267602","0.0-168.0","sub-07_ses-01_1","","100","0","doublecue","<div class = centerbox><div class = ANT_text>+</div></div><div class = ANT_down><div class = ANT_text>*</div></div><div class = ANT_up><div class = ANT_text>*</div><div></div>","none","100","test","","","","","","","","",""
"-1","-1","poldrack-single-stim","204","268023","0.0-169.0","sub-07_ses-01_1","","400","0","fixation","<div class = centerbox><div class = ANT_text>+</div></div>","none","400","test","","","","","","","","",""
"1012","71","poldrack-single-stim","205","270142","0.0-170.0","sub-07_ses-01_1","","2100.816","0","stim","<div class = centerbox><div class = ANT_text>+</div></div><div class = ANT_down><img class = ""ANT_img first"" src = /static/experiments/attention_network_task/images/left_arrow.png></img><img class = ANT_img src = /static/experiments/attention_network_task/images/left_arrow.png></img><img class = ANT_img src = /static/experiments/attention_network_task/images/right_arrow.png></img><img class = ANT_img src = /static/experiments/attention_network_task/images/left_arrow.png></img><img class = ANT_img src = /static/experiments/attention_network_task/images/left_arrow.png></img></div></div>","89,71","1700","test","true","71","","right","incongruent","down","double","53",""
"-1","-1","poldrack-single-stim","206","270261","0.0-171.0","sub-07_ses-01_1","","100","0","spatialcue","<div class = centerbox><div class = ANT_text>+</div></div><div class = centerbox><div class = ANT_up><div class = ANT_text>*</p></div></div>","none","100","test","","","","","","","","",""
"-1","-1","poldrack-single-stim","207","270671","0.0-172.0","sub-07_ses-01_1","","400","0","fixation","<div class = centerbox><div class = ANT_text>+</div></div>","none","400","test","","","","","","","","",""
"963","89","poldrack-single-stim","208","272782","0.0-173.0","sub-07_ses-01_1","","2100.68","0","stim","<div class = centerbox><div class = ANT_text>+</div></div><div class = ANT_up><img class = ""ANT_img first"" src = /static/experiments/attention_network_task/images/left_arrow.png></img><img class = ANT_img src = /static/experiments/attention_network_task/images/left_arrow.png></img><img class = ANT_img src = /static/experiments/attention_network_task/images/left_arrow.png></img><img class = ANT_img src = /static/experiments/attention_network_task/images/left_arrow.png></img><img class = ANT_img src = /static/experiments/attention_network_task/images/left_arrow.png></img></div></div>","89,71","1700","test","true","89","","left","congruent","up","spatial","54",""
"-1","-1","poldrack-single-stim","209","272902","0.0-174.0","sub-07_ses-01_1","","100","0","spatialcue","<div class = centerbox><div class = ANT_text>+</div></div><div class = centerbox><div class = ANT_down><div class = ANT_text>*</p></div></div>","none","100","test","","","","","","","","",""
"-1","-1","poldrack-single-stim","210","273322","0.0-175.0","sub-07_ses-01_1","","400","0","fixation","<div class = centerbox><div class = ANT_text>+</div></div>","none","400","test","","","","","","","","",""
"693","71","poldrack-single-stim","211","275432","0.0-176.0","sub-07_ses-01_1","","2100","0","stim","<div class = centerbox><div class = ANT_text>+</div></div><div class = ANT_down><img class = ""ANT_img first"" src = /static/experiments/attention_network_task/images/right_arrow.png></img><img class = ANT_img src = /static/experiments/attention_network_task/images/right_arrow.png></img><img class = ANT_img src = /static/experiments/attention_network_task/images/right_arrow.png></img><img class = ANT_img src = /static/experiments/attention_network_task/images/right_arrow.png></img><img class = ANT_img src = /static/experiments/attention_network_task/images/right_arrow.png></img></div></div>","89,71","1700","test","true","71","","right","congruent","down","spatial","55",""
"-1","-1","poldrack-single-stim","212","275551","0.0-177.0","sub-07_ses-01_1","","100","0","spatialcue","<div class = centerbox><div class = ANT_text>+</div></div><div class = centerbox><div class = ANT_down><div class = ANT_text>*</p></div></div>","none","100","test","","","","","","","","",""
"-1","-1","poldrack-single-stim","213","275972","0.0-178.0","sub-07_ses-01_1","","400","0","fixation","<div class = centerbox><div class = ANT_text>+</div></div>","none","400","test","","","","","","","","",""
"615","71","poldrack-single-stim","214","278092","0.0-179.0","sub-07_ses-01_1","","2100.136","0","stim","<div class = centerbox><div class = ANT_text>+</div></div><div class = ANT_down><img class = ""ANT_img first"" src = /static/experiments/attention_network_task/images/right_arrow.png></img><img class = ANT_img src = /static/experiments/attention_network_task/images/right_arrow.png></img><img class = ANT_img src = /static/experiments/attention_network_task/images/right_arrow.png></img><img class = ANT_img src = /static/experiments/attention_network_task/images/right_arrow.png></img><img class = ANT_img src = /static/experiments/attention_network_task/images/right_arrow.png></img></div></div>","89,71","1700","test","true","71","","right","congruent","down","spatial","56",""
"-1","-1","poldrack-single-stim","215","278212","0.0-180.0","sub-07_ses-01_1","","100","0","doublecue","<div class = centerbox><div class = ANT_text>+</div></div><div class = ANT_down><div class = ANT_text>*</div></div><div class = ANT_up><div class = ANT_text>*</div><div></div>","none","100","test","","","","","","","","",""
"-1","-1","poldrack-single-stim","216","278631","0.0-181.0","sub-07_ses-01_1","","400","0","fixation","<div class = centerbox><div class = ANT_text>+</div></div>","none","400","test","","","","","","","","",""
"867","89","poldrack-single-stim","217","280741","0.0-182.0","sub-07_ses-01_1","","2100.136","0","stim","<div class = centerbox><div class = ANT_text>+</div></div><div class = ANT_up><img class = ""ANT_img first"" src = /static/experiments/attention_network_task/images/right_arrow.png></img><img class = ANT_img src = /static/experiments/attention_network_task/images/right_arrow.png></img><img class = ANT_img src = /static/experiments/attention_network_task/images/left_arrow.png></img><img class = ANT_img src = /static/experiments/attention_network_task/images/right_arrow.png></img><img class = ANT_img src = /static/experiments/attention_network_task/images/right_arrow.png></img></div></div>","89,71","1700","test","true","89","","left","incongruent","up","double","57",""
"-1","-1","poldrack-single-stim","218","280861","0.0-183.0","sub-07_ses-01_1","","100","0","doublecue","<div class = centerbox><div class = ANT_text>+</div></div><div class = ANT_down><div class = ANT_text>*</div></div><div class = ANT_up><div class = ANT_text>*</div><div></div>","none","100","test","","","","","","","","",""
"-1","-1","poldrack-single-stim","219","281282","0.0-184.0","sub-07_ses-01_1","","400","0","fixation","<div class = centerbox><div class = ANT_text>+</div></div>","none","400","test","","","","","","","","",""
"915","71","poldrack-single-stim","220","283402","0.0-185.0","sub-07_ses-01_1","","2100.136","0","stim","<div class = centerbox><div class = ANT_text>+</div></div><div class = ANT_up><img class = ""ANT_img first"" src = /static/experiments/attention_network_task/images/left_arrow.png></img><img class = ANT_img src = /static/experiments/attention_network_task/images/left_arrow.png></img><img class = ANT_img src = /static/experiments/attention_network_task/images/right_arrow.png></img><img class = ANT_img src = /static/experiments/attention_network_task/images/left_arrow.png></img><img class = ANT_img src = /static/experiments/attention_network_task/images/left_arrow.png></img></div></div>","89,71","1700","test","true","71","","right","incongruent","up","double","58",""
"-1","-1","poldrack-single-stim","221","283521","0.0-186.0","sub-07_ses-01_1","","100","0","doublecue","<div class = centerbox><div class = ANT_text>+</div></div><div class = ANT_down><div class = ANT_text>*</div></div><div class = ANT_up><div class = ANT_text>*</div><div></div>","none","100","test","","","","","","","","",""
"-1","-1","poldrack-single-stim","222","283941","0.0-187.0","sub-07_ses-01_1","","400","0","fixation","<div class = centerbox><div class = ANT_text>+</div></div>","none","400","test","","","","","","","","",""
"839","89","poldrack-single-stim","223","286061","0.0-188.0","sub-07_ses-01_1","","2100","0","stim","<div class = centerbox><div class = ANT_text>+</div></div><div class = ANT_up><img class = ""ANT_img first"" src = /static/experiments/attention_network_task/images/right_arrow.png></img><img class = ANT_img src = /static/experiments/attention_network_task/images/right_arrow.png></img><img class = ANT_img src = /static/experiments/attention_network_task/images/left_arrow.png></img><img class = ANT_img src = /static/experiments/attention_network_task/images/right_arrow.png></img><img class = ANT_img src = /static/experiments/attention_network_task/images/right_arrow.png></img></div></div>","89,71","1700","test","true","89","","left","incongruent","up","double","59",""
"-1","-1","poldrack-single-stim","224","286181","0.0-189.0","sub-07_ses-01_1","","100","0","spatialcue","<div class = centerbox><div class = ANT_text>+</div></div><div class = centerbox><div class = ANT_up><div class = ANT_text>*</p></div></div>","none","100","test","","","","","","","","",""
"-1","-1","poldrack-single-stim","225","286602","0.0-190.0","sub-07_ses-01_1","","400","0","fixation","<div class = centerbox><div class = ANT_text>+</div></div>","none","400","test","","","","","","","","",""
"714","89","poldrack-single-stim","226","288721","0.0-191.0","sub-07_ses-01_1","","2100.136","0","stim","<div class = centerbox><div class = ANT_text>+</div></div><div class = ANT_up><img class = ""ANT_img first"" src = /static/experiments/attention_network_task/images/right_arrow.png></img><img class = ANT_img src = /static/experiments/attention_network_task/images/right_arrow.png></img><img class = ANT_img src = /static/experiments/attention_network_task/images/left_arrow.png></img><img class = ANT_img src = /static/experiments/attention_network_task/images/right_arrow.png></img><img class = ANT_img src = /static/experiments/attention_network_task/images/right_arrow.png></img></div></div>","89,71","1700","test","true","89","","left","incongruent","up","spatial","60",""
"-1","-1","poldrack-single-stim","227","288842","0.0-192.0","sub-07_ses-01_1","","100","0","spatialcue","<div class = centerbox><div class = ANT_text>+</div></div><div class = centerbox><div class = ANT_up><div class = ANT_text>*</p></div></div>","none","100","test","","","","","","","","",""
"-1","-1","poldrack-single-stim","228","289263","0.0-193.0","sub-07_ses-01_1","","400","0","fixation","<div class = centerbox><div class = ANT_text>+</div></div>","none","400","test","","","","","","","","",""
"642","89","poldrack-single-stim","229","291381","0.0-194.0","sub-07_ses-01_1","","2100.952","0","stim","<div class = centerbox><div class = ANT_text>+</div></div><div class = ANT_up><img class = ""ANT_img first"" src = /static/experiments/attention_network_task/images/right_arrow.png></img><img class = ANT_img src = /static/experiments/attention_network_task/images/right_arrow.png></img><img class = ANT_img src = /static/experiments/attention_network_task/images/left_arrow.png></img><img class = ANT_img src = /static/experiments/attention_network_task/images/right_arrow.png></img><img class = ANT_img src = /static/experiments/attention_network_task/images/right_arrow.png></img></div></div>","89,71","1700","test","true","89","","left","incongruent","up","spatial","61",""
"-1","-1","poldrack-single-stim","230","291503","0.0-195.0","sub-07_ses-01_1","","100","0","doublecue","<div class = centerbox><div class = ANT_text>+</div></div><div class = ANT_down><div class = ANT_text>*</div></div><div class = ANT_up><div class = ANT_text>*</div><div></div>","none","100","test","","","","","","","","",""
"-1","-1","poldrack-single-stim","231","291922","0.0-196.0","sub-07_ses-01_1","","400","0","fixation","<div class = centerbox><div class = ANT_text>+</div></div>","none","400","test","","","","","","","","",""
"759","71","poldrack-single-stim","232","294031","0.0-197.0","sub-07_ses-01_1","","2100.136","0","stim","<div class = centerbox><div class = ANT_text>+</div></div><div class = ANT_down><img class = ""ANT_img first"" src = /static/experiments/attention_network_task/images/left_arrow.png></img><img class = ANT_img src = /static/experiments/attention_network_task/images/left_arrow.png></img><img class = ANT_img src = /static/experiments/attention_network_task/images/right_arrow.png></img><img class = ANT_img src = /static/experiments/attention_network_task/images/left_arrow.png></img><img class = ANT_img src = /static/experiments/attention_network_task/images/left_arrow.png></img></div></div>","89,71","1700","test","true","71","","right","incongruent","down","double","62",""
