"rt","key_press","trial_type","trial_index","time_elapsed","internal_node_id","subject","text","block_duration","timing_post_trial","trial_id","responses","stimulus","possible_responses","stim_duration","exp_stage","cue","stim_color","stim_number","task","task_switch","cue_switch","trial_num","correct","correct_response","feedback_duration","exp_id"
"1565","13","text","0","1567","0.0-0.0","sub-14_ses-01_2","","","","","","","","","","","","","","","","","","","",""
"1052","89","poldrack-text","1","3632","0.0-1.0","sub-14_ses-01_2","<div class = centerbox><div style = 'font-size: 50px' class = center-text>Veuillez appuyer avec votre index</p></div>","1052","500","fmri_response_test","","","","","","","","","","","","","","","",""
"1","71","poldrack-text","2","4140","0.0-2.0","sub-14_ses-01_2","<div class = centerbox><div style = 'font-size: 50px' class = center-text>Veuillez appuyer avec votre majeur</p></div>","1","500","fmri_response_test","","","","","","","","","","","","","","","",""
"6221","","survey-text","3","10902","0.0-3.0","sub-14_ses-01_2","","","","task_setup","{""Q0"":""1"",""Q1"":""2""}","","","","","","","","","","","","","","",""
"5965","32","poldrack-single-stim","4","17886","0.0-4.0","sub-14_ses-01_2","","5965","0","instructions","","<div class = centerbox><div class = center-text style=""font-size:40px""><strong>Color</strong> or <strong>Orange-Blue</strong>: Index if orange and Majeur if blue.<br><br><strong>Magnitude</strong> or <strong>High-Low</strong>: Majeur if >5 and Index if <5.</div></div>","32","5965","","","","","","","","","","","",""
"","","call-function","5","17888","0.0-5.0-0.0","sub-14_ses-01_2","","","","set_stims","","","","","","","","","","","","","","","",""
"-1","-1","poldrack-single-stim","6","18396","0.0-5.0-1.0","sub-14_ses-01_2","","500","0","fixation","","<div class = upperbox><div class = fixation>+</div></div><div class = lowerbox><div class = fixation>+</div></div>","none","500","practice","","","","","","","","","","",""
"-1","-1","poldrack-single-stim","7","19318","0.0-5.0-2.0","sub-14_ses-01_2","","900","0","cue","","<div class = upperbox><div class = ""center-text"" >Couleur</div></div><div class = lowerbox><div class = fixation>+</div></div>","none","900","practice","Couleur","#1F45FC","4","color","stay","switch","0","","","",""
"703","71","poldrack-categorize","8","21856","0.0-5.0-3.0","sub-14_ses-01_2","","2000","0","stim","","<div class = upperbox><div class = ""center-text"" >Couleur</div></div><div class = lowerbox><div class = ""stim-text"" style=color:#1F45FC;>4</div>","89,71","1000","practice","Couleur","#1F45FC","4","color","stay","switch","0","true","71","500",""
"-1","-1","poldrack-single-stim","9","22376","0.0-5.0-4.0","sub-14_ses-01_2","","500","0","gap",""," ","none","500","practice","","","","","","","","","","",""
"","","call-function","10","22377","0.0-5.0-5.0","sub-14_ses-01_2","","","","set_stims","","","","","","","","","","","","","","","",""
"-1","-1","poldrack-single-stim","11","22895","0.0-5.0-6.0","sub-14_ses-01_2","","500","0","fixation","","<div class = upperbox><div class = fixation>+</div></div><div class = lowerbox><div class = fixation>+</div></div>","none","500","practice","","","","","","","","","","",""
"-1","-1","poldrack-single-stim","12","23015","0.0-5.0-7.0","sub-14_ses-01_2","","100","0","cue","","<div class = upperbox><div class = ""center-text"" >Couleur</div></div><div class = lowerbox><div class = fixation>+</div></div>","none","100","practice","Couleur","orange","9","color","stay","stay","1","","","",""
"696","89","poldrack-categorize","13","25545","0.0-5.0-8.0","sub-14_ses-01_2","","2000","0","stim","","<div class = upperbox><div class = ""center-text"" >Couleur</div></div><div class = lowerbox><div class = ""stim-text"" style=color:orange;>9</div>","89,71","1000","practice","Couleur","orange","9","color","stay","stay","1","true","89","500",""
"-1","-1","poldrack-single-stim","14","26066","0.0-5.0-9.0","sub-14_ses-01_2","","500","0","gap",""," ","none","500","practice","","","","","","","","","","",""
"","","call-function","15","26066","0.0-5.0-10.0","sub-14_ses-01_2","","","","set_stims","","","","","","","","","","","","","","","",""
"-1","-1","poldrack-single-stim","16","26575","0.0-5.0-11.0","sub-14_ses-01_2","","500","0","fixation","","<div class = upperbox><div class = fixation>+</div></div><div class = lowerbox><div class = fixation>+</div></div>","none","500","practice","","","","","","","","","","",""
"-1","-1","poldrack-single-stim","17","27487","0.0-5.0-12.0","sub-14_ses-01_2","","900","0","cue","","<div class = upperbox><div class = ""center-text"" >Couleur</div></div><div class = lowerbox><div class = fixation>+</div></div>","none","900","practice","Couleur","#1F45FC","7","color","stay","stay","2","","","",""
"403","71","poldrack-categorize","18","30006","0.0-5.0-13.0","sub-14_ses-01_2","","2000","0","stim","","<div class = upperbox><div class = ""center-text"" >Couleur</div></div><div class = lowerbox><div class = ""stim-text"" style=color:#1F45FC;>7</div>","89,71","1000","practice","Couleur","#1F45FC","7","color","stay","stay","2","true","71","500",""
"-1","-1","poldrack-single-stim","19","30524","0.0-5.0-14.0","sub-14_ses-01_2","","500","0","gap",""," ","none","500","practice","","","","","","","","","","",""
"","","call-function","20","30524","0.0-5.0-15.0","sub-14_ses-01_2","","","","set_stims","","","","","","","","","","","","","","","",""
"-1","-1","poldrack-single-stim","21","31046","0.0-5.0-16.0","sub-14_ses-01_2","","500","0","fixation","","<div class = upperbox><div class = fixation>+</div></div><div class = lowerbox><div class = fixation>+</div></div>","none","500","practice","","","","","","","","","","",""
"-1","-1","poldrack-single-stim","22","31165","0.0-5.0-17.0","sub-14_ses-01_2","","100","0","cue","","<div class = upperbox><div class = ""center-text"" >Haut-Bas</div></div><div class = lowerbox><div class = fixation>+</div></div>","none","100","practice","Haut-Bas","#1F45FC","4","magnitude","switch","stay","3","","","",""
"750","89","poldrack-categorize","23","33705","0.0-5.0-18.0","sub-14_ses-01_2","","2000","0","stim","","<div class = upperbox><div class = ""center-text"" >Haut-Bas</div></div><div class = lowerbox><div class = ""stim-text"" style=color:#1F45FC;>4</div>","89,71","1000","practice","Haut-Bas","#1F45FC","4","magnitude","switch","stay","3","true","89","500",""
"-1","-1","poldrack-single-stim","24","34225","0.0-5.0-19.0","sub-14_ses-01_2","","500","0","gap",""," ","none","500","practice","","","","","","","","","","",""
"","","call-function","25","34225","0.0-5.0-20.0","sub-14_ses-01_2","","","","set_stims","","","","","","","","","","","","","","","",""
"-1","-1","poldrack-single-stim","26","34746","0.0-5.0-21.0","sub-14_ses-01_2","","500","0","fixation","","<div class = upperbox><div class = fixation>+</div></div><div class = lowerbox><div class = fixation>+</div></div>","none","500","practice","","","","","","","","","","",""
"-1","-1","poldrack-single-stim","27","34865","0.0-5.0-22.0","sub-14_ses-01_2","","100","0","cue","","<div class = upperbox><div class = ""center-text"" >Haut-Bas</div></div><div class = lowerbox><div class = fixation>+</div></div>","none","100","practice","Haut-Bas","orange","9","magnitude","stay","stay","4","","","",""
"688","71","poldrack-categorize","28","37405","0.0-5.0-23.0","sub-14_ses-01_2","","2000","0","stim","","<div class = upperbox><div class = ""center-text"" >Haut-Bas</div></div><div class = lowerbox><div class = ""stim-text"" style=color:orange;>9</div>","89,71","1000","practice","Haut-Bas","orange","9","magnitude","stay","stay","4","true","71","500",""
"-1","-1","poldrack-single-stim","29","37925","0.0-5.0-24.0","sub-14_ses-01_2","","500","0","gap",""," ","none","500","practice","","","","","","","","","","",""
"","","call-function","30","37925","0.0-5.0-25.0","sub-14_ses-01_2","","","","set_stims","","","","","","","","","","","","","","","",""
"-1","-1","poldrack-single-stim","31","38445","0.0-5.0-26.0","sub-14_ses-01_2","","500","0","fixation","","<div class = upperbox><div class = fixation>+</div></div><div class = lowerbox><div class = fixation>+</div></div>","none","500","practice","","","","","","","","","","",""
"-1","-1","poldrack-single-stim","32","39366","0.0-5.0-27.0","sub-14_ses-01_2","","900","0","cue","","<div class = upperbox><div class = ""center-text"" >Orange-Bleu</div></div><div class = lowerbox><div class = fixation>+</div></div>","none","900","practice","Orange-Bleu","#1F45FC","6","color","switch","switch","5","","","",""
"462","71","poldrack-categorize","33","41904","0.0-5.0-28.0","sub-14_ses-01_2","","2000","0","stim","","<div class = upperbox><div class = ""center-text"" >Orange-Bleu</div></div><div class = lowerbox><div class = ""stim-text"" style=color:#1F45FC;>6</div>","89,71","1000","practice","Orange-Bleu","#1F45FC","6","color","switch","switch","5","true","71","500",""
"-1","-1","poldrack-single-stim","34","42425","0.0-5.0-29.0","sub-14_ses-01_2","","500","0","gap",""," ","none","500","practice","","","","","","","","","","",""
"","","call-function","35","42425","0.0-5.0-30.0","sub-14_ses-01_2","","","","set_stims","","","","","","","","","","","","","","","",""
"-1","-1","poldrack-single-stim","36","42945","0.0-5.0-31.0","sub-14_ses-01_2","","500","0","fixation","","<div class = upperbox><div class = fixation>+</div></div><div class = lowerbox><div class = fixation>+</div></div>","none","500","practice","","","","","","","","","","",""
"-1","-1","poldrack-single-stim","37","43066","0.0-5.0-32.0","sub-14_ses-01_2","","100","0","cue","","<div class = upperbox><div class = ""center-text"" >Amplitude</div></div><div class = lowerbox><div class = fixation>+</div></div>","none","100","practice","Amplitude","#1F45FC","4","magnitude","switch","stay","6","","","",""
"796","89","poldrack-categorize","38","45605","0.0-5.0-33.0","sub-14_ses-01_2","","2000","0","stim","","<div class = upperbox><div class = ""center-text"" >Amplitude</div></div><div class = lowerbox><div class = ""stim-text"" style=color:#1F45FC;>4</div>","89,71","1000","practice","Amplitude","#1F45FC","4","magnitude","switch","stay","6","true","89","500",""
"-1","-1","poldrack-single-stim","39","46126","0.0-5.0-34.0","sub-14_ses-01_2","","500","0","gap",""," ","none","500","practice","","","","","","","","","","",""
"","","call-function","40","46126","0.0-5.0-35.0","sub-14_ses-01_2","","","","set_stims","","","","","","","","","","","","","","","",""
"-1","-1","poldrack-single-stim","41","46646","0.0-5.0-36.0","sub-14_ses-01_2","","500","0","fixation","","<div class = upperbox><div class = fixation>+</div></div><div class = lowerbox><div class = fixation>+</div></div>","none","500","practice","","","","","","","","","","",""
"-1","-1","poldrack-single-stim","42","47566","0.0-5.0-37.0","sub-14_ses-01_2","","900","0","cue","","<div class = upperbox><div class = ""center-text"" >Amplitude</div></div><div class = lowerbox><div class = fixation>+</div></div>","none","900","practice","Amplitude","orange","7","magnitude","stay","stay","7","","","",""
"427","71","poldrack-categorize","43","50094","0.0-5.0-38.0","sub-14_ses-01_2","","2000","0","stim","","<div class = upperbox><div class = ""center-text"" >Amplitude</div></div><div class = lowerbox><div class = ""stim-text"" style=color:orange;>7</div>","89,71","1000","practice","Amplitude","orange","7","magnitude","stay","stay","7","true","71","500",""
"-1","-1","poldrack-single-stim","44","50605","0.0-5.0-39.0","sub-14_ses-01_2","","500","0","gap",""," ","none","500","practice","","","","","","","","","","",""
"","","call-function","45","50605","0.0-5.0-40.0","sub-14_ses-01_2","","","","set_stims","","","","","","","","","","","","","","","",""
"-1","-1","poldrack-single-stim","46","51125","0.0-5.0-41.0","sub-14_ses-01_2","","500","0","fixation","","<div class = upperbox><div class = fixation>+</div></div><div class = lowerbox><div class = fixation>+</div></div>","none","500","practice","","","","","","","","","","",""
"-1","-1","poldrack-single-stim","47","51246","0.0-5.0-42.0","sub-14_ses-01_2","","100","0","cue","","<div class = upperbox><div class = ""center-text"" >Orange-Bleu</div></div><div class = lowerbox><div class = fixation>+</div></div>","none","100","practice","Orange-Bleu","orange","8","color","switch","switch","8","","","",""
"1010","89","poldrack-categorize","48","53775","0.0-5.0-43.0","sub-14_ses-01_2","","2000","0","stim","","<div class = upperbox><div class = ""center-text"" >Orange-Bleu</div></div><div class = lowerbox><div class = ""stim-text"" style=color:orange;>8</div>","89,71","1000","practice","Orange-Bleu","orange","8","color","switch","switch","8","true","89","500",""
"-1","-1","poldrack-single-stim","49","54295","0.0-5.0-44.0","sub-14_ses-01_2","","500","0","gap",""," ","none","500","practice","","","","","","","","","","",""
"","","call-function","50","54296","0.0-5.0-45.0","sub-14_ses-01_2","","","","set_stims","","","","","","","","","","","","","","","",""
"-1","-1","poldrack-single-stim","51","54816","0.0-5.0-46.0","sub-14_ses-01_2","","500","0","fixation","","<div class = upperbox><div class = fixation>+</div></div><div class = lowerbox><div class = fixation>+</div></div>","none","500","practice","","","","","","","","","","",""
"-1","-1","poldrack-single-stim","52","54925","0.0-5.0-47.0","sub-14_ses-01_2","","100","0","cue","","<div class = upperbox><div class = ""center-text"" >Couleur</div></div><div class = lowerbox><div class = fixation>+</div></div>","none","100","practice","Couleur","orange","1","color","stay","switch","9","","","",""
"800","89","poldrack-categorize","53","57455","0.0-5.0-48.0","sub-14_ses-01_2","","2000","0","stim","","<div class = upperbox><div class = ""center-text"" >Couleur</div></div><div class = lowerbox><div class = ""stim-text"" style=color:orange;>1</div>","89,71","1000","practice","Couleur","orange","1","color","stay","switch","9","true","89","500",""
"-1","-1","poldrack-single-stim","54","57975","0.0-5.0-49.0","sub-14_ses-01_2","","500","0","gap",""," ","none","500","practice","","","","","","","","","","",""
"","","call-function","55","57976","0.0-5.0-50.0","sub-14_ses-01_2","","","","set_stims","","","","","","","","","","","","","","","",""
"-1","-1","poldrack-single-stim","56","58495","0.0-5.0-51.0","sub-14_ses-01_2","","500","0","fixation","","<div class = upperbox><div class = fixation>+</div></div><div class = lowerbox><div class = fixation>+</div></div>","none","500","practice","","","","","","","","","","",""
"-1","-1","poldrack-single-stim","57","59415","0.0-5.0-52.0","sub-14_ses-01_2","","900","0","cue","","<div class = upperbox><div class = ""center-text"" >Amplitude</div></div><div class = lowerbox><div class = fixation>+</div></div>","none","900","practice","Amplitude","orange","4","magnitude","switch","stay","10","","","",""
"486","89","poldrack-categorize","58","61955","0.0-5.0-53.0","sub-14_ses-01_2","","2000","0","stim","","<div class = upperbox><div class = ""center-text"" >Amplitude</div></div><div class = lowerbox><div class = ""stim-text"" style=color:orange;>4</div>","89,71","1000","practice","Amplitude","orange","4","magnitude","switch","stay","10","true","89","500",""
"-1","-1","poldrack-single-stim","59","62475","0.0-5.0-54.0","sub-14_ses-01_2","","500","0","gap",""," ","none","500","practice","","","","","","","","","","",""
"","","call-function","60","62476","0.0-5.0-55.0","sub-14_ses-01_2","","","","set_stims","","","","","","","","","","","","","","","",""
"-1","-1","poldrack-single-stim","61","62985","0.0-5.0-56.0","sub-14_ses-01_2","","500","0","fixation","","<div class = upperbox><div class = fixation>+</div></div><div class = lowerbox><div class = fixation>+</div></div>","none","500","practice","","","","","","","","","","",""
"-1","-1","poldrack-single-stim","62","63106","0.0-5.0-57.0","sub-14_ses-01_2","","100","0","cue","","<div class = upperbox><div class = ""center-text"" >Couleur</div></div><div class = lowerbox><div class = fixation>+</div></div>","none","100","practice","Couleur","#1F45FC","4","color","switch","switch","11","","","",""
"1130","71","poldrack-categorize","63","65646","0.0-5.0-58.0","sub-14_ses-01_2","","2000","0","stim","","<div class = upperbox><div class = ""center-text"" >Couleur</div></div><div class = lowerbox><div class = ""stim-text"" style=color:#1F45FC;>4</div>","89,71","1000","practice","Couleur","#1F45FC","4","color","switch","switch","11","true","71","500",""
"-1","-1","poldrack-single-stim","64","66214","0.0-5.0-59.0","sub-14_ses-01_2","","500","0","gap",""," ","none","500","practice","","","","","","","","","","",""
"","","call-function","65","66215","0.0-5.0-60.0","sub-14_ses-01_2","","","","set_stims","","","","","","","","","","","","","","","",""
"-1","-1","poldrack-single-stim","66","66725","0.0-5.0-61.0","sub-14_ses-01_2","","500","0","fixation","","<div class = upperbox><div class = fixation>+</div></div><div class = lowerbox><div class = fixation>+</div></div>","none","500","practice","","","","","","","","","","",""
"-1","-1","poldrack-single-stim","67","67645","0.0-5.0-62.0","sub-14_ses-01_2","","900","0","cue","","<div class = upperbox><div class = ""center-text"" >Haut-Bas</div></div><div class = lowerbox><div class = fixation>+</div></div>","none","900","practice","Haut-Bas","#1F45FC","2","magnitude","switch","stay","12","","","",""
"574","89","poldrack-categorize","68","70185","0.0-5.0-63.0","sub-14_ses-01_2","","2000","0","stim","","<div class = upperbox><div class = ""center-text"" >Haut-Bas</div></div><div class = lowerbox><div class = ""stim-text"" style=color:#1F45FC;>2</div>","89,71","1000","practice","Haut-Bas","#1F45FC","2","magnitude","switch","stay","12","true","89","500",""
"-1","-1","poldrack-single-stim","69","70706","0.0-5.0-64.0","sub-14_ses-01_2","","500","0","gap",""," ","none","500","practice","","","","","","","","","","",""
"","","call-function","70","70706","0.0-5.0-65.0","sub-14_ses-01_2","","","","set_stims","","","","","","","","","","","","","","","",""
"-1","-1","poldrack-single-stim","71","71225","0.0-5.0-66.0","sub-14_ses-01_2","","500","0","fixation","","<div class = upperbox><div class = fixation>+</div></div><div class = lowerbox><div class = fixation>+</div></div>","none","500","practice","","","","","","","","","","",""
"-1","-1","poldrack-single-stim","72","71345","0.0-5.0-67.0","sub-14_ses-01_2","","100","0","cue","","<div class = upperbox><div class = ""center-text"" >Amplitude</div></div><div class = lowerbox><div class = fixation>+</div></div>","none","100","practice","Amplitude","#1F45FC","6","magnitude","stay","switch","13","","","",""
"790","71","poldrack-categorize","73","73855","0.0-5.0-68.0","sub-14_ses-01_2","","2000","0","stim","","<div class = upperbox><div class = ""center-text"" >Amplitude</div></div><div class = lowerbox><div class = ""stim-text"" style=color:#1F45FC;>6</div>","89,71","1000","practice","Amplitude","#1F45FC","6","magnitude","stay","switch","13","true","71","500",""
"-1","-1","poldrack-single-stim","74","74375","0.0-5.0-69.0","sub-14_ses-01_2","","500","0","gap",""," ","none","500","practice","","","","","","","","","","",""
"","","call-function","75","74376","0.0-5.0-70.0","sub-14_ses-01_2","","","","set_stims","","","","","","","","","","","","","","","",""
"-1","-1","poldrack-single-stim","76","74895","0.0-5.0-71.0","sub-14_ses-01_2","","500","0","fixation","","<div class = upperbox><div class = fixation>+</div></div><div class = lowerbox><div class = fixation>+</div></div>","none","500","practice","","","","","","","","","","",""
"-1","-1","poldrack-single-stim","77","75816","0.0-5.0-72.0","sub-14_ses-01_2","","900","0","cue","","<div class = upperbox><div class = ""center-text"" >Couleur</div></div><div class = lowerbox><div class = fixation>+</div></div>","none","900","practice","Couleur","orange","1","color","switch","switch","14","","","",""
"559","89","poldrack-categorize","78","78355","0.0-5.0-73.0","sub-14_ses-01_2","","2000","0","stim","","<div class = upperbox><div class = ""center-text"" >Couleur</div></div><div class = lowerbox><div class = ""stim-text"" style=color:orange;>1</div>","89,71","1000","practice","Couleur","orange","1","color","switch","switch","14","true","89","500",""
"-1","-1","poldrack-single-stim","79","78875","0.0-5.0-74.0","sub-14_ses-01_2","","500","0","gap",""," ","none","500","practice","","","","","","","","","","",""
"","","call-function","80","78875","0.0-5.0-75.0","sub-14_ses-01_2","","","","set_stims","","","","","","","","","","","","","","","",""
"-1","-1","poldrack-single-stim","81","79395","0.0-5.0-76.0","sub-14_ses-01_2","","500","0","fixation","","<div class = upperbox><div class = fixation>+</div></div><div class = lowerbox><div class = fixation>+</div></div>","none","500","practice","","","","","","","","","","",""
"-1","-1","poldrack-single-stim","82","80316","0.0-5.0-77.0","sub-14_ses-01_2","","900","0","cue","","<div class = upperbox><div class = ""center-text"" >Orange-Bleu</div></div><div class = lowerbox><div class = fixation>+</div></div>","none","900","practice","Orange-Bleu","orange","9","color","stay","switch","15","","","",""
"633","89","poldrack-categorize","83","82855","0.0-5.0-78.0","sub-14_ses-01_2","","2000","0","stim","","<div class = upperbox><div class = ""center-text"" >Orange-Bleu</div></div><div class = lowerbox><div class = ""stim-text"" style=color:orange;>9</div>","89,71","1000","practice","Orange-Bleu","orange","9","color","stay","switch","15","true","89","500",""
"-1","-1","poldrack-single-stim","84","83374","0.0-5.0-79.0","sub-14_ses-01_2","","500","0","gap",""," ","none","500","practice","","","","","","","","","","",""
"21361","32","poldrack-text","85","104750","0.0-6.0","sub-14_ses-01_2","<div class = centerbox><div  class = center-text>Scanner Setup</div></div>","21361","0","fmri_scanner_wait","","","","","","","","","","","","","","","",""
"54170","84","poldrack-text","86","158923","0.0-7.0","sub-14_ses-01_2","<div class = centerbox><div style='color:red'; class = center-text>+</div></div>","54170","0","fmri_trigger_wait","","","","","","","","","","","","","","","",""
"-1","-1","poldrack-single-stim","87","159936","0.0-8.0","sub-14_ses-01_2","","1000","0","fmri_buffer","","","none","1000","","","","","","","","","","","",""
"-1","-1","poldrack-single-stim","88","161447","0.0-9.0","sub-14_ses-01_2","","1500","500","test_start_block","","<div class = centerbox><div class = center-text>Preparez-vous!</p></div>","none","1500","","","","","","","","","","","",""
"-1","-1","poldrack-single-stim","89","162484","0.0-10.0","sub-14_ses-01_2","","500","0","fixation","","<div class = upperbox><div class = fixation>+</div></div><div class = lowerbox><div class = fixation>+</div></div>","none","500","test","","","","","","","","","","",""
"","","call-function","90","162485","0.0-11.0","sub-14_ses-01_2","","","","set_stims","","","","","","","","","","","","","","","",""
"-1","-1","poldrack-single-stim","91","163405","0.0-12.0","sub-14_ses-01_2","","900","0","cue","","<div class = upperbox><div class = ""center-text"" >Orange-Bleu</div></div><div class = lowerbox><div class = fixation>+</div></div>","none","900","test","Orange-Bleu","#1F45FC","4","color","stay","stay","0","","","",""
"430","71","poldrack-single-stim","92","166635","0.0-13.0","sub-14_ses-01_2","","3224","0","stim","","<div class = upperbox><div class = ""center-text"" >Orange-Bleu</div></div><div class = lowerbox><div class = ""stim-text"" style=color:#1F45FC;>4</div>","89,71","1000","test","Orange-Bleu","#1F45FC","4","color","stay","stay","0","true","71","",""
"","","call-function","93","166637","0.0-14.0","sub-14_ses-01_2","","","","set_stims","","","","","","","","","","","","","","","",""
"-1","-1","poldrack-single-stim","94","166756","0.0-15.0","sub-14_ses-01_2","","100","0","cue","","<div class = upperbox><div class = ""center-text"" >Amplitude</div></div><div class = lowerbox><div class = fixation>+</div></div>","none","100","test","Amplitude","orange","9","magnitude","switch","stay","1","","","",""
"1799","71","poldrack-single-stim","95","169176","0.0-16.0","sub-14_ses-01_2","","2408","0","stim","","<div class = upperbox><div class = ""center-text"" >Amplitude</div></div><div class = lowerbox><div class = ""stim-text"" style=color:orange;>9</div>","89,71","1000","test","Amplitude","orange","9","magnitude","switch","stay","1","true","71","",""
"","","call-function","96","169177","0.0-17.0","sub-14_ses-01_2","","","","set_stims","","","","","","","","","","","","","","","",""
"-1","-1","poldrack-single-stim","97","169294","0.0-18.0","sub-14_ses-01_2","","100","0","cue","","<div class = upperbox><div class = ""center-text"" >Couleur</div></div><div class = lowerbox><div class = fixation>+</div></div>","none","100","test","Couleur","#1F45FC","7","color","switch","switch","2","","","",""
"672","71","poldrack-single-stim","98","172114","0.0-19.0","sub-14_ses-01_2","","2816","0","stim","","<div class = upperbox><div class = ""center-text"" >Couleur</div></div><div class = lowerbox><div class = ""stim-text"" style=color:#1F45FC;>7</div>","89,71","1000","test","Couleur","#1F45FC","7","color","switch","switch","2","true","71","",""
"","","call-function","99","172116","0.0-20.0","sub-14_ses-01_2","","","","set_stims","","","","","","","","","","","","","","","",""
"-1","-1","poldrack-single-stim","100","173035","0.0-21.0","sub-14_ses-01_2","","900","0","cue","","<div class = upperbox><div class = ""center-text"" >Amplitude</div></div><div class = lowerbox><div class = fixation>+</div></div>","none","900","test","Amplitude","#1F45FC","4","magnitude","switch","stay","3","","","",""
"1050","89","poldrack-single-stim","101","175455","0.0-22.0","sub-14_ses-01_2","","2408","0","stim","","<div class = upperbox><div class = ""center-text"" >Amplitude</div></div><div class = lowerbox><div class = ""stim-text"" style=color:#1F45FC;>4</div>","89,71","1000","test","Amplitude","#1F45FC","4","magnitude","switch","stay","3","true","89","",""
"","","call-function","102","175456","0.0-23.0","sub-14_ses-01_2","","","","set_stims","","","","","","","","","","","","","","","",""
"-1","-1","poldrack-single-stim","103","176374","0.0-24.0","sub-14_ses-01_2","","900","0","cue","","<div class = upperbox><div class = ""center-text"" >Couleur</div></div><div class = lowerbox><div class = fixation>+</div></div>","none","900","test","Couleur","orange","9","color","switch","switch","4","","","",""
"417","89","poldrack-single-stim","104","178522","0.0-25.0","sub-14_ses-01_2","","2136","0","stim","","<div class = upperbox><div class = ""center-text"" >Couleur</div></div><div class = lowerbox><div class = ""stim-text"" style=color:orange;>9</div>","89,71","1000","test","Couleur","orange","9","color","switch","switch","4","true","89","",""
"","","call-function","105","178523","0.0-26.0","sub-14_ses-01_2","","","","set_stims","","","","","","","","","","","","","","","",""
"-1","-1","poldrack-single-stim","106","179436","0.0-27.0","sub-14_ses-01_2","","900","0","cue","","<div class = upperbox><div class = ""center-text"" >Couleur</div></div><div class = lowerbox><div class = fixation>+</div></div>","none","900","test","Couleur","#1F45FC","6","color","stay","stay","5","","","",""
"362","71","poldrack-single-stim","107","181584","0.0-28.0","sub-14_ses-01_2","","2136","0","stim","","<div class = upperbox><div class = ""center-text"" >Couleur</div></div><div class = lowerbox><div class = ""stim-text"" style=color:#1F45FC;>6</div>","89,71","1000","test","Couleur","#1F45FC","6","color","stay","stay","5","true","71","",""
"","","call-function","108","181586","0.0-29.0","sub-14_ses-01_2","","","","set_stims","","","","","","","","","","","","","","","",""
"-1","-1","poldrack-single-stim","109","182505","0.0-30.0","sub-14_ses-01_2","","900","0","cue","","<div class = upperbox><div class = ""center-text"" >Orange-Bleu</div></div><div class = lowerbox><div class = fixation>+</div></div>","none","900","test","Orange-Bleu","#1F45FC","4","color","stay","switch","6","","","",""
"815","71","poldrack-single-stim","110","184525","0.0-31.0","sub-14_ses-01_2","","2000","0","stim","","<div class = upperbox><div class = ""center-text"" >Orange-Bleu</div></div><div class = lowerbox><div class = ""stim-text"" style=color:#1F45FC;>4</div>","89,71","1000","test","Orange-Bleu","#1F45FC","4","color","stay","switch","6","true","71","",""
"","","call-function","111","184525","0.0-32.0","sub-14_ses-01_2","","","","set_stims","","","","","","","","","","","","","","","",""
"-1","-1","poldrack-single-stim","112","185445","0.0-33.0","sub-14_ses-01_2","","900","0","cue","","<div class = upperbox><div class = ""center-text"" >Couleur</div></div><div class = lowerbox><div class = fixation>+</div></div>","none","900","test","Couleur","orange","7","color","stay","switch","7","","","",""
"341","89","poldrack-single-stim","113","187465","0.0-34.0","sub-14_ses-01_2","","2000","0","stim","","<div class = upperbox><div class = ""center-text"" >Couleur</div></div><div class = lowerbox><div class = ""stim-text"" style=color:orange;>7</div>","89,71","1000","test","Couleur","orange","7","color","stay","switch","7","true","89","",""
"","","call-function","114","187466","0.0-35.0","sub-14_ses-01_2","","","","set_stims","","","","","","","","","","","","","","","",""
"-1","-1","poldrack-single-stim","115","188386","0.0-36.0","sub-14_ses-01_2","","900","0","cue","","<div class = upperbox><div class = ""center-text"" >Haut-Bas</div></div><div class = lowerbox><div class = fixation>+</div></div>","none","900","test","Haut-Bas","orange","8","magnitude","switch","stay","8","","","",""
"477","71","poldrack-single-stim","116","190664","0.0-37.0","sub-14_ses-01_2","","2272","0","stim","","<div class = upperbox><div class = ""center-text"" >Haut-Bas</div></div><div class = lowerbox><div class = ""stim-text"" style=color:orange;>8</div>","89,71","1000","test","Haut-Bas","orange","8","magnitude","switch","stay","8","true","71","",""
"","","call-function","117","190666","0.0-38.0","sub-14_ses-01_2","","","","set_stims","","","","","","","","","","","","","","","",""
"-1","-1","poldrack-single-stim","118","191585","0.0-39.0","sub-14_ses-01_2","","900","0","cue","","<div class = upperbox><div class = ""center-text"" >Couleur</div></div><div class = lowerbox><div class = fixation>+</div></div>","none","900","test","Couleur","orange","1","color","switch","switch","9","","","",""
"1826","89","poldrack-single-stim","119","194015","0.0-40.0","sub-14_ses-01_2","","2408","0","stim","","<div class = upperbox><div class = ""center-text"" >Couleur</div></div><div class = lowerbox><div class = ""stim-text"" style=color:orange;>1</div>","89,71","1000","test","Couleur","orange","1","color","switch","switch","9","true","89","",""
"","","call-function","120","194016","0.0-41.0","sub-14_ses-01_2","","","","set_stims","","","","","","","","","","","","","","","",""
"-1","-1","poldrack-single-stim","121","194135","0.0-42.0","sub-14_ses-01_2","","100","0","cue","","<div class = upperbox><div class = ""center-text"" >Haut-Bas</div></div><div class = lowerbox><div class = fixation>+</div></div>","none","100","test","Haut-Bas","orange","4","magnitude","switch","stay","10","","","",""
"1123","89","poldrack-single-stim","122","196155","0.0-43.0","sub-14_ses-01_2","","2000","0","stim","","<div class = upperbox><div class = ""center-text"" >Haut-Bas</div></div><div class = lowerbox><div class = ""stim-text"" style=color:orange;>4</div>","89,71","1000","test","Haut-Bas","orange","4","magnitude","switch","stay","10","true","89","",""
"","","call-function","123","196156","0.0-44.0","sub-14_ses-01_2","","","","set_stims","","","","","","","","","","","","","","","",""
"-1","-1","poldrack-single-stim","124","197073","0.0-45.0","sub-14_ses-01_2","","900","0","cue","","<div class = upperbox><div class = ""center-text"" >Amplitude</div></div><div class = lowerbox><div class = fixation>+</div></div>","none","900","test","Amplitude","#1F45FC","4","magnitude","stay","switch","11","","","",""
"1092","71","poldrack-single-stim","125","199215","0.0-46.0","sub-14_ses-01_2","","2136","0","stim","","<div class = upperbox><div class = ""center-text"" >Amplitude</div></div><div class = lowerbox><div class = ""stim-text"" style=color:#1F45FC;>4</div>","89,71","1000","test","Amplitude","#1F45FC","4","magnitude","stay","switch","11","false","89","",""
"","","call-function","126","199215","0.0-47.0","sub-14_ses-01_2","","","","set_stims","","","","","","","","","","","","","","","",""
"-1","-1","poldrack-single-stim","127","199335","0.0-48.0","sub-14_ses-01_2","","100","0","cue","","<div class = upperbox><div class = ""center-text"" >Couleur</div></div><div class = lowerbox><div class = fixation>+</div></div>","none","100","test","Couleur","#1F45FC","2","color","switch","stay","12","","","",""
"1157","71","poldrack-single-stim","128","201354","0.0-49.0","sub-14_ses-01_2","","2000","0","stim","","<div class = upperbox><div class = ""center-text"" >Couleur</div></div><div class = lowerbox><div class = ""stim-text"" style=color:#1F45FC;>2</div>","89,71","1000","test","Couleur","#1F45FC","2","color","switch","stay","12","true","71","",""
"","","call-function","129","201355","0.0-50.0","sub-14_ses-01_2","","","","set_stims","","","","","","","","","","","","","","","",""
"-1","-1","poldrack-single-stim","130","202276","0.0-51.0","sub-14_ses-01_2","","900","0","cue","","<div class = upperbox><div class = ""center-text"" >Amplitude</div></div><div class = lowerbox><div class = fixation>+</div></div>","none","900","test","Amplitude","#1F45FC","6","magnitude","switch","switch","13","","","",""
"550","71","poldrack-single-stim","131","204695","0.0-52.0","sub-14_ses-01_2","","2408","0","stim","","<div class = upperbox><div class = ""center-text"" >Amplitude</div></div><div class = lowerbox><div class = ""stim-text"" style=color:#1F45FC;>6</div>","89,71","1000","test","Amplitude","#1F45FC","6","magnitude","switch","switch","13","true","71","",""
"","","call-function","132","204695","0.0-53.0","sub-14_ses-01_2","","","","set_stims","","","","","","","","","","","","","","","",""
"-1","-1","poldrack-single-stim","133","204815","0.0-54.0","sub-14_ses-01_2","","100","0","cue","","<div class = upperbox><div class = ""center-text"" >Haut-Bas</div></div><div class = lowerbox><div class = fixation>+</div></div>","none","100","test","Haut-Bas","orange","1","magnitude","stay","switch","14","","","",""
"912","89","poldrack-single-stim","134","207104","0.0-55.0","sub-14_ses-01_2","","2272","0","stim","","<div class = upperbox><div class = ""center-text"" >Haut-Bas</div></div><div class = lowerbox><div class = ""stim-text"" style=color:orange;>1</div>","89,71","1000","test","Haut-Bas","orange","1","magnitude","stay","switch","14","true","89","",""
"","","call-function","135","207106","0.0-56.0","sub-14_ses-01_2","","","","set_stims","","","","","","","","","","","","","","","",""
"-1","-1","poldrack-single-stim","136","208025","0.0-57.0","sub-14_ses-01_2","","900","0","cue","","<div class = upperbox><div class = ""center-text"" >Orange-Bleu</div></div><div class = lowerbox><div class = fixation>+</div></div>","none","900","test","Orange-Bleu","orange","9","color","switch","stay","15","","","",""
"569","89","poldrack-single-stim","137","210035","0.0-58.0","sub-14_ses-01_2","","2000","0","stim","","<div class = upperbox><div class = ""center-text"" >Orange-Bleu</div></div><div class = lowerbox><div class = ""stim-text"" style=color:orange;>9</div>","89,71","1000","test","Orange-Bleu","orange","9","color","switch","stay","15","true","89","",""
"","","call-function","138","210037","0.0-59.0","sub-14_ses-01_2","","","","set_stims","","","","","","","","","","","","","","","",""
"-1","-1","poldrack-single-stim","139","210956","0.0-60.0","sub-14_ses-01_2","","900","0","cue","","<div class = upperbox><div class = ""center-text"" >Couleur</div></div><div class = lowerbox><div class = fixation>+</div></div>","none","900","test","Couleur","orange","1","color","stay","switch","16","","","",""
"460","89","poldrack-single-stim","140","213245","0.0-61.0","sub-14_ses-01_2","","2272","0","stim","","<div class = upperbox><div class = ""center-text"" >Couleur</div></div><div class = lowerbox><div class = ""stim-text"" style=color:orange;>1</div>","89,71","1000","test","Couleur","orange","1","color","stay","switch","16","true","89","",""
"","","call-function","141","213245","0.0-62.0","sub-14_ses-01_2","","","","set_stims","","","","","","","","","","","","","","","",""
"-1","-1","poldrack-single-stim","142","214156","0.0-63.0","sub-14_ses-01_2","","900","0","cue","","<div class = upperbox><div class = ""center-text"" >Amplitude</div></div><div class = lowerbox><div class = fixation>+</div></div>","none","900","test","Amplitude","#1F45FC","4","magnitude","switch","switch","17","","","",""
"474","89","poldrack-single-stim","143","216175","0.0-64.0","sub-14_ses-01_2","","2000","0","stim","","<div class = upperbox><div class = ""center-text"" >Amplitude</div></div><div class = lowerbox><div class = ""stim-text"" style=color:#1F45FC;>4</div>","89,71","1000","test","Amplitude","#1F45FC","4","magnitude","switch","switch","17","true","89","",""
"","","call-function","144","216176","0.0-65.0","sub-14_ses-01_2","","","","set_stims","","","","","","","","","","","","","","","",""
"-1","-1","poldrack-single-stim","145","216296","0.0-66.0","sub-14_ses-01_2","","100","0","cue","","<div class = upperbox><div class = ""center-text"" >Couleur</div></div><div class = lowerbox><div class = fixation>+</div></div>","none","100","test","Couleur","orange","2","color","switch","stay","18","","","",""
"814","89","poldrack-single-stim","146","218314","0.0-67.0","sub-14_ses-01_2","","2000","0","stim","","<div class = upperbox><div class = ""center-text"" >Couleur</div></div><div class = lowerbox><div class = ""stim-text"" style=color:orange;>2</div>","89,71","1000","test","Couleur","orange","2","color","switch","stay","18","true","89","",""
"","","call-function","147","218315","0.0-68.0","sub-14_ses-01_2","","","","set_stims","","","","","","","","","","","","","","","",""
"-1","-1","poldrack-single-stim","148","219236","0.0-69.0","sub-14_ses-01_2","","900","0","cue","","<div class = upperbox><div class = ""center-text"" >Couleur</div></div><div class = lowerbox><div class = fixation>+</div></div>","none","900","test","Couleur","#1F45FC","7","color","stay","stay","19","","","",""
"354","71","poldrack-single-stim","149","221515","0.0-70.0","sub-14_ses-01_2","","2272","0","stim","","<div class = upperbox><div class = ""center-text"" >Couleur</div></div><div class = lowerbox><div class = ""stim-text"" style=color:#1F45FC;>7</div>","89,71","1000","test","Couleur","#1F45FC","7","color","stay","stay","19","true","71","",""
"","","call-function","150","221516","0.0-71.0","sub-14_ses-01_2","","","","set_stims","","","","","","","","","","","","","","","",""
"-1","-1","poldrack-single-stim","151","221625","0.0-72.0","sub-14_ses-01_2","","100","0","cue","","<div class = upperbox><div class = ""center-text"" >Amplitude</div></div><div class = lowerbox><div class = fixation>+</div></div>","none","100","test","Amplitude","#1F45FC","9","magnitude","switch","stay","20","","","",""
"847","71","poldrack-single-stim","152","223764","0.0-73.0","sub-14_ses-01_2","","2136","0","stim","","<div class = upperbox><div class = ""center-text"" >Amplitude</div></div><div class = lowerbox><div class = ""stim-text"" style=color:#1F45FC;>9</div>","89,71","1000","test","Amplitude","#1F45FC","9","magnitude","switch","stay","20","true","71","",""
"","","call-function","153","223766","0.0-74.0","sub-14_ses-01_2","","","","set_stims","","","","","","","","","","","","","","","",""
"-1","-1","poldrack-single-stim","154","224685","0.0-75.0","sub-14_ses-01_2","","900","0","cue","","<div class = upperbox><div class = ""center-text"" >Couleur</div></div><div class = lowerbox><div class = fixation>+</div></div>","none","900","test","Couleur","orange","3","color","switch","stay","21","","","",""
"385","89","poldrack-single-stim","155","226695","0.0-76.0","sub-14_ses-01_2","","2000","0","stim","","<div class = upperbox><div class = ""center-text"" >Couleur</div></div><div class = lowerbox><div class = ""stim-text"" style=color:orange;>3</div>","89,71","1000","test","Couleur","orange","3","color","switch","stay","21","true","89","",""
"","","call-function","156","226695","0.0-77.0","sub-14_ses-01_2","","","","set_stims","","","","","","","","","","","","","","","",""
"-1","-1","poldrack-single-stim","157","227615","0.0-78.0","sub-14_ses-01_2","","900","0","cue","","<div class = upperbox><div class = ""center-text"" >Couleur</div></div><div class = lowerbox><div class = fixation>+</div></div>","none","900","test","Couleur","orange","9","color","stay","stay","22","","","",""
"432","89","poldrack-single-stim","158","229625","0.0-79.0","sub-14_ses-01_2","","2000","0","stim","","<div class = upperbox><div class = ""center-text"" >Couleur</div></div><div class = lowerbox><div class = ""stim-text"" style=color:orange;>9</div>","89,71","1000","test","Couleur","orange","9","color","stay","stay","22","true","89","",""
"","","call-function","159","229626","0.0-80.0","sub-14_ses-01_2","","","","set_stims","","","","","","","","","","","","","","","",""
"-1","-1","poldrack-single-stim","160","230546","0.0-81.0","sub-14_ses-01_2","","900","0","cue","","<div class = upperbox><div class = ""center-text"" >Haut-Bas</div></div><div class = lowerbox><div class = fixation>+</div></div>","none","900","test","Haut-Bas","orange","1","magnitude","switch","stay","23","","","",""
"399","89","poldrack-single-stim","161","232604","0.0-82.0","sub-14_ses-01_2","","2000","0","stim","","<div class = upperbox><div class = ""center-text"" >Haut-Bas</div></div><div class = lowerbox><div class = ""stim-text"" style=color:orange;>1</div>","89,71","1000","test","Haut-Bas","orange","1","magnitude","switch","stay","23","true","89","",""
"","","call-function","162","232605","0.0-83.0","sub-14_ses-01_2","","","","set_stims","","","","","","","","","","","","","","","",""
"-1","-1","poldrack-single-stim","163","232738","0.0-84.0","sub-14_ses-01_2","","100","0","cue","","<div class = upperbox><div class = ""center-text"" >Amplitude</div></div><div class = lowerbox><div class = fixation>+</div></div>","none","100","test","Amplitude","#1F45FC","4","magnitude","stay","switch","24","","","",""
"632","89","poldrack-single-stim","164","234755","0.0-85.0","sub-14_ses-01_2","","2000","0","stim","","<div class = upperbox><div class = ""center-text"" >Amplitude</div></div><div class = lowerbox><div class = ""stim-text"" style=color:#1F45FC;>4</div>","89,71","1000","test","Amplitude","#1F45FC","4","magnitude","stay","switch","24","true","89","",""
"","","call-function","165","234755","0.0-86.0","sub-14_ses-01_2","","","","set_stims","","","","","","","","","","","","","","","",""
"-1","-1","poldrack-single-stim","166","234876","0.0-87.0","sub-14_ses-01_2","","100","0","cue","","<div class = upperbox><div class = ""center-text"" >Amplitude</div></div><div class = lowerbox><div class = fixation>+</div></div>","none","100","test","Amplitude","#1F45FC","1","magnitude","stay","stay","25","","","",""
"512","89","poldrack-single-stim","167","236894","0.0-88.0","sub-14_ses-01_2","","2000","0","stim","","<div class = upperbox><div class = ""center-text"" >Amplitude</div></div><div class = lowerbox><div class = ""stim-text"" style=color:#1F45FC;>1</div>","89,71","1000","test","Amplitude","#1F45FC","1","magnitude","stay","stay","25","true","89","",""
"","","call-function","168","236895","0.0-89.0","sub-14_ses-01_2","","","","set_stims","","","","","","","","","","","","","","","",""
"-1","-1","poldrack-single-stim","169","237816","0.0-90.0","sub-14_ses-01_2","","900","0","cue","","<div class = upperbox><div class = ""center-text"" >Orange-Bleu</div></div><div class = lowerbox><div class = fixation>+</div></div>","none","900","test","Orange-Bleu","orange","1","color","switch","switch","26","","","",""
"545","89","poldrack-single-stim","170","239974","0.0-91.0","sub-14_ses-01_2","","2136","0","stim","","<div class = upperbox><div class = ""center-text"" >Orange-Bleu</div></div><div class = lowerbox><div class = ""stim-text"" style=color:orange;>1</div>","89,71","1000","test","Orange-Bleu","orange","1","color","switch","switch","26","true","89","",""
"","","call-function","171","239975","0.0-92.0","sub-14_ses-01_2","","","","set_stims","","","","","","","","","","","","","","","",""
"-1","-1","poldrack-single-stim","172","240894","0.0-93.0","sub-14_ses-01_2","","900","0","cue","","<div class = upperbox><div class = ""center-text"" >Orange-Bleu</div></div><div class = lowerbox><div class = fixation>+</div></div>","none","900","test","Orange-Bleu","orange","3","color","stay","stay","27","","","",""
"500","89","poldrack-single-stim","173","242905","0.0-94.0","sub-14_ses-01_2","","2000","0","stim","","<div class = upperbox><div class = ""center-text"" >Orange-Bleu</div></div><div class = lowerbox><div class = ""stim-text"" style=color:orange;>3</div>","89,71","1000","test","Orange-Bleu","orange","3","color","stay","stay","27","true","89","",""
"","","call-function","174","242906","0.0-95.0","sub-14_ses-01_2","","","","set_stims","","","","","","","","","","","","","","","",""
"-1","-1","poldrack-single-stim","175","243825","0.0-96.0","sub-14_ses-01_2","","900","0","cue","","<div class = upperbox><div class = ""center-text"" >Amplitude</div></div><div class = lowerbox><div class = fixation>+</div></div>","none","900","test","Amplitude","#1F45FC","4","magnitude","switch","stay","28","","","",""
"394","89","poldrack-single-stim","176","245844","0.0-97.0","sub-14_ses-01_2","","2000","0","stim","","<div class = upperbox><div class = ""center-text"" >Amplitude</div></div><div class = lowerbox><div class = ""stim-text"" style=color:#1F45FC;>4</div>","89,71","1000","test","Amplitude","#1F45FC","4","magnitude","switch","stay","28","true","89","",""
"","","call-function","177","245845","0.0-98.0","sub-14_ses-01_2","","","","set_stims","","","","","","","","","","","","","","","",""
"-1","-1","poldrack-single-stim","178","246766","0.0-99.0","sub-14_ses-01_2","","900","0","cue","","<div class = upperbox><div class = ""center-text"" >Haut-Bas</div></div><div class = lowerbox><div class = fixation>+</div></div>","none","900","test","Haut-Bas","orange","1","magnitude","stay","switch","29","","","",""
"407","89","poldrack-single-stim","179","248928","0.0-100.0","sub-14_ses-01_2","","2136","0","stim","","<div class = upperbox><div class = ""center-text"" >Haut-Bas</div></div><div class = lowerbox><div class = ""stim-text"" style=color:orange;>1</div>","89,71","1000","test","Haut-Bas","orange","1","magnitude","stay","switch","29","true","89","",""
"","","call-function","180","248928","0.0-101.0","sub-14_ses-01_2","","","","set_stims","","","","","","","","","","","","","","","",""
"-1","-1","poldrack-single-stim","181","249044","0.0-102.0","sub-14_ses-01_2","","100","0","cue","","<div class = upperbox><div class = ""center-text"" >Amplitude</div></div><div class = lowerbox><div class = fixation>+</div></div>","none","100","test","Amplitude","orange","1","magnitude","stay","switch","30","","","",""
"535","89","poldrack-single-stim","182","251065","0.0-103.0","sub-14_ses-01_2","","2000","0","stim","","<div class = upperbox><div class = ""center-text"" >Amplitude</div></div><div class = lowerbox><div class = ""stim-text"" style=color:orange;>1</div>","89,71","1000","test","Amplitude","orange","1","magnitude","stay","switch","30","true","89","",""
"","","call-function","183","251066","0.0-104.0","sub-14_ses-01_2","","","","set_stims","","","","","","","","","","","","","","","",""
"-1","-1","poldrack-single-stim","184","251986","0.0-105.0","sub-14_ses-01_2","","900","0","cue","","<div class = upperbox><div class = ""center-text"" >Orange-Bleu</div></div><div class = lowerbox><div class = fixation>+</div></div>","none","900","test","Orange-Bleu","#1F45FC","1","color","switch","stay","31","","","",""
"426","71","poldrack-single-stim","185","254144","0.0-106.0","sub-14_ses-01_2","","2136","0","stim","","<div class = upperbox><div class = ""center-text"" >Orange-Bleu</div></div><div class = lowerbox><div class = ""stim-text"" style=color:#1F45FC;>1</div>","89,71","1000","test","Orange-Bleu","#1F45FC","1","color","switch","stay","31","true","71","",""
"","","call-function","186","254145","0.0-107.0","sub-14_ses-01_2","","","","set_stims","","","","","","","","","","","","","","","",""
"-1","-1","poldrack-single-stim","187","254266","0.0-108.0","sub-14_ses-01_2","","100","0","cue","","<div class = upperbox><div class = ""center-text"" >Amplitude</div></div><div class = lowerbox><div class = fixation>+</div></div>","none","100","test","Amplitude","orange","2","magnitude","switch","switch","32","","","",""
"579","89","poldrack-single-stim","188","256967","0.0-109.0","sub-14_ses-01_2","","2680","0","stim","","<div class = upperbox><div class = ""center-text"" >Amplitude</div></div><div class = lowerbox><div class = ""stim-text"" style=color:orange;>2</div>","89,71","1000","test","Amplitude","orange","2","magnitude","switch","switch","32","true","89","",""
"","","call-function","189","256969","0.0-110.0","sub-14_ses-01_2","","","","set_stims","","","","","","","","","","","","","","","",""
"-1","-1","poldrack-single-stim","190","257885","0.0-111.0","sub-14_ses-01_2","","900","0","cue","","<div class = upperbox><div class = ""center-text"" >Amplitude</div></div><div class = lowerbox><div class = fixation>+</div></div>","none","900","test","Amplitude","orange","6","magnitude","stay","stay","33","","","",""
"398","71","poldrack-single-stim","191","260165","0.0-112.0","sub-14_ses-01_2","","2272","0","stim","","<div class = upperbox><div class = ""center-text"" >Amplitude</div></div><div class = lowerbox><div class = ""stim-text"" style=color:orange;>6</div>","89,71","1000","test","Amplitude","orange","6","magnitude","stay","stay","33","true","71","",""
"","","call-function","192","260166","0.0-113.0","sub-14_ses-01_2","","","","set_stims","","","","","","","","","","","","","","","",""
"-1","-1","poldrack-single-stim","193","261085","0.0-114.0","sub-14_ses-01_2","","900","0","cue","","<div class = upperbox><div class = ""center-text"" >Amplitude</div></div><div class = lowerbox><div class = fixation>+</div></div>","none","900","test","Amplitude","#1F45FC","6","magnitude","stay","stay","34","","","",""
"499","71","poldrack-single-stim","194","263235","0.0-115.0","sub-14_ses-01_2","","2136","0","stim","","<div class = upperbox><div class = ""center-text"" >Amplitude</div></div><div class = lowerbox><div class = ""stim-text"" style=color:#1F45FC;>6</div>","89,71","1000","test","Amplitude","#1F45FC","6","magnitude","stay","stay","34","true","71","",""
"","","call-function","195","263237","0.0-116.0","sub-14_ses-01_2","","","","set_stims","","","","","","","","","","","","","","","",""
"-1","-1","poldrack-single-stim","196","264155","0.0-117.0","sub-14_ses-01_2","","900","0","cue","","<div class = upperbox><div class = ""center-text"" >Couleur</div></div><div class = lowerbox><div class = fixation>+</div></div>","none","900","test","Couleur","#1F45FC","8","color","switch","stay","35","","","",""
"354","71","poldrack-single-stim","197","266175","0.0-118.0","sub-14_ses-01_2","","2000","0","stim","","<div class = upperbox><div class = ""center-text"" >Couleur</div></div><div class = lowerbox><div class = ""stim-text"" style=color:#1F45FC;>8</div>","89,71","1000","test","Couleur","#1F45FC","8","color","switch","stay","35","true","71","",""
"","","call-function","198","266176","0.0-119.0","sub-14_ses-01_2","","","","set_stims","","","","","","","","","","","","","","","",""
"-1","-1","poldrack-single-stim","199","266296","0.0-120.0","sub-14_ses-01_2","","100","0","cue","","<div class = upperbox><div class = ""center-text"" >Haut-Bas</div></div><div class = lowerbox><div class = fixation>+</div></div>","none","100","test","Haut-Bas","orange","2","magnitude","switch","stay","36","","","",""
"689","89","poldrack-single-stim","200","268434","0.0-121.0","sub-14_ses-01_2","","2136","0","stim","","<div class = upperbox><div class = ""center-text"" >Haut-Bas</div></div><div class = lowerbox><div class = ""stim-text"" style=color:orange;>2</div>","89,71","1000","test","Haut-Bas","orange","2","magnitude","switch","stay","36","true","89","",""
"","","call-function","201","268436","0.0-122.0","sub-14_ses-01_2","","","","set_stims","","","","","","","","","","","","","","","",""
"-1","-1","poldrack-single-stim","202","268555","0.0-123.0","sub-14_ses-01_2","","100","0","cue","","<div class = upperbox><div class = ""center-text"" >Couleur</div></div><div class = lowerbox><div class = fixation>+</div></div>","none","100","test","Couleur","#1F45FC","3","color","switch","switch","37","","","",""
"670","71","poldrack-single-stim","203","271244","0.0-124.0","sub-14_ses-01_2","","2680","0","stim","","<div class = upperbox><div class = ""center-text"" >Couleur</div></div><div class = lowerbox><div class = ""stim-text"" style=color:#1F45FC;>3</div>","89,71","1000","test","Couleur","#1F45FC","3","color","switch","switch","37","true","71","",""
"","","call-function","204","271246","0.0-125.0","sub-14_ses-01_2","","","","set_stims","","","","","","","","","","","","","","","",""
"-1","-1","poldrack-single-stim","205","271365","0.0-126.0","sub-14_ses-01_2","","100","0","cue","","<div class = upperbox><div class = ""center-text"" >Amplitude</div></div><div class = lowerbox><div class = fixation>+</div></div>","none","100","test","Amplitude","#1F45FC","1","magnitude","switch","switch","38","","","",""
"714","89","poldrack-single-stim","206","273644","0.0-127.0","sub-14_ses-01_2","","2272","0","stim","","<div class = upperbox><div class = ""center-text"" >Amplitude</div></div><div class = lowerbox><div class = ""stim-text"" style=color:#1F45FC;>1</div>","89,71","1000","test","Amplitude","#1F45FC","1","magnitude","switch","switch","38","true","89","",""
"","","call-function","207","273645","0.0-128.0","sub-14_ses-01_2","","","","set_stims","","","","","","","","","","","","","","","",""
"-1","-1","poldrack-single-stim","208","274556","0.0-129.0","sub-14_ses-01_2","","900","0","cue","","<div class = upperbox><div class = ""center-text"" >Haut-Bas</div></div><div class = lowerbox><div class = fixation>+</div></div>","none","900","test","Haut-Bas","orange","7","magnitude","stay","switch","39","","","",""
"393","71","poldrack-single-stim","209","276573","0.0-130.0","sub-14_ses-01_2","","2000","0","stim","","<div class = upperbox><div class = ""center-text"" >Haut-Bas</div></div><div class = lowerbox><div class = ""stim-text"" style=color:orange;>7</div>","89,71","1000","test","Haut-Bas","orange","7","magnitude","stay","switch","39","true","71","",""
"","","call-function","210","276573","0.0-131.0","sub-14_ses-01_2","","","","set_stims","","","","","","","","","","","","","","","",""
"-1","-1","poldrack-single-stim","211","276694","0.0-132.0","sub-14_ses-01_2","","100","0","cue","","<div class = upperbox><div class = ""center-text"" >Orange-Bleu</div></div><div class = lowerbox><div class = fixation>+</div></div>","none","100","test","Orange-Bleu","orange","1","color","switch","switch","40","","","",""
"665","89","poldrack-single-stim","212","278715","0.0-133.0","sub-14_ses-01_2","","2000","0","stim","","<div class = upperbox><div class = ""center-text"" >Orange-Bleu</div></div><div class = lowerbox><div class = ""stim-text"" style=color:orange;>1</div>","89,71","1000","test","Orange-Bleu","orange","1","color","switch","switch","40","true","89","",""
"","","call-function","213","278716","0.0-134.0","sub-14_ses-01_2","","","","set_stims","","","","","","","","","","","","","","","",""
"-1","-1","poldrack-single-stim","214","278835","0.0-135.0","sub-14_ses-01_2","","100","0","cue","","<div class = upperbox><div class = ""center-text"" >Orange-Bleu</div></div><div class = lowerbox><div class = fixation>+</div></div>","none","100","test","Orange-Bleu","orange","7","color","stay","stay","41","","","",""
"664","89","poldrack-single-stim","215","280986","0.0-136.0","sub-14_ses-01_2","","2136","0","stim","","<div class = upperbox><div class = ""center-text"" >Orange-Bleu</div></div><div class = lowerbox><div class = ""stim-text"" style=color:orange;>7</div>","89,71","1000","test","Orange-Bleu","orange","7","color","stay","stay","41","true","89","",""
"","","call-function","216","280987","0.0-137.0","sub-14_ses-01_2","","","","set_stims","","","","","","","","","","","","","","","",""
"-1","-1","poldrack-single-stim","217","281904","0.0-138.0","sub-14_ses-01_2","","900","0","cue","","<div class = upperbox><div class = ""center-text"" >Orange-Bleu</div></div><div class = lowerbox><div class = fixation>+</div></div>","none","900","test","Orange-Bleu","#1F45FC","7","color","stay","stay","42","","","",""
"278","71","poldrack-single-stim","218","283925","0.0-139.0","sub-14_ses-01_2","","2000","0","stim","","<div class = upperbox><div class = ""center-text"" >Orange-Bleu</div></div><div class = lowerbox><div class = ""stim-text"" style=color:#1F45FC;>7</div>","89,71","1000","test","Orange-Bleu","#1F45FC","7","color","stay","stay","42","true","71","",""
"","","call-function","219","283925","0.0-140.0","sub-14_ses-01_2","","","","set_stims","","","","","","","","","","","","","","","",""
"-1","-1","poldrack-single-stim","220","284835","0.0-141.0","sub-14_ses-01_2","","900","0","cue","","<div class = upperbox><div class = ""center-text"" >Orange-Bleu</div></div><div class = lowerbox><div class = fixation>+</div></div>","none","900","test","Orange-Bleu","#1F45FC","7","color","stay","stay","43","","","",""
"803","71","poldrack-single-stim","221","286845","0.0-142.0","sub-14_ses-01_2","","2000","0","stim","","<div class = upperbox><div class = ""center-text"" >Orange-Bleu</div></div><div class = lowerbox><div class = ""stim-text"" style=color:#1F45FC;>7</div>","89,71","1000","test","Orange-Bleu","#1F45FC","7","color","stay","stay","43","true","71","",""
"","","call-function","222","286846","0.0-143.0","sub-14_ses-01_2","","","","set_stims","","","","","","","","","","","","","","","",""
"-1","-1","poldrack-single-stim","223","287766","0.0-144.0","sub-14_ses-01_2","","900","0","cue","","<div class = upperbox><div class = ""center-text"" >Couleur</div></div><div class = lowerbox><div class = fixation>+</div></div>","none","900","test","Couleur","#1F45FC","4","color","stay","switch","44","","","",""
"347","71","poldrack-single-stim","224","289784","0.0-145.0","sub-14_ses-01_2","","2000","0","stim","","<div class = upperbox><div class = ""center-text"" >Couleur</div></div><div class = lowerbox><div class = ""stim-text"" style=color:#1F45FC;>4</div>","89,71","1000","test","Couleur","#1F45FC","4","color","stay","switch","44","true","71","",""
"","","call-function","225","289784","0.0-146.0","sub-14_ses-01_2","","","","set_stims","","","","","","","","","","","","","","","",""
"-1","-1","poldrack-single-stim","226","289904","0.0-147.0","sub-14_ses-01_2","","100","0","cue","","<div class = upperbox><div class = ""center-text"" >Amplitude</div></div><div class = lowerbox><div class = fixation>+</div></div>","none","100","test","Amplitude","orange","6","magnitude","switch","switch","45","","","",""
"703","71","poldrack-single-stim","227","292189","0.0-148.0","sub-14_ses-01_2","","2272","0","stim","","<div class = upperbox><div class = ""center-text"" >Amplitude</div></div><div class = lowerbox><div class = ""stim-text"" style=color:orange;>6</div>","89,71","1000","test","Amplitude","orange","6","magnitude","switch","switch","45","true","71","",""
"","","call-function","228","292190","0.0-149.0","sub-14_ses-01_2","","","","set_stims","","","","","","","","","","","","","","","",""
"-1","-1","poldrack-single-stim","229","292306","0.0-150.0","sub-14_ses-01_2","","100","0","cue","","<div class = upperbox><div class = ""center-text"" >Orange-Bleu</div></div><div class = lowerbox><div class = fixation>+</div></div>","none","100","test","Orange-Bleu","orange","7","color","switch","stay","46","","","",""
"705","89","poldrack-single-stim","230","294734","0.0-151.0","sub-14_ses-01_2","","2408","0","stim","","<div class = upperbox><div class = ""center-text"" >Orange-Bleu</div></div><div class = lowerbox><div class = ""stim-text"" style=color:orange;>7</div>","89,71","1000","test","Orange-Bleu","orange","7","color","switch","stay","46","true","89","",""
"","","call-function","231","294736","0.0-152.0","sub-14_ses-01_2","","","","set_stims","","","","","","","","","","","","","","","",""
"-1","-1","poldrack-single-stim","232","295655","0.0-153.0","sub-14_ses-01_2","","900","0","cue","","<div class = upperbox><div class = ""center-text"" >Orange-Bleu</div></div><div class = lowerbox><div class = fixation>+</div></div>","none","900","test","Orange-Bleu","orange","3","color","stay","stay","47","","","",""
"419","89","poldrack-single-stim","233","297675","0.0-154.0","sub-14_ses-01_2","","2000","0","stim","","<div class = upperbox><div class = ""center-text"" >Orange-Bleu</div></div><div class = lowerbox><div class = ""stim-text"" style=color:orange;>3</div>","89,71","1000","test","Orange-Bleu","orange","3","color","stay","stay","47","true","89","",""
"","","call-function","234","297676","0.0-155.0","sub-14_ses-01_2","","","","set_stims","","","","","","","","","","","","","","","",""
"-1","-1","poldrack-single-stim","235","298594","0.0-156.0","sub-14_ses-01_2","","900","0","cue","","<div class = upperbox><div class = ""center-text"" >Orange-Bleu</div></div><div class = lowerbox><div class = fixation>+</div></div>","none","900","test","Orange-Bleu","orange","4","color","stay","stay","48","","","",""
"457","89","poldrack-single-stim","236","300614","0.0-157.0","sub-14_ses-01_2","","2000","0","stim","","<div class = upperbox><div class = ""center-text"" >Orange-Bleu</div></div><div class = lowerbox><div class = ""stim-text"" style=color:orange;>4</div>","89,71","1000","test","Orange-Bleu","orange","4","color","stay","stay","48","true","89","",""
"","","call-function","237","300615","0.0-158.0","sub-14_ses-01_2","","","","set_stims","","","","","","","","","","","","","","","",""
"-1","-1","poldrack-single-stim","238","300735","0.0-159.0","sub-14_ses-01_2","","100","0","cue","","<div class = upperbox><div class = ""center-text"" >Amplitude</div></div><div class = lowerbox><div class = fixation>+</div></div>","none","100","test","Amplitude","#1F45FC","7","magnitude","switch","switch","49","","","",""
"816","71","poldrack-single-stim","239","302754","0.0-160.0","sub-14_ses-01_2","","2000","0","stim","","<div class = upperbox><div class = ""center-text"" >Amplitude</div></div><div class = lowerbox><div class = ""stim-text"" style=color:#1F45FC;>7</div>","89,71","1000","test","Amplitude","#1F45FC","7","magnitude","switch","switch","49","true","71","",""
"","","call-function","240","302755","0.0-161.0","sub-14_ses-01_2","","","","set_stims","","","","","","","","","","","","","","","",""
"-1","-1","poldrack-single-stim","241","302875","0.0-162.0","sub-14_ses-01_2","","100","0","cue","","<div class = upperbox><div class = ""center-text"" >Orange-Bleu</div></div><div class = lowerbox><div class = fixation>+</div></div>","none","100","test","Orange-Bleu","#1F45FC","1","color","switch","switch","50","","","",""
"814","71","poldrack-single-stim","242","305164","0.0-163.0","sub-14_ses-01_2","","2272","0","stim","","<div class = upperbox><div class = ""center-text"" >Orange-Bleu</div></div><div class = lowerbox><div class = ""stim-text"" style=color:#1F45FC;>1</div>","89,71","1000","test","Orange-Bleu","#1F45FC","1","color","switch","switch","50","true","71","",""
"","","call-function","243","305164","0.0-164.0","sub-14_ses-01_2","","","","set_stims","","","","","","","","","","","","","","","",""
"-1","-1","poldrack-single-stim","244","306084","0.0-165.0","sub-14_ses-01_2","","900","0","cue","","<div class = upperbox><div class = ""center-text"" >Orange-Bleu</div></div><div class = lowerbox><div class = fixation>+</div></div>","none","900","test","Orange-Bleu","#1F45FC","9","color","stay","stay","51","","","",""
"512","71","poldrack-single-stim","245","308234","0.0-166.0","sub-14_ses-01_2","","2136","0","stim","","<div class = upperbox><div class = ""center-text"" >Orange-Bleu</div></div><div class = lowerbox><div class = ""stim-text"" style=color:#1F45FC;>9</div>","89,71","1000","test","Orange-Bleu","#1F45FC","9","color","stay","stay","51","true","71","",""
"","","call-function","246","308234","0.0-167.0","sub-14_ses-01_2","","","","set_stims","","","","","","","","","","","","","","","",""
"-1","-1","poldrack-single-stim","247","309154","0.0-168.0","sub-14_ses-01_2","","900","0","cue","","<div class = upperbox><div class = ""center-text"" >Amplitude</div></div><div class = lowerbox><div class = fixation>+</div></div>","none","900","test","Amplitude","#1F45FC","4","magnitude","switch","switch","52","","","",""
"457","89","poldrack-single-stim","248","311174","0.0-169.0","sub-14_ses-01_2","","2000","0","stim","","<div class = upperbox><div class = ""center-text"" >Amplitude</div></div><div class = lowerbox><div class = ""stim-text"" style=color:#1F45FC;>4</div>","89,71","1000","test","Amplitude","#1F45FC","4","magnitude","switch","switch","52","true","89","",""
"","","call-function","249","311174","0.0-170.0","sub-14_ses-01_2","","","","set_stims","","","","","","","","","","","","","","","",""
"-1","-1","poldrack-single-stim","250","311293","0.0-171.0","sub-14_ses-01_2","","100","0","cue","","<div class = upperbox><div class = ""center-text"" >Haut-Bas</div></div><div class = lowerbox><div class = fixation>+</div></div>","none","100","test","Haut-Bas","orange","1","magnitude","stay","switch","53","","","",""
"682","89","poldrack-single-stim","251","313855","0.0-172.0","sub-14_ses-01_2","","2544","0","stim","","<div class = upperbox><div class = ""center-text"" >Haut-Bas</div></div><div class = lowerbox><div class = ""stim-text"" style=color:orange;>1</div>","89,71","1000","test","Haut-Bas","orange","1","magnitude","stay","switch","53","true","89","",""
"","","call-function","252","313855","0.0-173.0","sub-14_ses-01_2","","","","set_stims","","","","","","","","","","","","","","","",""
"-1","-1","poldrack-single-stim","253","314766","0.0-174.0","sub-14_ses-01_2","","900","0","cue","","<div class = upperbox><div class = ""center-text"" >Orange-Bleu</div></div><div class = lowerbox><div class = fixation>+</div></div>","none","900","test","Orange-Bleu","orange","3","color","switch","stay","54","","","",""
"589","89","poldrack-single-stim","254","317043","0.0-175.0","sub-14_ses-01_2","","2272","0","stim","","<div class = upperbox><div class = ""center-text"" >Orange-Bleu</div></div><div class = lowerbox><div class = ""stim-text"" style=color:orange;>3</div>","89,71","1000","test","Orange-Bleu","orange","3","color","switch","stay","54","true","89","",""
"","","call-function","255","317044","0.0-176.0","sub-14_ses-01_2","","","","set_stims","","","","","","","","","","","","","","","",""
"-1","-1","poldrack-single-stim","256","317965","0.0-177.0","sub-14_ses-01_2","","900","0","cue","","<div class = upperbox><div class = ""center-text"" >Orange-Bleu</div></div><div class = lowerbox><div class = fixation>+</div></div>","none","900","test","Orange-Bleu","#1F45FC","1","color","stay","stay","55","","","",""
"715","71","poldrack-single-stim","257","320255","0.0-178.0","sub-14_ses-01_2","","2272","0","stim","","<div class = upperbox><div class = ""center-text"" >Orange-Bleu</div></div><div class = lowerbox><div class = ""stim-text"" style=color:#1F45FC;>1</div>","89,71","1000","test","Orange-Bleu","#1F45FC","1","color","stay","stay","55","true","71","",""
"","","call-function","258","320256","0.0-179.0","sub-14_ses-01_2","","","","set_stims","","","","","","","","","","","","","","","",""
"-1","-1","poldrack-single-stim","259","320375","0.0-180.0","sub-14_ses-01_2","","100","0","cue","","<div class = upperbox><div class = ""center-text"" >Couleur</div></div><div class = lowerbox><div class = fixation>+</div></div>","none","100","test","Couleur","orange","4","color","stay","switch","56","","","",""
"673","89","poldrack-single-stim","260","322394","0.0-181.0","sub-14_ses-01_2","","2000","0","stim","","<div class = upperbox><div class = ""center-text"" >Couleur</div></div><div class = lowerbox><div class = ""stim-text"" style=color:orange;>4</div>","89,71","1000","test","Couleur","orange","4","color","stay","switch","56","true","89","",""
"","","call-function","261","322396","0.0-182.0","sub-14_ses-01_2","","","","set_stims","","","","","","","","","","","","","","","",""
"-1","-1","poldrack-single-stim","262","322515","0.0-183.0","sub-14_ses-01_2","","100","0","cue","","<div class = upperbox><div class = ""center-text"" >Couleur</div></div><div class = lowerbox><div class = fixation>+</div></div>","none","100","test","Couleur","#1F45FC","2","color","stay","stay","57","","","",""
"679","71","poldrack-single-stim","263","324524","0.0-184.0","sub-14_ses-01_2","","2000","0","stim","","<div class = upperbox><div class = ""center-text"" >Couleur</div></div><div class = lowerbox><div class = ""stim-text"" style=color:#1F45FC;>2</div>","89,71","1000","test","Couleur","#1F45FC","2","color","stay","stay","57","true","71","",""
"","","call-function","264","324525","0.0-185.0","sub-14_ses-01_2","","","","set_stims","","","","","","","","","","","","","","","",""
"-1","-1","poldrack-single-stim","265","325445","0.0-186.0","sub-14_ses-01_2","","900","0","cue","","<div class = upperbox><div class = ""center-text"" >Haut-Bas</div></div><div class = lowerbox><div class = fixation>+</div></div>","none","900","test","Haut-Bas","orange","2","magnitude","switch","switch","58","","","",""
"325","89","poldrack-single-stim","266","327584","0.0-187.0","sub-14_ses-01_2","","2136","0","stim","","<div class = upperbox><div class = ""center-text"" >Haut-Bas</div></div><div class = lowerbox><div class = ""stim-text"" style=color:orange;>2</div>","89,71","1000","test","Haut-Bas","orange","2","magnitude","switch","switch","58","true","89","",""
"","","call-function","267","327586","0.0-188.0","sub-14_ses-01_2","","","","set_stims","","","","","","","","","","","","","","","",""
"-1","-1","poldrack-single-stim","268","328506","0.0-189.0","sub-14_ses-01_2","","900","0","cue","","<div class = upperbox><div class = ""center-text"" >Orange-Bleu</div></div><div class = lowerbox><div class = fixation>+</div></div>","none","900","test","Orange-Bleu","#1F45FC","1","color","switch","switch","59","","","",""
"351","71","poldrack-single-stim","269","330515","0.0-190.0","sub-14_ses-01_2","","2000","0","stim","","<div class = upperbox><div class = ""center-text"" >Orange-Bleu</div></div><div class = lowerbox><div class = ""stim-text"" style=color:#1F45FC;>1</div>","89,71","1000","test","Orange-Bleu","#1F45FC","1","color","switch","switch","59","true","71","",""
"","","call-function","270","330516","0.0-191.0","sub-14_ses-01_2","","","","set_stims","","","","","","","","","","","","","","","",""
"-1","-1","poldrack-single-stim","271","331436","0.0-192.0","sub-14_ses-01_2","","900","0","cue","","<div class = upperbox><div class = ""center-text"" >Couleur</div></div><div class = lowerbox><div class = fixation>+</div></div>","none","900","test","Couleur","#1F45FC","8","color","stay","switch","60","","","",""
"312","71","poldrack-single-stim","272","333574","0.0-193.0","sub-14_ses-01_2","","2136","0","stim","","<div class = upperbox><div class = ""center-text"" >Couleur</div></div><div class = lowerbox><div class = ""stim-text"" style=color:#1F45FC;>8</div>","89,71","1000","test","Couleur","#1F45FC","8","color","stay","switch","60","true","71","",""
"","","call-function","273","333574","0.0-194.0","sub-14_ses-01_2","","","","set_stims","","","","","","","","","","","","","","","",""
"-1","-1","poldrack-single-stim","274","333695","0.0-195.0","sub-14_ses-01_2","","100","0","cue","","<div class = upperbox><div class = ""center-text"" >Amplitude</div></div><div class = lowerbox><div class = fixation>+</div></div>","none","100","test","Amplitude","orange","3","magnitude","switch","stay","61","","","",""
"684","89","poldrack-single-stim","275","335974","0.0-196.0","sub-14_ses-01_2","","2272","0","stim","","<div class = upperbox><div class = ""center-text"" >Amplitude</div></div><div class = lowerbox><div class = ""stim-text"" style=color:orange;>3</div>","89,71","1000","test","Amplitude","orange","3","magnitude","switch","stay","61","true","89","",""
"","","call-function","276","335976","0.0-197.0","sub-14_ses-01_2","","","","set_stims","","","","","","","","","","","","","","","",""
"-1","-1","poldrack-single-stim","277","336886","0.0-198.0","sub-14_ses-01_2","","900","0","cue","","<div class = upperbox><div class = ""center-text"" >Couleur</div></div><div class = lowerbox><div class = fixation>+</div></div>","none","900","test","Couleur","orange","3","color","switch","stay","62","","","",""
"402","89","poldrack-single-stim","278","339025","0.0-199.0","sub-14_ses-01_2","","2136","0","stim","","<div class = upperbox><div class = ""center-text"" >Couleur</div></div><div class = lowerbox><div class = ""stim-text"" style=color:orange;>3</div>","89,71","1000","test","Couleur","orange","3","color","switch","stay","62","true","89","",""
"","","call-function","279","339026","0.0-200.0","sub-14_ses-01_2","","","","set_stims","","","","","","","","","","","","","","","",""
"-1","-1","poldrack-single-stim","280","339145","0.0-201.0","sub-14_ses-01_2","","100","0","cue","","<div class = upperbox><div class = ""center-text"" >Couleur</div></div><div class = lowerbox><div class = fixation>+</div></div>","none","100","test","Couleur","orange","3","color","stay","stay","63","","","",""
"561","89","poldrack-single-stim","281","341434","0.0-202.0","sub-14_ses-01_2","","2272","0","stim","","<div class = upperbox><div class = ""center-text"" >Couleur</div></div><div class = lowerbox><div class = ""stim-text"" style=color:orange;>3</div>","89,71","1000","test","Couleur","orange","3","color","stay","stay","63","true","89","",""
"","","call-function","282","341435","0.0-203.0","sub-14_ses-01_2","","","","set_stims","","","","","","","","","","","","","","","",""
"-1","-1","poldrack-single-stim","283","341554","0.0-204.0","sub-14_ses-01_2","","100","0","cue","","<div class = upperbox><div class = ""center-text"" >Amplitude</div></div><div class = lowerbox><div class = fixation>+</div></div>","none","100","test","Amplitude","orange","3","magnitude","switch","stay","64","","","",""
"847","89","poldrack-single-stim","284","343566","0.0-205.0","sub-14_ses-01_2","","2000","0","stim","","<div class = upperbox><div class = ""center-text"" >Amplitude</div></div><div class = lowerbox><div class = ""stim-text"" style=color:orange;>3</div>","89,71","1000","test","Amplitude","orange","3","magnitude","switch","stay","64","true","89","",""
"","","call-function","285","343567","0.0-206.0","sub-14_ses-01_2","","","","set_stims","","","","","","","","","","","","","","","",""
"-1","-1","poldrack-single-stim","286","343685","0.0-207.0","sub-14_ses-01_2","","100","0","cue","","<div class = upperbox><div class = ""center-text"" >Amplitude</div></div><div class = lowerbox><div class = fixation>+</div></div>","none","100","test","Amplitude","orange","3","magnitude","stay","stay","65","","","",""
"572","89","poldrack-single-stim","287","346505","0.0-208.0","sub-14_ses-01_2","","2816","0","stim","","<div class = upperbox><div class = ""center-text"" >Amplitude</div></div><div class = lowerbox><div class = ""stim-text"" style=color:orange;>3</div>","89,71","1000","test","Amplitude","orange","3","magnitude","stay","stay","65","true","89","",""
"","","call-function","288","346506","0.0-209.0","sub-14_ses-01_2","","","","set_stims","","","","","","","","","","","","","","","",""
"-1","-1","poldrack-single-stim","289","347425","0.0-210.0","sub-14_ses-01_2","","900","0","cue","","<div class = upperbox><div class = ""center-text"" >Haut-Bas</div></div><div class = lowerbox><div class = fixation>+</div></div>","none","900","test","Haut-Bas","orange","1","magnitude","stay","switch","66","","","",""
"392","89","poldrack-single-stim","290","349845","0.0-211.0","sub-14_ses-01_2","","2408","0","stim","","<div class = upperbox><div class = ""center-text"" >Haut-Bas</div></div><div class = lowerbox><div class = ""stim-text"" style=color:orange;>1</div>","89,71","1000","test","Haut-Bas","orange","1","magnitude","stay","switch","66","true","89","",""
"","","call-function","291","349846","0.0-212.0","sub-14_ses-01_2","","","","set_stims","","","","","","","","","","","","","","","",""
"-1","-1","poldrack-single-stim","292","349964","0.0-213.0","sub-14_ses-01_2","","100","0","cue","","<div class = upperbox><div class = ""center-text"" >Haut-Bas</div></div><div class = lowerbox><div class = fixation>+</div></div>","none","100","test","Haut-Bas","orange","4","magnitude","stay","stay","67","","","",""
"738","89","poldrack-single-stim","293","351985","0.0-214.0","sub-14_ses-01_2","","2000","0","stim","","<div class = upperbox><div class = ""center-text"" >Haut-Bas</div></div><div class = lowerbox><div class = ""stim-text"" style=color:orange;>4</div>","89,71","1000","test","Haut-Bas","orange","4","magnitude","stay","stay","67","true","89","",""
"","","call-function","294","351986","0.0-215.0","sub-14_ses-01_2","","","","set_stims","","","","","","","","","","","","","","","",""
"-1","-1","poldrack-single-stim","295","352895","0.0-216.0","sub-14_ses-01_2","","900","0","cue","","<div class = upperbox><div class = ""center-text"" >Haut-Bas</div></div><div class = lowerbox><div class = fixation>+</div></div>","none","900","test","Haut-Bas","orange","4","magnitude","stay","stay","68","","","",""
"532","89","poldrack-single-stim","296","355455","0.0-217.0","sub-14_ses-01_2","","2544","0","stim","","<div class = upperbox><div class = ""center-text"" >Haut-Bas</div></div><div class = lowerbox><div class = ""stim-text"" style=color:orange;>4</div>","89,71","1000","test","Haut-Bas","orange","4","magnitude","stay","stay","68","true","89","",""
"","","call-function","297","355456","0.0-218.0","sub-14_ses-01_2","","","","set_stims","","","","","","","","","","","","","","","",""
"-1","-1","poldrack-single-stim","298","355575","0.0-219.0","sub-14_ses-01_2","","100","0","cue","","<div class = upperbox><div class = ""center-text"" >Orange-Bleu</div></div><div class = lowerbox><div class = fixation>+</div></div>","none","100","test","Orange-Bleu","#1F45FC","8","color","switch","switch","69","","","",""
"589","71","poldrack-single-stim","299","357724","0.0-220.0","sub-14_ses-01_2","","2136","0","stim","","<div class = upperbox><div class = ""center-text"" >Orange-Bleu</div></div><div class = lowerbox><div class = ""stim-text"" style=color:#1F45FC;>8</div>","89,71","1000","test","Orange-Bleu","#1F45FC","8","color","switch","switch","69","true","71","",""
"","","call-function","300","357726","0.0-221.0","sub-14_ses-01_2","","","","set_stims","","","","","","","","","","","","","","","",""
"-1","-1","poldrack-single-stim","301","357844","0.0-222.0","sub-14_ses-01_2","","100","0","cue","","<div class = upperbox><div class = ""center-text"" >Haut-Bas</div></div><div class = lowerbox><div class = fixation>+</div></div>","none","100","test","Haut-Bas","orange","8","magnitude","switch","stay","70","","","",""
"615","89","poldrack-single-stim","302","359854","0.0-223.0","sub-14_ses-01_2","","2000","0","stim","","<div class = upperbox><div class = ""center-text"" >Haut-Bas</div></div><div class = lowerbox><div class = ""stim-text"" style=color:orange;>8</div>","89,71","1000","test","Haut-Bas","orange","8","magnitude","switch","stay","70","false","71","",""
"","","call-function","303","359856","0.0-224.0","sub-14_ses-01_2","","","","set_stims","","","","","","","","","","","","","","","",""
"-1","-1","poldrack-single-stim","304","360775","0.0-225.0","sub-14_ses-01_2","","900","0","cue","","<div class = upperbox><div class = ""center-text"" >Haut-Bas</div></div><div class = lowerbox><div class = fixation>+</div></div>","none","900","test","Haut-Bas","orange","9","magnitude","stay","stay","71","","","",""
"702","71","poldrack-single-stim","305","362795","0.0-226.0","sub-14_ses-01_2","","2000","0","stim","","<div class = upperbox><div class = ""center-text"" >Haut-Bas</div></div><div class = lowerbox><div class = ""stim-text"" style=color:orange;>9</div>","89,71","1000","test","Haut-Bas","orange","9","magnitude","stay","stay","71","true","71","",""
"","","call-function","306","362795","0.0-227.0","sub-14_ses-01_2","","","","set_stims","","","","","","","","","","","","","","","",""
"-1","-1","poldrack-single-stim","307","363715","0.0-228.0","sub-14_ses-01_2","","900","0","cue","","<div class = upperbox><div class = ""center-text"" >Amplitude</div></div><div class = lowerbox><div class = fixation>+</div></div>","none","900","test","Amplitude","#1F45FC","3","magnitude","stay","switch","72","","","",""
"475","89","poldrack-single-stim","308","365875","0.0-229.0","sub-14_ses-01_2","","2136","0","stim","","<div class = upperbox><div class = ""center-text"" >Amplitude</div></div><div class = lowerbox><div class = ""stim-text"" style=color:#1F45FC;>3</div>","89,71","1000","test","Amplitude","#1F45FC","3","magnitude","stay","switch","72","true","89","",""
"","","call-function","309","365877","0.0-230.0","sub-14_ses-01_2","","","","set_stims","","","","","","","","","","","","","","","",""
"-1","-1","poldrack-single-stim","310","366794","0.0-231.0","sub-14_ses-01_2","","900","0","cue","","<div class = upperbox><div class = ""center-text"" >Amplitude</div></div><div class = lowerbox><div class = fixation>+</div></div>","none","900","test","Amplitude","#1F45FC","6","magnitude","stay","stay","73","","","",""
"514","71","poldrack-single-stim","311","368934","0.0-232.0","sub-14_ses-01_2","","2136","0","stim","","<div class = upperbox><div class = ""center-text"" >Amplitude</div></div><div class = lowerbox><div class = ""stim-text"" style=color:#1F45FC;>6</div>","89,71","1000","test","Amplitude","#1F45FC","6","magnitude","stay","stay","73","true","71","",""
"","","call-function","312","368934","0.0-233.0","sub-14_ses-01_2","","","","set_stims","","","","","","","","","","","","","","","",""
"-1","-1","poldrack-single-stim","313","369053","0.0-234.0","sub-14_ses-01_2","","100","0","cue","","<div class = upperbox><div class = ""center-text"" >Orange-Bleu</div></div><div class = lowerbox><div class = fixation>+</div></div>","none","100","test","Orange-Bleu","#1F45FC","7","color","switch","stay","74","","","",""
"884","71","poldrack-single-stim","314","371334","0.0-235.0","sub-14_ses-01_2","","2272","0","stim","","<div class = upperbox><div class = ""center-text"" >Orange-Bleu</div></div><div class = lowerbox><div class = ""stim-text"" style=color:#1F45FC;>7</div>","89,71","1000","test","Orange-Bleu","#1F45FC","7","color","switch","stay","74","true","71","",""
"","","call-function","315","371335","0.0-236.0","sub-14_ses-01_2","","","","set_stims","","","","","","","","","","","","","","","",""
"-1","-1","poldrack-single-stim","316","372254","0.0-237.0","sub-14_ses-01_2","","900","0","cue","","<div class = upperbox><div class = ""center-text"" >Couleur</div></div><div class = lowerbox><div class = fixation>+</div></div>","none","900","test","Couleur","orange","3","color","stay","switch","75","","","",""
"416","89","poldrack-single-stim","317","375493","0.0-238.0","sub-14_ses-01_2","","3224","0","stim","","<div class = upperbox><div class = ""center-text"" >Couleur</div></div><div class = lowerbox><div class = ""stim-text"" style=color:orange;>3</div>","89,71","1000","test","Couleur","orange","3","color","stay","switch","75","true","89","",""
"","","call-function","318","375495","0.0-239.0","sub-14_ses-01_2","","","","set_stims","","","","","","","","","","","","","","","",""
"-1","-1","poldrack-single-stim","319","375614","0.0-240.0","sub-14_ses-01_2","","100","0","cue","","<div class = upperbox><div class = ""center-text"" >Orange-Bleu</div></div><div class = lowerbox><div class = fixation>+</div></div>","none","100","test","Orange-Bleu","orange","6","color","stay","switch","76","","","",""
"1179","89","poldrack-single-stim","320","377634","0.0-241.0","sub-14_ses-01_2","","2000","0","stim","","<div class = upperbox><div class = ""center-text"" >Orange-Bleu</div></div><div class = lowerbox><div class = ""stim-text"" style=color:orange;>6</div>","89,71","1000","test","Orange-Bleu","orange","6","color","stay","switch","76","true","89","",""
"","","call-function","321","377636","0.0-242.0","sub-14_ses-01_2","","","","set_stims","","","","","","","","","","","","","","","",""
"-1","-1","poldrack-single-stim","322","378545","0.0-243.0","sub-14_ses-01_2","","900","0","cue","","<div class = upperbox><div class = ""center-text"" >Haut-Bas</div></div><div class = lowerbox><div class = fixation>+</div></div>","none","900","test","Haut-Bas","#1F45FC","2","magnitude","switch","switch","77","","","",""
"497","89","poldrack-single-stim","323","380565","0.0-244.0","sub-14_ses-01_2","","2000","0","stim","","<div class = upperbox><div class = ""center-text"" >Haut-Bas</div></div><div class = lowerbox><div class = ""stim-text"" style=color:#1F45FC;>2</div>","89,71","1000","test","Haut-Bas","#1F45FC","2","magnitude","switch","switch","77","true","89","",""
"","","call-function","324","380566","0.0-245.0","sub-14_ses-01_2","","","","set_stims","","","","","","","","","","","","","","","",""
"-1","-1","poldrack-single-stim","325","380685","0.0-246.0","sub-14_ses-01_2","","100","0","cue","","<div class = upperbox><div class = ""center-text"" >Couleur</div></div><div class = lowerbox><div class = fixation>+</div></div>","none","100","test","Couleur","orange","6","color","switch","stay","78","","","",""
"1122","89","poldrack-single-stim","326","382975","0.0-247.0","sub-14_ses-01_2","","2272","0","stim","","<div class = upperbox><div class = ""center-text"" >Couleur</div></div><div class = lowerbox><div class = ""stim-text"" style=color:orange;>6</div>","89,71","1000","test","Couleur","orange","6","color","switch","stay","78","true","89","",""
"","","call-function","327","382976","0.0-248.0","sub-14_ses-01_2","","","","set_stims","","","","","","","","","","","","","","","",""
"-1","-1","poldrack-single-stim","328","383095","0.0-249.0","sub-14_ses-01_2","","100","0","cue","","<div class = upperbox><div class = ""center-text"" >Amplitude</div></div><div class = lowerbox><div class = fixation>+</div></div>","none","100","test","Amplitude","#1F45FC","9","magnitude","switch","switch","79","","","",""
"810","71","poldrack-single-stim","329","385244","0.0-250.0","sub-14_ses-01_2","","2136","0","stim","","<div class = upperbox><div class = ""center-text"" >Amplitude</div></div><div class = lowerbox><div class = ""stim-text"" style=color:#1F45FC;>9</div>","89,71","1000","test","Amplitude","#1F45FC","9","magnitude","switch","switch","79","true","71","",""
"-1","-1","poldrack-single-stim","330","395260","0.0-251.0","sub-14_ses-01_2","","10000","1000","rest_block","","<div class = centerbox><div class = center-text>+</div></div>","none","10000","","","","","","","","","","","",""
"-1","-1","poldrack-single-stim","331","397776","0.0-252.0","sub-14_ses-01_2","","1500","500","test_start_block","","<div class = centerbox><div class = center-text>Preparez-vous!</p></div>","none","1500","","","","","","","","","","","",""
"-1","-1","poldrack-single-stim","332","398816","0.0-253.0","sub-14_ses-01_2","","500","0","fixation","","<div class = upperbox><div class = fixation>+</div></div><div class = lowerbox><div class = fixation>+</div></div>","none","500","test","","","","","","","","","","",""
"","","call-function","333","398817","0.0-254.0","sub-14_ses-01_2","","","","set_stims","","","","","","","","","","","","","","","",""
"-1","-1","poldrack-single-stim","334","399736","0.0-255.0","sub-14_ses-01_2","","900","0","cue","","<div class = upperbox><div class = ""center-text"" >Couleur</div></div><div class = lowerbox><div class = fixation>+</div></div>","none","900","test","Couleur","#1F45FC","4","color","stay","stay","0","","","",""
"423","71","poldrack-single-stim","335","401744","0.0-256.0","sub-14_ses-01_2","","2000","0","stim","","<div class = upperbox><div class = ""center-text"" >Couleur</div></div><div class = lowerbox><div class = ""stim-text"" style=color:#1F45FC;>4</div>","89,71","1000","test","Couleur","#1F45FC","4","color","stay","stay","0","true","71","",""
"","","call-function","336","401746","0.0-257.0","sub-14_ses-01_2","","","","set_stims","","","","","","","","","","","","","","","",""
"-1","-1","poldrack-single-stim","337","401865","0.0-258.0","sub-14_ses-01_2","","100","0","cue","","<div class = upperbox><div class = ""center-text"" >Amplitude</div></div><div class = lowerbox><div class = fixation>+</div></div>","none","100","test","Amplitude","orange","9","magnitude","switch","stay","1","","","",""
"964","71","poldrack-single-stim","338","403885","0.0-259.0","sub-14_ses-01_2","","2000","0","stim","","<div class = upperbox><div class = ""center-text"" >Amplitude</div></div><div class = lowerbox><div class = ""stim-text"" style=color:orange;>9</div>","89,71","1000","test","Amplitude","orange","9","magnitude","switch","stay","1","true","71","",""
"","","call-function","339","403886","0.0-260.0","sub-14_ses-01_2","","","","set_stims","","","","","","","","","","","","","","","",""
"-1","-1","poldrack-single-stim","340","404005","0.0-261.0","sub-14_ses-01_2","","100","0","cue","","<div class = upperbox><div class = ""center-text"" >Orange-Bleu</div></div><div class = lowerbox><div class = fixation>+</div></div>","none","100","test","Orange-Bleu","#1F45FC","7","color","switch","switch","2","","","",""
"740","71","poldrack-single-stim","341","406024","0.0-262.0","sub-14_ses-01_2","","2000","0","stim","","<div class = upperbox><div class = ""center-text"" >Orange-Bleu</div></div><div class = lowerbox><div class = ""stim-text"" style=color:#1F45FC;>7</div>","89,71","1000","test","Orange-Bleu","#1F45FC","7","color","switch","switch","2","true","71","",""
"","","call-function","342","406026","0.0-263.0","sub-14_ses-01_2","","","","set_stims","","","","","","","","","","","","","","","",""
"-1","-1","poldrack-single-stim","343","406946","0.0-264.0","sub-14_ses-01_2","","900","0","cue","","<div class = upperbox><div class = ""center-text"" >Haut-Bas</div></div><div class = lowerbox><div class = fixation>+</div></div>","none","900","test","Haut-Bas","#1F45FC","4","magnitude","switch","stay","3","","","",""
"411","89","poldrack-single-stim","344","409645","0.0-265.0","sub-14_ses-01_2","","2680","0","stim","","<div class = upperbox><div class = ""center-text"" >Haut-Bas</div></div><div class = lowerbox><div class = ""stim-text"" style=color:#1F45FC;>4</div>","89,71","1000","test","Haut-Bas","#1F45FC","4","magnitude","switch","stay","3","true","89","",""
"","","call-function","345","409645","0.0-266.0","sub-14_ses-01_2","","","","set_stims","","","","","","","","","","","","","","","",""
"-1","-1","poldrack-single-stim","346","410555","0.0-267.0","sub-14_ses-01_2","","900","0","cue","","<div class = upperbox><div class = ""center-text"" >Couleur</div></div><div class = lowerbox><div class = fixation>+</div></div>","none","900","test","Couleur","orange","9","color","switch","switch","4","","","",""
"968","89","poldrack-single-stim","347","412565","0.0-268.0","sub-14_ses-01_2","","2000","0","stim","","<div class = upperbox><div class = ""center-text"" >Couleur</div></div><div class = lowerbox><div class = ""stim-text"" style=color:orange;>9</div>","89,71","1000","test","Couleur","orange","9","color","switch","switch","4","true","89","",""
"","","call-function","348","412566","0.0-269.0","sub-14_ses-01_2","","","","set_stims","","","","","","","","","","","","","","","",""
"-1","-1","poldrack-single-stim","349","413475","0.0-270.0","sub-14_ses-01_2","","900","0","cue","","<div class = upperbox><div class = ""center-text"" >Couleur</div></div><div class = lowerbox><div class = fixation>+</div></div>","none","900","test","Couleur","#1F45FC","6","color","stay","stay","5","","","",""
"916","71","poldrack-single-stim","350","415764","0.0-271.0","sub-14_ses-01_2","","2272","0","stim","","<div class = upperbox><div class = ""center-text"" >Couleur</div></div><div class = lowerbox><div class = ""stim-text"" style=color:#1F45FC;>6</div>","89,71","1000","test","Couleur","#1F45FC","6","color","stay","stay","5","true","71","",""
"","","call-function","351","415766","0.0-272.0","sub-14_ses-01_2","","","","set_stims","","","","","","","","","","","","","","","",""
"-1","-1","poldrack-single-stim","352","416685","0.0-273.0","sub-14_ses-01_2","","900","0","cue","","<div class = upperbox><div class = ""center-text"" >Orange-Bleu</div></div><div class = lowerbox><div class = fixation>+</div></div>","none","900","test","Orange-Bleu","#1F45FC","4","color","stay","switch","6","","","",""
"354","71","poldrack-single-stim","353","418695","0.0-274.0","sub-14_ses-01_2","","2000","0","stim","","<div class = upperbox><div class = ""center-text"" >Orange-Bleu</div></div><div class = lowerbox><div class = ""stim-text"" style=color:#1F45FC;>4</div>","89,71","1000","test","Orange-Bleu","#1F45FC","4","color","stay","switch","6","true","71","",""
"","","call-function","354","418697","0.0-275.0","sub-14_ses-01_2","","","","set_stims","","","","","","","","","","","","","","","",""
"-1","-1","poldrack-single-stim","355","419616","0.0-276.0","sub-14_ses-01_2","","900","0","cue","","<div class = upperbox><div class = ""center-text"" >Couleur</div></div><div class = lowerbox><div class = fixation>+</div></div>","none","900","test","Couleur","orange","7","color","stay","switch","7","","","",""
"578","89","poldrack-single-stim","356","421904","0.0-277.0","sub-14_ses-01_2","","2272","0","stim","","<div class = upperbox><div class = ""center-text"" >Couleur</div></div><div class = lowerbox><div class = ""stim-text"" style=color:orange;>7</div>","89,71","1000","test","Couleur","orange","7","color","stay","switch","7","true","89","",""
"","","call-function","357","421906","0.0-278.0","sub-14_ses-01_2","","","","set_stims","","","","","","","","","","","","","","","",""
"-1","-1","poldrack-single-stim","358","422824","0.0-279.0","sub-14_ses-01_2","","900","0","cue","","<div class = upperbox><div class = ""center-text"" >Haut-Bas</div></div><div class = lowerbox><div class = fixation>+</div></div>","none","900","test","Haut-Bas","orange","8","magnitude","switch","stay","8","","","",""
"636","71","poldrack-single-stim","359","425782","0.0-280.0","sub-14_ses-01_2","","2952","0","stim","","<div class = upperbox><div class = ""center-text"" >Haut-Bas</div></div><div class = lowerbox><div class = ""stim-text"" style=color:orange;>8</div>","89,71","1000","test","Haut-Bas","orange","8","magnitude","switch","stay","8","true","71","",""
"","","call-function","360","425783","0.0-281.0","sub-14_ses-01_2","","","","set_stims","","","","","","","","","","","","","","","",""
"-1","-1","poldrack-single-stim","361","426706","0.0-282.0","sub-14_ses-01_2","","900","0","cue","","<div class = upperbox><div class = ""center-text"" >Orange-Bleu</div></div><div class = lowerbox><div class = fixation>+</div></div>","none","900","test","Orange-Bleu","orange","1","color","switch","switch","9","","","",""
"519","89","poldrack-single-stim","362","428725","0.0-283.0","sub-14_ses-01_2","","2000","0","stim","","<div class = upperbox><div class = ""center-text"" >Orange-Bleu</div></div><div class = lowerbox><div class = ""stim-text"" style=color:orange;>1</div>","89,71","1000","test","Orange-Bleu","orange","1","color","switch","switch","9","true","89","",""
"","","call-function","363","428726","0.0-284.0","sub-14_ses-01_2","","","","set_stims","","","","","","","","","","","","","","","",""
"-1","-1","poldrack-single-stim","364","428845","0.0-285.0","sub-14_ses-01_2","","100","0","cue","","<div class = upperbox><div class = ""center-text"" >Haut-Bas</div></div><div class = lowerbox><div class = fixation>+</div></div>","none","100","test","Haut-Bas","orange","4","magnitude","switch","stay","10","","","",""
"986","89","poldrack-single-stim","365","430853","0.0-286.0","sub-14_ses-01_2","","2000","0","stim","","<div class = upperbox><div class = ""center-text"" >Haut-Bas</div></div><div class = lowerbox><div class = ""stim-text"" style=color:orange;>4</div>","89,71","1000","test","Haut-Bas","orange","4","magnitude","switch","stay","10","true","89","",""
"","","call-function","366","430854","0.0-287.0","sub-14_ses-01_2","","","","set_stims","","","","","","","","","","","","","","","",""
"-1","-1","poldrack-single-stim","367","431775","0.0-288.0","sub-14_ses-01_2","","900","0","cue","","<div class = upperbox><div class = ""center-text"" >Amplitude</div></div><div class = lowerbox><div class = fixation>+</div></div>","none","900","test","Amplitude","#1F45FC","4","magnitude","stay","switch","11","","","",""
"449","89","poldrack-single-stim","368","433795","0.0-289.0","sub-14_ses-01_2","","2000","0","stim","","<div class = upperbox><div class = ""center-text"" >Amplitude</div></div><div class = lowerbox><div class = ""stim-text"" style=color:#1F45FC;>4</div>","89,71","1000","test","Amplitude","#1F45FC","4","magnitude","stay","switch","11","true","89","",""
"","","call-function","369","433795","0.0-290.0","sub-14_ses-01_2","","","","set_stims","","","","","","","","","","","","","","","",""
"-1","-1","poldrack-single-stim","370","433915","0.0-291.0","sub-14_ses-01_2","","100","0","cue","","<div class = upperbox><div class = ""center-text"" >Couleur</div></div><div class = lowerbox><div class = fixation>+</div></div>","none","100","test","Couleur","#1F45FC","2","color","switch","stay","12","","","",""
"815","71","poldrack-single-stim","371","435935","0.0-292.0","sub-14_ses-01_2","","2000","0","stim","","<div class = upperbox><div class = ""center-text"" >Couleur</div></div><div class = lowerbox><div class = ""stim-text"" style=color:#1F45FC;>2</div>","89,71","1000","test","Couleur","#1F45FC","2","color","switch","stay","12","true","71","",""
"","","call-function","372","435936","0.0-293.0","sub-14_ses-01_2","","","","set_stims","","","","","","","","","","","","","","","",""
"-1","-1","poldrack-single-stim","373","436855","0.0-294.0","sub-14_ses-01_2","","900","0","cue","","<div class = upperbox><div class = ""center-text"" >Amplitude</div></div><div class = lowerbox><div class = fixation>+</div></div>","none","900","test","Amplitude","#1F45FC","6","magnitude","switch","switch","13","","","",""
"847","71","poldrack-single-stim","374","438995","0.0-295.0","sub-14_ses-01_2","","2136","0","stim","","<div class = upperbox><div class = ""center-text"" >Amplitude</div></div><div class = lowerbox><div class = ""stim-text"" style=color:#1F45FC;>6</div>","89,71","1000","test","Amplitude","#1F45FC","6","magnitude","switch","switch","13","true","71","",""
"","","call-function","375","438996","0.0-296.0","sub-14_ses-01_2","","","","set_stims","","","","","","","","","","","","","","","",""
"-1","-1","poldrack-single-stim","376","439115","0.0-297.0","sub-14_ses-01_2","","100","0","cue","","<div class = upperbox><div class = ""center-text"" >Haut-Bas</div></div><div class = lowerbox><div class = fixation>+</div></div>","none","100","test","Haut-Bas","orange","1","magnitude","stay","switch","14","","","",""
