"rt","key_press","trial_type","trial_index","time_elapsed","internal_node_id","subject","text","block_duration","timing_post_trial","trial_id","stimulus","possible_responses","stim_duration","exp_stage","correct","correct_response","feedback_duration","flanker_middle_direction","flanker_type","flanker_location","cue","trial_num","exp_id"
"1173","13","text","0","1177","0.0-0.0","sub-14_ses-01_2","","","","","","","","","","","","","","","","",""
"431","89","poldrack-text","1","2622","0.0-1.0","sub-14_ses-01_2","<div class = centerbox><div style = 'font-size: 50px' class = center-text>Veuillez appuyer avec votre index</p></div>","431","500","fmri_response_test","","","","","","","","","","","","",""
"178","71","poldrack-text","2","3312","0.0-2.0","sub-14_ses-01_2","<div class = centerbox><div style = 'font-size: 50px' class = center-text>Veuillez appuyer avec votre majeur</p></div>","178","500","fmri_response_test","","","","","","","","","","","","",""
"4975","32","poldrack-single-stim","3","8806","0.0-3.0","sub-14_ses-01_2","","4975","500","instructions","<div class = centerbox><div class = center-text>Indiquez dans quelle direction la fleche centrale pointe.<br>Apuyez sur l'index (gauche) ou le majeur (droite).</div>","32","4975","","","","","","","","","",""
"-1","-1","poldrack-single-stim","4","9441","0.0-4.0-0.0","sub-14_ses-01_2","","100","0","doublecue","<div class = centerbox><div class = ANT_text>+</div></div><div class = ANT_down><div class = ANT_text>*</div></div><div class = ANT_up><div class = ANT_text>*</div><div></div>","none","100","practice","","","","","","","","",""
"-1","-1","poldrack-single-stim","5","9858","0.0-4.0-1.0","sub-14_ses-01_2","","400","0","fixation","<div class = centerbox><div class = ANT_text>+</div></div>","none","400","practice","","","","","","","","",""
"799","71","poldrack-categorize","6","12597","0.0-4.0-2.0","sub-14_ses-01_2","","1700","500","stim","<div class = centerbox><div class = ANT_text>+</div></div><div class = ANT_down><img class = ""ANT_img first"" src = /static/experiments/attention_network_task/images/right_arrow.png></img><img class = ANT_img src = /static/experiments/attention_network_task/images/right_arrow.png></img><img class = ANT_img src = /static/experiments/attention_network_task/images/right_arrow.png></img><img class = ANT_img src = /static/experiments/attention_network_task/images/right_arrow.png></img><img class = ANT_img src = /static/experiments/attention_network_task/images/right_arrow.png></img></div></div>","89,71","1700","practice","true","71","1000","right","congruent","down","double","",""
"-1","-1","poldrack-single-stim","7","13239","0.0-4.0-3.0","sub-14_ses-01_2","","100","0","doublecue","<div class = centerbox><div class = ANT_text>+</div></div><div class = ANT_down><div class = ANT_text>*</div></div><div class = ANT_up><div class = ANT_text>*</div><div></div>","none","100","practice","","","","","","","","",""
"-1","-1","poldrack-single-stim","8","13658","0.0-4.0-4.0","sub-14_ses-01_2","","400","0","fixation","<div class = centerbox><div class = ANT_text>+</div></div>","none","400","practice","","","","","","","","",""
"679","89","poldrack-categorize","9","16387","0.0-4.0-5.0","sub-14_ses-01_2","","1700","500","stim","<div class = centerbox><div class = ANT_text>+</div></div><div class = ANT_up><img class = ""ANT_img first"" src = /static/experiments/attention_network_task/images/right_arrow.png></img><img class = ANT_img src = /static/experiments/attention_network_task/images/right_arrow.png></img><img class = ANT_img src = /static/experiments/attention_network_task/images/left_arrow.png></img><img class = ANT_img src = /static/experiments/attention_network_task/images/right_arrow.png></img><img class = ANT_img src = /static/experiments/attention_network_task/images/right_arrow.png></img></div></div>","89,71","1700","practice","true","89","1000","left","incongruent","up","double","",""
"-1","-1","poldrack-single-stim","10","17028","0.0-4.0-6.0","sub-14_ses-01_2","","100","0","spatialcue","<div class = centerbox><div class = ANT_text>+</div></div><div class = centerbox><div class = ANT_down><div class = ANT_text>*</p></div></div>","none","100","practice","","","","","","","","",""
"-1","-1","poldrack-single-stim","11","17438","0.0-4.0-7.0","sub-14_ses-01_2","","400","0","fixation","<div class = centerbox><div class = ANT_text>+</div></div>","none","400","practice","","","","","","","","",""
"728","71","poldrack-categorize","12","20157","0.0-4.0-8.0","sub-14_ses-01_2","","1700","500","stim","<div class = centerbox><div class = ANT_text>+</div></div><div class = ANT_down><img class = ""ANT_img first"" src = /static/experiments/attention_network_task/images/left_arrow.png></img><img class = ANT_img src = /static/experiments/attention_network_task/images/left_arrow.png></img><img class = ANT_img src = /static/experiments/attention_network_task/images/right_arrow.png></img><img class = ANT_img src = /static/experiments/attention_network_task/images/left_arrow.png></img><img class = ANT_img src = /static/experiments/attention_network_task/images/left_arrow.png></img></div></div>","89,71","1700","practice","true","71","1000","right","incongruent","down","spatial","",""
"-1","-1","poldrack-single-stim","13","20799","0.0-4.0-9.0","sub-14_ses-01_2","","100","0","spatialcue","<div class = centerbox><div class = ANT_text>+</div></div><div class = centerbox><div class = ANT_down><div class = ANT_text>*</p></div></div>","none","100","practice","","","","","","","","",""
"-1","-1","poldrack-single-stim","14","21219","0.0-4.0-10.0","sub-14_ses-01_2","","400","0","fixation","<div class = centerbox><div class = ANT_text>+</div></div>","none","400","practice","","","","","","","","",""
"626","89","poldrack-categorize","15","23958","0.0-4.0-11.0","sub-14_ses-01_2","","1700","500","stim","<div class = centerbox><div class = ANT_text>+</div></div><div class = ANT_down><img class = ""ANT_img first"" src = /static/experiments/attention_network_task/images/left_arrow.png></img><img class = ANT_img src = /static/experiments/attention_network_task/images/left_arrow.png></img><img class = ANT_img src = /static/experiments/attention_network_task/images/left_arrow.png></img><img class = ANT_img src = /static/experiments/attention_network_task/images/left_arrow.png></img><img class = ANT_img src = /static/experiments/attention_network_task/images/left_arrow.png></img></div></div>","89,71","1700","practice","true","89","1000","left","congruent","down","spatial","",""
"-1","-1","poldrack-single-stim","16","24587","0.0-4.0-12.0","sub-14_ses-01_2","","100","0","spatialcue","<div class = centerbox><div class = ANT_text>+</div></div><div class = centerbox><div class = ANT_up><div class = ANT_text>*</p></div></div>","none","100","practice","","","","","","","","",""
"-1","-1","poldrack-single-stim","17","25008","0.0-4.0-13.0","sub-14_ses-01_2","","400","0","fixation","<div class = centerbox><div class = ANT_text>+</div></div>","none","400","practice","","","","","","","","",""
"870","71","poldrack-categorize","18","27747","0.0-4.0-14.0","sub-14_ses-01_2","","1700","500","stim","<div class = centerbox><div class = ANT_text>+</div></div><div class = ANT_up><img class = ""ANT_img first"" src = /static/experiments/attention_network_task/images/left_arrow.png></img><img class = ANT_img src = /static/experiments/attention_network_task/images/left_arrow.png></img><img class = ANT_img src = /static/experiments/attention_network_task/images/right_arrow.png></img><img class = ANT_img src = /static/experiments/attention_network_task/images/left_arrow.png></img><img class = ANT_img src = /static/experiments/attention_network_task/images/left_arrow.png></img></div></div>","89,71","1700","practice","true","71","1000","right","incongruent","up","spatial","",""
"-1","-1","poldrack-single-stim","19","28387","0.0-4.0-15.0","sub-14_ses-01_2","","100","0","spatialcue","<div class = centerbox><div class = ANT_text>+</div></div><div class = centerbox><div class = ANT_up><div class = ANT_text>*</p></div></div>","none","100","practice","","","","","","","","",""
"-1","-1","poldrack-single-stim","20","28808","0.0-4.0-16.0","sub-14_ses-01_2","","400","0","fixation","<div class = centerbox><div class = ANT_text>+</div></div>","none","400","practice","","","","","","","","",""
"810","89","poldrack-categorize","21","31547","0.0-4.0-17.0","sub-14_ses-01_2","","1700","500","stim","<div class = centerbox><div class = ANT_text>+</div></div><div class = ANT_up><img class = ""ANT_img first"" src = /static/experiments/attention_network_task/images/right_arrow.png></img><img class = ANT_img src = /static/experiments/attention_network_task/images/right_arrow.png></img><img class = ANT_img src = /static/experiments/attention_network_task/images/left_arrow.png></img><img class = ANT_img src = /static/experiments/attention_network_task/images/right_arrow.png></img><img class = ANT_img src = /static/experiments/attention_network_task/images/right_arrow.png></img></div></div>","89,71","1700","practice","true","89","1000","left","incongruent","up","spatial","",""
"-1","-1","poldrack-single-stim","22","32187","0.0-4.0-18.0","sub-14_ses-01_2","","100","0","spatialcue","<div class = centerbox><div class = ANT_text>+</div></div><div class = centerbox><div class = ANT_down><div class = ANT_text>*</p></div></div>","none","100","practice","","","","","","","","",""
"-1","-1","poldrack-single-stim","23","32608","0.0-4.0-19.0","sub-14_ses-01_2","","400","0","fixation","<div class = centerbox><div class = ANT_text>+</div></div>","none","400","practice","","","","","","","","",""
"770","71","poldrack-categorize","24","35347","0.0-4.0-20.0","sub-14_ses-01_2","","1700","500","stim","<div class = centerbox><div class = ANT_text>+</div></div><div class = ANT_down><img class = ""ANT_img first"" src = /static/experiments/attention_network_task/images/right_arrow.png></img><img class = ANT_img src = /static/experiments/attention_network_task/images/right_arrow.png></img><img class = ANT_img src = /static/experiments/attention_network_task/images/right_arrow.png></img><img class = ANT_img src = /static/experiments/attention_network_task/images/right_arrow.png></img><img class = ANT_img src = /static/experiments/attention_network_task/images/right_arrow.png></img></div></div>","89,71","1700","practice","true","71","1000","right","congruent","down","spatial","",""
"-1","-1","poldrack-single-stim","25","35986","0.0-4.0-21.0","sub-14_ses-01_2","","100","0","spatialcue","<div class = centerbox><div class = ANT_text>+</div></div><div class = centerbox><div class = ANT_up><div class = ANT_text>*</p></div></div>","none","100","practice","","","","","","","","",""
"-1","-1","poldrack-single-stim","26","36408","0.0-4.0-22.0","sub-14_ses-01_2","","400","0","fixation","<div class = centerbox><div class = ANT_text>+</div></div>","none","400","practice","","","","","","","","",""
"727","89","poldrack-categorize","27","39147","0.0-4.0-23.0","sub-14_ses-01_2","","1700","500","stim","<div class = centerbox><div class = ANT_text>+</div></div><div class = ANT_up><img class = ""ANT_img first"" src = /static/experiments/attention_network_task/images/left_arrow.png></img><img class = ANT_img src = /static/experiments/attention_network_task/images/left_arrow.png></img><img class = ANT_img src = /static/experiments/attention_network_task/images/left_arrow.png></img><img class = ANT_img src = /static/experiments/attention_network_task/images/left_arrow.png></img><img class = ANT_img src = /static/experiments/attention_network_task/images/left_arrow.png></img></div></div>","89,71","1700","practice","true","89","1000","left","congruent","up","spatial","",""
"-1","-1","poldrack-single-stim","28","39778","0.0-4.0-24.0","sub-14_ses-01_2","","100","0","spatialcue","<div class = centerbox><div class = ANT_text>+</div></div><div class = centerbox><div class = ANT_up><div class = ANT_text>*</p></div></div>","none","100","practice","","","","","","","","",""
"-1","-1","poldrack-single-stim","29","40187","0.0-4.0-25.0","sub-14_ses-01_2","","400","0","fixation","<div class = centerbox><div class = ANT_text>+</div></div>","none","400","practice","","","","","","","","",""
"695","71","poldrack-categorize","30","42928","0.0-4.0-26.0","sub-14_ses-01_2","","1700","500","stim","<div class = centerbox><div class = ANT_text>+</div></div><div class = ANT_up><img class = ""ANT_img first"" src = /static/experiments/attention_network_task/images/right_arrow.png></img><img class = ANT_img src = /static/experiments/attention_network_task/images/right_arrow.png></img><img class = ANT_img src = /static/experiments/attention_network_task/images/right_arrow.png></img><img class = ANT_img src = /static/experiments/attention_network_task/images/right_arrow.png></img><img class = ANT_img src = /static/experiments/attention_network_task/images/right_arrow.png></img></div></div>","89,71","1700","practice","true","71","1000","right","congruent","up","spatial","",""
"-1","-1","poldrack-single-stim","31","43559","0.0-4.0-27.0","sub-14_ses-01_2","","100","0","doublecue","<div class = centerbox><div class = ANT_text>+</div></div><div class = ANT_down><div class = ANT_text>*</div></div><div class = ANT_up><div class = ANT_text>*</div><div></div>","none","100","practice","","","","","","","","",""
"-1","-1","poldrack-single-stim","32","43978","0.0-4.0-28.0","sub-14_ses-01_2","","400","0","fixation","<div class = centerbox><div class = ANT_text>+</div></div>","none","400","practice","","","","","","","","",""
"859","89","poldrack-categorize","33","46717","0.0-4.0-29.0","sub-14_ses-01_2","","1700","500","stim","<div class = centerbox><div class = ANT_text>+</div></div><div class = ANT_down><img class = ""ANT_img first"" src = /static/experiments/attention_network_task/images/right_arrow.png></img><img class = ANT_img src = /static/experiments/attention_network_task/images/right_arrow.png></img><img class = ANT_img src = /static/experiments/attention_network_task/images/left_arrow.png></img><img class = ANT_img src = /static/experiments/attention_network_task/images/right_arrow.png></img><img class = ANT_img src = /static/experiments/attention_network_task/images/right_arrow.png></img></div></div>","89,71","1700","practice","true","89","1000","left","incongruent","down","double","",""
"-1","-1","poldrack-single-stim","34","47357","0.0-4.0-30.0","sub-14_ses-01_2","","100","0","spatialcue","<div class = centerbox><div class = ANT_text>+</div></div><div class = centerbox><div class = ANT_down><div class = ANT_text>*</p></div></div>","none","100","practice","","","","","","","","",""
"-1","-1","poldrack-single-stim","35","47778","0.0-4.0-31.0","sub-14_ses-01_2","","400","0","fixation","<div class = centerbox><div class = ANT_text>+</div></div>","none","400","practice","","","","","","","","",""
"735","89","poldrack-categorize","36","50505","0.0-4.0-32.0","sub-14_ses-01_2","","1700","500","stim","<div class = centerbox><div class = ANT_text>+</div></div><div class = ANT_down><img class = ""ANT_img first"" src = /static/experiments/attention_network_task/images/right_arrow.png></img><img class = ANT_img src = /static/experiments/attention_network_task/images/right_arrow.png></img><img class = ANT_img src = /static/experiments/attention_network_task/images/left_arrow.png></img><img class = ANT_img src = /static/experiments/attention_network_task/images/right_arrow.png></img><img class = ANT_img src = /static/experiments/attention_network_task/images/right_arrow.png></img></div></div>","89,71","1700","practice","true","89","1000","left","incongruent","down","spatial","",""
"-1","-1","poldrack-single-stim","37","51128","0.0-4.0-33.0","sub-14_ses-01_2","","100","0","doublecue","<div class = centerbox><div class = ANT_text>+</div></div><div class = ANT_down><div class = ANT_text>*</div></div><div class = ANT_up><div class = ANT_text>*</div><div></div>","none","100","practice","","","","","","","","",""
"-1","-1","poldrack-single-stim","38","51547","0.0-4.0-34.0","sub-14_ses-01_2","","400","0","fixation","<div class = centerbox><div class = ANT_text>+</div></div>","none","400","practice","","","","","","","","",""
"875","71","poldrack-categorize","39","54286","0.0-4.0-35.0","sub-14_ses-01_2","","1700","500","stim","<div class = centerbox><div class = ANT_text>+</div></div><div class = ANT_up><img class = ""ANT_img first"" src = /static/experiments/attention_network_task/images/left_arrow.png></img><img class = ANT_img src = /static/experiments/attention_network_task/images/left_arrow.png></img><img class = ANT_img src = /static/experiments/attention_network_task/images/right_arrow.png></img><img class = ANT_img src = /static/experiments/attention_network_task/images/left_arrow.png></img><img class = ANT_img src = /static/experiments/attention_network_task/images/left_arrow.png></img></div></div>","89,71","1700","practice","true","71","1000","right","incongruent","up","double","",""
"1926","32","poldrack-text","40","56741","0.0-5.0","sub-14_ses-01_2","<div class = centerbox><div  class = center-text>Scanner Setup</div></div>","1926","0","fmri_scanner_wait","","","","","","","","","","","","",""
"55368","84","poldrack-text","41","112113","0.0-6.0","sub-14_ses-01_2","<div class = centerbox><div style='color:red'; class = center-text>+</div></div>","55368","0","fmri_trigger_wait","","","","","","","","","","","","",""
"-1","-1","poldrack-single-stim","42","113128","0.0-7.0","sub-14_ses-01_2","","1000","0","fmri_buffer","","none","1000","","","","","","","","","",""
"-1","-1","poldrack-single-stim","43","114639","0.0-8.0","sub-14_ses-01_2","","1500","500","test_start_block","<div class = centerbox><div class = center-text>Preparez-vous!</div></div>","none","1500","","","","","","","","","",""
"-1","-1","poldrack-single-stim","44","115278","0.0-9.0","sub-14_ses-01_2","","100","0","spatialcue","<div class = centerbox><div class = ANT_text>+</div></div><div class = centerbox><div class = ANT_up><div class = ANT_text>*</p></div></div>","none","100","test","","","","","","","","",""
"-1","-1","poldrack-single-stim","45","115698","0.0-10.0","sub-14_ses-01_2","","400","0","fixation","<div class = centerbox><div class = ANT_text>+</div></div>","none","400","test","","","","","","","","",""
"622","89","poldrack-single-stim","46","117817","0.0-11.0","sub-14_ses-01_2","","2100","0","stim","<div class = centerbox><div class = ANT_text>+</div></div><div class = ANT_up><img class = ""ANT_img first"" src = /static/experiments/attention_network_task/images/left_arrow.png></img><img class = ANT_img src = /static/experiments/attention_network_task/images/left_arrow.png></img><img class = ANT_img src = /static/experiments/attention_network_task/images/left_arrow.png></img><img class = ANT_img src = /static/experiments/attention_network_task/images/left_arrow.png></img><img class = ANT_img src = /static/experiments/attention_network_task/images/left_arrow.png></img></div></div>","89,71","1700","test","true","89","","left","congruent","up","spatial","0",""
"-1","-1","poldrack-single-stim","47","117926","0.0-12.0","sub-14_ses-01_2","","100","0","doublecue","<div class = centerbox><div class = ANT_text>+</div></div><div class = ANT_down><div class = ANT_text>*</div></div><div class = ANT_up><div class = ANT_text>*</div><div></div>","none","100","test","","","","","","","","",""
"-1","-1","poldrack-single-stim","48","118348","0.0-13.0","sub-14_ses-01_2","","400","0","fixation","<div class = centerbox><div class = ANT_text>+</div></div>","none","400","test","","","","","","","","",""
"675","89","poldrack-single-stim","49","120468","0.0-14.0","sub-14_ses-01_2","","2100.272","0","stim","<div class = centerbox><div class = ANT_text>+</div></div><div class = ANT_up><img class = ""ANT_img first"" src = /static/experiments/attention_network_task/images/right_arrow.png></img><img class = ANT_img src = /static/experiments/attention_network_task/images/right_arrow.png></img><img class = ANT_img src = /static/experiments/attention_network_task/images/left_arrow.png></img><img class = ANT_img src = /static/experiments/attention_network_task/images/right_arrow.png></img><img class = ANT_img src = /static/experiments/attention_network_task/images/right_arrow.png></img></div></div>","89,71","1700","test","true","89","","left","incongruent","up","double","1",""
"-1","-1","poldrack-single-stim","50","120589","0.0-15.0","sub-14_ses-01_2","","100","0","spatialcue","<div class = centerbox><div class = ANT_text>+</div></div><div class = centerbox><div class = ANT_up><div class = ANT_text>*</p></div></div>","none","100","test","","","","","","","","",""
"-1","-1","poldrack-single-stim","51","121008","0.0-16.0","sub-14_ses-01_2","","400","0","fixation","<div class = centerbox><div class = ANT_text>+</div></div>","none","400","test","","","","","","","","",""
"531","89","poldrack-single-stim","52","123128","0.0-17.0","sub-14_ses-01_2","","2100","0","stim","<div class = centerbox><div class = ANT_text>+</div></div><div class = ANT_up><img class = ""ANT_img first"" src = /static/experiments/attention_network_task/images/left_arrow.png></img><img class = ANT_img src = /static/experiments/attention_network_task/images/left_arrow.png></img><img class = ANT_img src = /static/experiments/attention_network_task/images/left_arrow.png></img><img class = ANT_img src = /static/experiments/attention_network_task/images/left_arrow.png></img><img class = ANT_img src = /static/experiments/attention_network_task/images/left_arrow.png></img></div></div>","89,71","1700","test","true","89","","left","congruent","up","spatial","2",""
"-1","-1","poldrack-single-stim","53","123246","0.0-18.0","sub-14_ses-01_2","","100","0","spatialcue","<div class = centerbox><div class = ANT_text>+</div></div><div class = centerbox><div class = ANT_up><div class = ANT_text>*</p></div></div>","none","100","test","","","","","","","","",""
"-1","-1","poldrack-single-stim","54","123667","0.0-19.0","sub-14_ses-01_2","","400","0","fixation","<div class = centerbox><div class = ANT_text>+</div></div>","none","400","test","","","","","","","","",""
"502","71","poldrack-single-stim","55","125788","0.0-20.0","sub-14_ses-01_2","","2100.136","0","stim","<div class = centerbox><div class = ANT_text>+</div></div><div class = ANT_up><img class = ""ANT_img first"" src = /static/experiments/attention_network_task/images/right_arrow.png></img><img class = ANT_img src = /static/experiments/attention_network_task/images/right_arrow.png></img><img class = ANT_img src = /static/experiments/attention_network_task/images/right_arrow.png></img><img class = ANT_img src = /static/experiments/attention_network_task/images/right_arrow.png></img><img class = ANT_img src = /static/experiments/attention_network_task/images/right_arrow.png></img></div></div>","89,71","1700","test","true","71","","right","congruent","up","spatial","3",""
"-1","-1","poldrack-single-stim","56","125907","0.0-21.0","sub-14_ses-01_2","","100","0","doublecue","<div class = centerbox><div class = ANT_text>+</div></div><div class = ANT_down><div class = ANT_text>*</div></div><div class = ANT_up><div class = ANT_text>*</div><div></div>","none","100","test","","","","","","","","",""
"-1","-1","poldrack-single-stim","57","126328","0.0-22.0","sub-14_ses-01_2","","400","0","fixation","<div class = centerbox><div class = ANT_text>+</div></div>","none","400","test","","","","","","","","",""
"520","71","poldrack-single-stim","58","128448","0.0-23.0","sub-14_ses-01_2","","2100.408","0","stim","<div class = centerbox><div class = ANT_text>+</div></div><div class = ANT_up><img class = ""ANT_img first"" src = /static/experiments/attention_network_task/images/left_arrow.png></img><img class = ANT_img src = /static/experiments/attention_network_task/images/left_arrow.png></img><img class = ANT_img src = /static/experiments/attention_network_task/images/right_arrow.png></img><img class = ANT_img src = /static/experiments/attention_network_task/images/left_arrow.png></img><img class = ANT_img src = /static/experiments/attention_network_task/images/left_arrow.png></img></div></div>","89,71","1700","test","true","71","","right","incongruent","up","double","4",""
"-1","-1","poldrack-single-stim","59","128568","0.0-24.0","sub-14_ses-01_2","","100","0","doublecue","<div class = centerbox><div class = ANT_text>+</div></div><div class = ANT_down><div class = ANT_text>*</div></div><div class = ANT_up><div class = ANT_text>*</div><div></div>","none","100","test","","","","","","","","",""
"-1","-1","poldrack-single-stim","60","128986","0.0-25.0","sub-14_ses-01_2","","400","0","fixation","<div class = centerbox><div class = ANT_text>+</div></div>","none","400","test","","","","","","","","",""
"663","89","poldrack-single-stim","61","131107","0.0-26.0","sub-14_ses-01_2","","2100.544","0","stim","<div class = centerbox><div class = ANT_text>+</div></div><div class = ANT_down><img class = ""ANT_img first"" src = /static/experiments/attention_network_task/images/left_arrow.png></img><img class = ANT_img src = /static/experiments/attention_network_task/images/left_arrow.png></img><img class = ANT_img src = /static/experiments/attention_network_task/images/left_arrow.png></img><img class = ANT_img src = /static/experiments/attention_network_task/images/left_arrow.png></img><img class = ANT_img src = /static/experiments/attention_network_task/images/left_arrow.png></img></div></div>","89,71","1700","test","true","89","","left","congruent","down","double","5",""
"-1","-1","poldrack-single-stim","62","131227","0.0-27.0","sub-14_ses-01_2","","100","0","doublecue","<div class = centerbox><div class = ANT_text>+</div></div><div class = ANT_down><div class = ANT_text>*</div></div><div class = ANT_up><div class = ANT_text>*</div><div></div>","none","100","test","","","","","","","","",""
"-1","-1","poldrack-single-stim","63","131648","0.0-28.0","sub-14_ses-01_2","","400","0","fixation","<div class = centerbox><div class = ANT_text>+</div></div>","none","400","test","","","","","","","","",""
"648","89","poldrack-single-stim","64","133758","0.0-29.0","sub-14_ses-01_2","","2100","0","stim","<div class = centerbox><div class = ANT_text>+</div></div><div class = ANT_down><img class = ""ANT_img first"" src = /static/experiments/attention_network_task/images/right_arrow.png></img><img class = ANT_img src = /static/experiments/attention_network_task/images/right_arrow.png></img><img class = ANT_img src = /static/experiments/attention_network_task/images/left_arrow.png></img><img class = ANT_img src = /static/experiments/attention_network_task/images/right_arrow.png></img><img class = ANT_img src = /static/experiments/attention_network_task/images/right_arrow.png></img></div></div>","89,71","1700","test","true","89","","left","incongruent","down","double","6",""
"-1","-1","poldrack-single-stim","65","133878","0.0-30.0","sub-14_ses-01_2","","100","0","spatialcue","<div class = centerbox><div class = ANT_text>+</div></div><div class = centerbox><div class = ANT_down><div class = ANT_text>*</p></div></div>","none","100","test","","","","","","","","",""
"-1","-1","poldrack-single-stim","66","134298","0.0-31.0","sub-14_ses-01_2","","400","0","fixation","<div class = centerbox><div class = ANT_text>+</div></div>","none","400","test","","","","","","","","",""
"462","71","poldrack-single-stim","67","136407","0.0-32.0","sub-14_ses-01_2","","2100.136","0","stim","<div class = centerbox><div class = ANT_text>+</div></div><div class = ANT_down><img class = ""ANT_img first"" src = /static/experiments/attention_network_task/images/left_arrow.png></img><img class = ANT_img src = /static/experiments/attention_network_task/images/left_arrow.png></img><img class = ANT_img src = /static/experiments/attention_network_task/images/right_arrow.png></img><img class = ANT_img src = /static/experiments/attention_network_task/images/left_arrow.png></img><img class = ANT_img src = /static/experiments/attention_network_task/images/left_arrow.png></img></div></div>","89,71","1700","test","true","71","","right","incongruent","down","spatial","7",""
"-1","-1","poldrack-single-stim","68","136576","0.0-33.0","sub-14_ses-01_2","","100","0","doublecue","<div class = centerbox><div class = ANT_text>+</div></div><div class = ANT_down><div class = ANT_text>*</div></div><div class = ANT_up><div class = ANT_text>*</div><div></div>","none","100","test","","","","","","","","",""
"-1","-1","poldrack-single-stim","69","136988","0.0-34.0","sub-14_ses-01_2","","400","0","fixation","<div class = centerbox><div class = ANT_text>+</div></div>","none","400","test","","","","","","","","",""
"726","71","poldrack-single-stim","70","139098","0.0-35.0","sub-14_ses-01_2","","2100.136","0","stim","<div class = centerbox><div class = ANT_text>+</div></div><div class = ANT_up><img class = ""ANT_img first"" src = /static/experiments/attention_network_task/images/left_arrow.png></img><img class = ANT_img src = /static/experiments/attention_network_task/images/left_arrow.png></img><img class = ANT_img src = /static/experiments/attention_network_task/images/right_arrow.png></img><img class = ANT_img src = /static/experiments/attention_network_task/images/left_arrow.png></img><img class = ANT_img src = /static/experiments/attention_network_task/images/left_arrow.png></img></div></div>","89,71","1700","test","true","71","","right","incongruent","up","double","8",""
"-1","-1","poldrack-single-stim","71","139218","0.0-36.0","sub-14_ses-01_2","","100","0","spatialcue","<div class = centerbox><div class = ANT_text>+</div></div><div class = centerbox><div class = ANT_down><div class = ANT_text>*</p></div></div>","none","100","test","","","","","","","","",""
"-1","-1","poldrack-single-stim","72","139638","0.0-37.0","sub-14_ses-01_2","","400","0","fixation","<div class = centerbox><div class = ANT_text>+</div></div>","none","400","test","","","","","","","","",""
"749","89","poldrack-single-stim","73","141748","0.0-38.0","sub-14_ses-01_2","","2100.136","0","stim","<div class = centerbox><div class = ANT_text>+</div></div><div class = ANT_down><img class = ""ANT_img first"" src = /static/experiments/attention_network_task/images/right_arrow.png></img><img class = ANT_img src = /static/experiments/attention_network_task/images/right_arrow.png></img><img class = ANT_img src = /static/experiments/attention_network_task/images/left_arrow.png></img><img class = ANT_img src = /static/experiments/attention_network_task/images/right_arrow.png></img><img class = ANT_img src = /static/experiments/attention_network_task/images/right_arrow.png></img></div></div>","89,71","1700","test","true","89","","left","incongruent","down","spatial","9",""
"-1","-1","poldrack-single-stim","74","141868","0.0-39.0","sub-14_ses-01_2","","100","0","doublecue","<div class = centerbox><div class = ANT_text>+</div></div><div class = ANT_down><div class = ANT_text>*</div></div><div class = ANT_up><div class = ANT_text>*</div><div></div>","none","100","test","","","","","","","","",""
"-1","-1","poldrack-single-stim","75","142288","0.0-40.0","sub-14_ses-01_2","","400","0","fixation","<div class = centerbox><div class = ANT_text>+</div></div>","none","400","test","","","","","","","","",""
"598","89","poldrack-single-stim","76","144398","0.0-41.0","sub-14_ses-01_2","","2100.136","0","stim","<div class = centerbox><div class = ANT_text>+</div></div><div class = ANT_up><img class = ""ANT_img first"" src = /static/experiments/attention_network_task/images/left_arrow.png></img><img class = ANT_img src = /static/experiments/attention_network_task/images/left_arrow.png></img><img class = ANT_img src = /static/experiments/attention_network_task/images/left_arrow.png></img><img class = ANT_img src = /static/experiments/attention_network_task/images/left_arrow.png></img><img class = ANT_img src = /static/experiments/attention_network_task/images/left_arrow.png></img></div></div>","89,71","1700","test","true","89","","left","congruent","up","double","10",""
"-1","-1","poldrack-single-stim","77","144517","0.0-42.0","sub-14_ses-01_2","","100","0","spatialcue","<div class = centerbox><div class = ANT_text>+</div></div><div class = centerbox><div class = ANT_down><div class = ANT_text>*</p></div></div>","none","100","test","","","","","","","","",""
"-1","-1","poldrack-single-stim","78","144938","0.0-43.0","sub-14_ses-01_2","","400","0","fixation","<div class = centerbox><div class = ANT_text>+</div></div>","none","400","test","","","","","","","","",""
"1196","89","poldrack-single-stim","79","147048","0.0-44.0","sub-14_ses-01_2","","2100.272","0","stim","<div class = centerbox><div class = ANT_text>+</div></div><div class = ANT_down><img class = ""ANT_img first"" src = /static/experiments/attention_network_task/images/right_arrow.png></img><img class = ANT_img src = /static/experiments/attention_network_task/images/right_arrow.png></img><img class = ANT_img src = /static/experiments/attention_network_task/images/left_arrow.png></img><img class = ANT_img src = /static/experiments/attention_network_task/images/right_arrow.png></img><img class = ANT_img src = /static/experiments/attention_network_task/images/right_arrow.png></img></div></div>","89,71","1700","test","true","89","","left","incongruent","down","spatial","11",""
"-1","-1","poldrack-single-stim","80","147167","0.0-45.0","sub-14_ses-01_2","","100","0","spatialcue","<div class = centerbox><div class = ANT_text>+</div></div><div class = centerbox><div class = ANT_down><div class = ANT_text>*</p></div></div>","none","100","test","","","","","","","","",""
"-1","-1","poldrack-single-stim","81","147588","0.0-46.0","sub-14_ses-01_2","","400","0","fixation","<div class = centerbox><div class = ANT_text>+</div></div>","none","400","test","","","","","","","","",""
"1808","71","poldrack-single-stim","82","149696","0.0-47.0","sub-14_ses-01_2","","2100.136","0","stim","<div class = centerbox><div class = ANT_text>+</div></div><div class = ANT_down><img class = ""ANT_img first"" src = /static/experiments/attention_network_task/images/left_arrow.png></img><img class = ANT_img src = /static/experiments/attention_network_task/images/left_arrow.png></img><img class = ANT_img src = /static/experiments/attention_network_task/images/right_arrow.png></img><img class = ANT_img src = /static/experiments/attention_network_task/images/left_arrow.png></img><img class = ANT_img src = /static/experiments/attention_network_task/images/left_arrow.png></img></div></div>","89,71","1700","test","true","71","","right","incongruent","down","spatial","12",""
"-1","-1","poldrack-single-stim","83","149818","0.0-48.0","sub-14_ses-01_2","","100","0","spatialcue","<div class = centerbox><div class = ANT_text>+</div></div><div class = centerbox><div class = ANT_up><div class = ANT_text>*</p></div></div>","none","100","test","","","","","","","","",""
"-1","-1","poldrack-single-stim","84","150227","0.0-49.0","sub-14_ses-01_2","","400","0","fixation","<div class = centerbox><div class = ANT_text>+</div></div>","none","400","test","","","","","","","","",""
"780","71","poldrack-single-stim","85","152348","0.0-50.0","sub-14_ses-01_2","","2100.408","0","stim","<div class = centerbox><div class = ANT_text>+</div></div><div class = ANT_up><img class = ""ANT_img first"" src = /static/experiments/attention_network_task/images/left_arrow.png></img><img class = ANT_img src = /static/experiments/attention_network_task/images/left_arrow.png></img><img class = ANT_img src = /static/experiments/attention_network_task/images/right_arrow.png></img><img class = ANT_img src = /static/experiments/attention_network_task/images/left_arrow.png></img><img class = ANT_img src = /static/experiments/attention_network_task/images/left_arrow.png></img></div></div>","89,71","1700","test","true","71","","right","incongruent","up","spatial","13",""
"-1","-1","poldrack-single-stim","86","152468","0.0-51.0","sub-14_ses-01_2","","100","0","doublecue","<div class = centerbox><div class = ANT_text>+</div></div><div class = ANT_down><div class = ANT_text>*</div></div><div class = ANT_up><div class = ANT_text>*</div><div></div>","none","100","test","","","","","","","","",""
"-1","-1","poldrack-single-stim","87","152888","0.0-52.0","sub-14_ses-01_2","","400","0","fixation","<div class = centerbox><div class = ANT_text>+</div></div>","none","400","test","","","","","","","","",""
"673","89","poldrack-single-stim","88","155007","0.0-53.0","sub-14_ses-01_2","","2100","0","stim","<div class = centerbox><div class = ANT_text>+</div></div><div class = ANT_down><img class = ""ANT_img first"" src = /static/experiments/attention_network_task/images/right_arrow.png></img><img class = ANT_img src = /static/experiments/attention_network_task/images/right_arrow.png></img><img class = ANT_img src = /static/experiments/attention_network_task/images/left_arrow.png></img><img class = ANT_img src = /static/experiments/attention_network_task/images/right_arrow.png></img><img class = ANT_img src = /static/experiments/attention_network_task/images/right_arrow.png></img></div></div>","89,71","1700","test","true","89","","left","incongruent","down","double","14",""
"-1","-1","poldrack-single-stim","89","155128","0.0-54.0","sub-14_ses-01_2","","100","0","doublecue","<div class = centerbox><div class = ANT_text>+</div></div><div class = ANT_down><div class = ANT_text>*</div></div><div class = ANT_up><div class = ANT_text>*</div><div></div>","none","100","test","","","","","","","","",""
"-1","-1","poldrack-single-stim","90","155547","0.0-55.0","sub-14_ses-01_2","","400","0","fixation","<div class = centerbox><div class = ANT_text>+</div></div>","none","400","test","","","","","","","","",""
"644","89","poldrack-single-stim","91","157657","0.0-56.0","sub-14_ses-01_2","","2100.136","0","stim","<div class = centerbox><div class = ANT_text>+</div></div><div class = ANT_down><img class = ""ANT_img first"" src = /static/experiments/attention_network_task/images/left_arrow.png></img><img class = ANT_img src = /static/experiments/attention_network_task/images/left_arrow.png></img><img class = ANT_img src = /static/experiments/attention_network_task/images/left_arrow.png></img><img class = ANT_img src = /static/experiments/attention_network_task/images/left_arrow.png></img><img class = ANT_img src = /static/experiments/attention_network_task/images/left_arrow.png></img></div></div>","89,71","1700","test","true","89","","left","congruent","down","double","15",""
"-1","-1","poldrack-single-stim","92","157779","0.0-57.0","sub-14_ses-01_2","","100","0","spatialcue","<div class = centerbox><div class = ANT_text>+</div></div><div class = centerbox><div class = ANT_up><div class = ANT_text>*</p></div></div>","none","100","test","","","","","","","","",""
"-1","-1","poldrack-single-stim","93","158198","0.0-58.0","sub-14_ses-01_2","","400","0","fixation","<div class = centerbox><div class = ANT_text>+</div></div>","none","400","test","","","","","","","","",""
"705","71","poldrack-single-stim","94","160307","0.0-59.0","sub-14_ses-01_2","","2100","0","stim","<div class = centerbox><div class = ANT_text>+</div></div><div class = ANT_up><img class = ""ANT_img first"" src = /static/experiments/attention_network_task/images/right_arrow.png></img><img class = ANT_img src = /static/experiments/attention_network_task/images/right_arrow.png></img><img class = ANT_img src = /static/experiments/attention_network_task/images/right_arrow.png></img><img class = ANT_img src = /static/experiments/attention_network_task/images/right_arrow.png></img><img class = ANT_img src = /static/experiments/attention_network_task/images/right_arrow.png></img></div></div>","89,71","1700","test","true","71","","right","congruent","up","spatial","16",""
"-1","-1","poldrack-single-stim","95","160428","0.0-60.0","sub-14_ses-01_2","","100","0","doublecue","<div class = centerbox><div class = ANT_text>+</div></div><div class = ANT_down><div class = ANT_text>*</div></div><div class = ANT_up><div class = ANT_text>*</div><div></div>","none","100","test","","","","","","","","",""
"-1","-1","poldrack-single-stim","96","160849","0.0-61.0","sub-14_ses-01_2","","400","0","fixation","<div class = centerbox><div class = ANT_text>+</div></div>","none","400","test","","","","","","","","",""
"758","71","poldrack-single-stim","97","162968","0.0-62.0","sub-14_ses-01_2","","2100.136","0","stim","<div class = centerbox><div class = ANT_text>+</div></div><div class = ANT_up><img class = ""ANT_img first"" src = /static/experiments/attention_network_task/images/left_arrow.png></img><img class = ANT_img src = /static/experiments/attention_network_task/images/left_arrow.png></img><img class = ANT_img src = /static/experiments/attention_network_task/images/right_arrow.png></img><img class = ANT_img src = /static/experiments/attention_network_task/images/left_arrow.png></img><img class = ANT_img src = /static/experiments/attention_network_task/images/left_arrow.png></img></div></div>","89,71","1700","test","true","71","","right","incongruent","up","double","17",""
"-1","-1","poldrack-single-stim","98","163088","0.0-63.0","sub-14_ses-01_2","","100","0","spatialcue","<div class = centerbox><div class = ANT_text>+</div></div><div class = centerbox><div class = ANT_down><div class = ANT_text>*</p></div></div>","none","100","test","","","","","","","","",""
"-1","-1","poldrack-single-stim","99","163507","0.0-64.0","sub-14_ses-01_2","","400","0","fixation","<div class = centerbox><div class = ANT_text>+</div></div>","none","400","test","","","","","","","","",""
"520","71","poldrack-single-stim","100","165628","0.0-65.0","sub-14_ses-01_2","","2100.952","0","stim","<div class = centerbox><div class = ANT_text>+</div></div><div class = ANT_down><img class = ""ANT_img first"" src = /static/experiments/attention_network_task/images/right_arrow.png></img><img class = ANT_img src = /static/experiments/attention_network_task/images/right_arrow.png></img><img class = ANT_img src = /static/experiments/attention_network_task/images/right_arrow.png></img><img class = ANT_img src = /static/experiments/attention_network_task/images/right_arrow.png></img><img class = ANT_img src = /static/experiments/attention_network_task/images/right_arrow.png></img></div></div>","89,71","1700","test","true","71","","right","congruent","down","spatial","18",""
"-1","-1","poldrack-single-stim","101","165747","0.0-66.0","sub-14_ses-01_2","","100","0","doublecue","<div class = centerbox><div class = ANT_text>+</div></div><div class = ANT_down><div class = ANT_text>*</div></div><div class = ANT_up><div class = ANT_text>*</div><div></div>","none","100","test","","","","","","","","",""
"-1","-1","poldrack-single-stim","102","166168","0.0-67.0","sub-14_ses-01_2","","400","0","fixation","<div class = centerbox><div class = ANT_text>+</div></div>","none","400","test","","","","","","","","",""
"651","89","poldrack-single-stim","103","168287","0.0-68.0","sub-14_ses-01_2","","2100.272","0","stim","<div class = centerbox><div class = ANT_text>+</div></div><div class = ANT_down><img class = ""ANT_img first"" src = /static/experiments/attention_network_task/images/left_arrow.png></img><img class = ANT_img src = /static/experiments/attention_network_task/images/left_arrow.png></img><img class = ANT_img src = /static/experiments/attention_network_task/images/left_arrow.png></img><img class = ANT_img src = /static/experiments/attention_network_task/images/left_arrow.png></img><img class = ANT_img src = /static/experiments/attention_network_task/images/left_arrow.png></img></div></div>","89,71","1700","test","true","89","","left","congruent","down","double","19",""
"-1","-1","poldrack-single-stim","104","168408","0.0-69.0","sub-14_ses-01_2","","100","0","doublecue","<div class = centerbox><div class = ANT_text>+</div></div><div class = ANT_down><div class = ANT_text>*</div></div><div class = ANT_up><div class = ANT_text>*</div><div></div>","none","100","test","","","","","","","","",""
"-1","-1","poldrack-single-stim","105","168828","0.0-70.0","sub-14_ses-01_2","","400","0","fixation","<div class = centerbox><div class = ANT_text>+</div></div>","none","400","test","","","","","","","","",""
"644","71","poldrack-single-stim","106","170947","0.0-71.0","sub-14_ses-01_2","","2100.136","0","stim","<div class = centerbox><div class = ANT_text>+</div></div><div class = ANT_down><img class = ""ANT_img first"" src = /static/experiments/attention_network_task/images/right_arrow.png></img><img class = ANT_img src = /static/experiments/attention_network_task/images/right_arrow.png></img><img class = ANT_img src = /static/experiments/attention_network_task/images/right_arrow.png></img><img class = ANT_img src = /static/experiments/attention_network_task/images/right_arrow.png></img><img class = ANT_img src = /static/experiments/attention_network_task/images/right_arrow.png></img></div></div>","89,71","1700","test","true","71","","right","congruent","down","double","20",""
"-1","-1","poldrack-single-stim","107","171069","0.0-72.0","sub-14_ses-01_2","","100","0","doublecue","<div class = centerbox><div class = ANT_text>+</div></div><div class = ANT_down><div class = ANT_text>*</div></div><div class = ANT_up><div class = ANT_text>*</div><div></div>","none","100","test","","","","","","","","",""
"-1","-1","poldrack-single-stim","108","171488","0.0-73.0","sub-14_ses-01_2","","400","0","fixation","<div class = centerbox><div class = ANT_text>+</div></div>","none","400","test","","","","","","","","",""
"750","89","poldrack-single-stim","109","173598","0.0-74.0","sub-14_ses-01_2","","2100","0","stim","<div class = centerbox><div class = ANT_text>+</div></div><div class = ANT_up><img class = ""ANT_img first"" src = /static/experiments/attention_network_task/images/right_arrow.png></img><img class = ANT_img src = /static/experiments/attention_network_task/images/right_arrow.png></img><img class = ANT_img src = /static/experiments/attention_network_task/images/left_arrow.png></img><img class = ANT_img src = /static/experiments/attention_network_task/images/right_arrow.png></img><img class = ANT_img src = /static/experiments/attention_network_task/images/right_arrow.png></img></div></div>","89,71","1700","test","true","89","","left","incongruent","up","double","21",""
"-1","-1","poldrack-single-stim","110","173717","0.0-75.0","sub-14_ses-01_2","","100","0","spatialcue","<div class = centerbox><div class = ANT_text>+</div></div><div class = centerbox><div class = ANT_down><div class = ANT_text>*</p></div></div>","none","100","test","","","","","","","","",""
"-1","-1","poldrack-single-stim","111","174138","0.0-76.0","sub-14_ses-01_2","","400","0","fixation","<div class = centerbox><div class = ANT_text>+</div></div>","none","400","test","","","","","","","","",""
"678","89","poldrack-single-stim","112","176247","0.0-77.0","sub-14_ses-01_2","","2100.136","0","stim","<div class = centerbox><div class = ANT_text>+</div></div><div class = ANT_down><img class = ""ANT_img first"" src = /static/experiments/attention_network_task/images/right_arrow.png></img><img class = ANT_img src = /static/experiments/attention_network_task/images/right_arrow.png></img><img class = ANT_img src = /static/experiments/attention_network_task/images/left_arrow.png></img><img class = ANT_img src = /static/experiments/attention_network_task/images/right_arrow.png></img><img class = ANT_img src = /static/experiments/attention_network_task/images/right_arrow.png></img></div></div>","89,71","1700","test","true","89","","left","incongruent","down","spatial","22",""
"-1","-1","poldrack-single-stim","113","176369","0.0-78.0","sub-14_ses-01_2","","100","0","doublecue","<div class = centerbox><div class = ANT_text>+</div></div><div class = ANT_down><div class = ANT_text>*</div></div><div class = ANT_up><div class = ANT_text>*</div><div></div>","none","100","test","","","","","","","","",""
"-1","-1","poldrack-single-stim","114","176789","0.0-79.0","sub-14_ses-01_2","","400","0","fixation","<div class = centerbox><div class = ANT_text>+</div></div>","none","400","test","","","","","","","","",""
"687","89","poldrack-single-stim","115","178907","0.0-80.0","sub-14_ses-01_2","","2100","0","stim","<div class = centerbox><div class = ANT_text>+</div></div><div class = ANT_down><img class = ""ANT_img first"" src = /static/experiments/attention_network_task/images/left_arrow.png></img><img class = ANT_img src = /static/experiments/attention_network_task/images/left_arrow.png></img><img class = ANT_img src = /static/experiments/attention_network_task/images/left_arrow.png></img><img class = ANT_img src = /static/experiments/attention_network_task/images/left_arrow.png></img><img class = ANT_img src = /static/experiments/attention_network_task/images/left_arrow.png></img></div></div>","89,71","1700","test","true","89","","left","congruent","down","double","23",""
"-1","-1","poldrack-single-stim","116","179027","0.0-81.0","sub-14_ses-01_2","","100","0","spatialcue","<div class = centerbox><div class = ANT_text>+</div></div><div class = centerbox><div class = ANT_down><div class = ANT_text>*</p></div></div>","none","100","test","","","","","","","","",""
"-1","-1","poldrack-single-stim","117","179448","0.0-82.0","sub-14_ses-01_2","","400","0","fixation","<div class = centerbox><div class = ANT_text>+</div></div>","none","400","test","","","","","","","","",""
"1412","71","poldrack-single-stim","118","181567","0.0-83.0","sub-14_ses-01_2","","2100.136","0","stim","<div class = centerbox><div class = ANT_text>+</div></div><div class = ANT_down><img class = ""ANT_img first"" src = /static/experiments/attention_network_task/images/left_arrow.png></img><img class = ANT_img src = /static/experiments/attention_network_task/images/left_arrow.png></img><img class = ANT_img src = /static/experiments/attention_network_task/images/right_arrow.png></img><img class = ANT_img src = /static/experiments/attention_network_task/images/left_arrow.png></img><img class = ANT_img src = /static/experiments/attention_network_task/images/left_arrow.png></img></div></div>","89,71","1700","test","true","71","","right","incongruent","down","spatial","24",""
"-1","-1","poldrack-single-stim","119","181688","0.0-84.0","sub-14_ses-01_2","","100","0","doublecue","<div class = centerbox><div class = ANT_text>+</div></div><div class = ANT_down><div class = ANT_text>*</div></div><div class = ANT_up><div class = ANT_text>*</div><div></div>","none","100","test","","","","","","","","",""
"-1","-1","poldrack-single-stim","120","182108","0.0-85.0","sub-14_ses-01_2","","400","0","fixation","<div class = centerbox><div class = ANT_text>+</div></div>","none","400","test","","","","","","","","",""
"832","71","poldrack-single-stim","121","184228","0.0-86.0","sub-14_ses-01_2","","2100.272","0","stim","<div class = centerbox><div class = ANT_text>+</div></div><div class = ANT_up><img class = ""ANT_img first"" src = /static/experiments/attention_network_task/images/left_arrow.png></img><img class = ANT_img src = /static/experiments/attention_network_task/images/left_arrow.png></img><img class = ANT_img src = /static/experiments/attention_network_task/images/right_arrow.png></img><img class = ANT_img src = /static/experiments/attention_network_task/images/left_arrow.png></img><img class = ANT_img src = /static/experiments/attention_network_task/images/left_arrow.png></img></div></div>","89,71","1700","test","true","71","","right","incongruent","up","double","25",""
"-1","-1","poldrack-single-stim","122","184355","0.0-87.0","sub-14_ses-01_2","","100","0","spatialcue","<div class = centerbox><div class = ANT_text>+</div></div><div class = centerbox><div class = ANT_down><div class = ANT_text>*</p></div></div>","none","100","test","","","","","","","","",""
"-1","-1","poldrack-single-stim","123","184768","0.0-88.0","sub-14_ses-01_2","","400","0","fixation","<div class = centerbox><div class = ANT_text>+</div></div>","none","400","test","","","","","","","","",""
"534","89","poldrack-single-stim","124","186877","0.0-89.0","sub-14_ses-01_2","","2100.272","0","stim","<div class = centerbox><div class = ANT_text>+</div></div><div class = ANT_down><img class = ""ANT_img first"" src = /static/experiments/attention_network_task/images/right_arrow.png></img><img class = ANT_img src = /static/experiments/attention_network_task/images/right_arrow.png></img><img class = ANT_img src = /static/experiments/attention_network_task/images/left_arrow.png></img><img class = ANT_img src = /static/experiments/attention_network_task/images/right_arrow.png></img><img class = ANT_img src = /static/experiments/attention_network_task/images/right_arrow.png></img></div></div>","89,71","1700","test","true","89","","left","incongruent","down","spatial","26",""
"-1","-1","poldrack-single-stim","125","186997","0.0-90.0","sub-14_ses-01_2","","100","0","doublecue","<div class = centerbox><div class = ANT_text>+</div></div><div class = ANT_down><div class = ANT_text>*</div></div><div class = ANT_up><div class = ANT_text>*</div><div></div>","none","100","test","","","","","","","","",""
"-1","-1","poldrack-single-stim","126","187418","0.0-91.0","sub-14_ses-01_2","","400","0","fixation","<div class = centerbox><div class = ANT_text>+</div></div>","none","400","test","","","","","","","","",""
"600","89","poldrack-single-stim","127","189537","0.0-92.0","sub-14_ses-01_2","","2100.136","0","stim","<div class = centerbox><div class = ANT_text>+</div></div><div class = ANT_up><img class = ""ANT_img first"" src = /static/experiments/attention_network_task/images/left_arrow.png></img><img class = ANT_img src = /static/experiments/attention_network_task/images/left_arrow.png></img><img class = ANT_img src = /static/experiments/attention_network_task/images/left_arrow.png></img><img class = ANT_img src = /static/experiments/attention_network_task/images/left_arrow.png></img><img class = ANT_img src = /static/experiments/attention_network_task/images/left_arrow.png></img></div></div>","89,71","1700","test","true","89","","left","congruent","up","double","27",""
"-1","-1","poldrack-single-stim","128","189657","0.0-93.0","sub-14_ses-01_2","","100","0","doublecue","<div class = centerbox><div class = ANT_text>+</div></div><div class = ANT_down><div class = ANT_text>*</div></div><div class = ANT_up><div class = ANT_text>*</div><div></div>","none","100","test","","","","","","","","",""
"-1","-1","poldrack-single-stim","129","190078","0.0-94.0","sub-14_ses-01_2","","400","0","fixation","<div class = centerbox><div class = ANT_text>+</div></div>","none","400","test","","","","","","","","",""
"1027","71","poldrack-single-stim","130","192198","0.0-95.0","sub-14_ses-01_2","","2100","0","stim","<div class = centerbox><div class = ANT_text>+</div></div><div class = ANT_down><img class = ""ANT_img first"" src = /static/experiments/attention_network_task/images/left_arrow.png></img><img class = ANT_img src = /static/experiments/attention_network_task/images/left_arrow.png></img><img class = ANT_img src = /static/experiments/attention_network_task/images/right_arrow.png></img><img class = ANT_img src = /static/experiments/attention_network_task/images/left_arrow.png></img><img class = ANT_img src = /static/experiments/attention_network_task/images/left_arrow.png></img></div></div>","89,71","1700","test","true","71","","right","incongruent","down","double","28",""
"-1","-1","poldrack-single-stim","131","192317","0.0-96.0","sub-14_ses-01_2","","100","0","doublecue","<div class = centerbox><div class = ANT_text>+</div></div><div class = ANT_down><div class = ANT_text>*</div></div><div class = ANT_up><div class = ANT_text>*</div><div></div>","none","100","test","","","","","","","","",""
"-1","-1","poldrack-single-stim","132","192738","0.0-97.0","sub-14_ses-01_2","","400","0","fixation","<div class = centerbox><div class = ANT_text>+</div></div>","none","400","test","","","","","","","","",""
"698","71","poldrack-single-stim","133","194857","0.0-98.0","sub-14_ses-01_2","","2100.136","0","stim","<div class = centerbox><div class = ANT_text>+</div></div><div class = ANT_down><img class = ""ANT_img first"" src = /static/experiments/attention_network_task/images/left_arrow.png></img><img class = ANT_img src = /static/experiments/attention_network_task/images/left_arrow.png></img><img class = ANT_img src = /static/experiments/attention_network_task/images/right_arrow.png></img><img class = ANT_img src = /static/experiments/attention_network_task/images/left_arrow.png></img><img class = ANT_img src = /static/experiments/attention_network_task/images/left_arrow.png></img></div></div>","89,71","1700","test","true","71","","right","incongruent","down","double","29",""
"-1","-1","poldrack-single-stim","134","195037","0.0-99.0","sub-14_ses-01_2","","100","0","spatialcue","<div class = centerbox><div class = ANT_text>+</div></div><div class = centerbox><div class = ANT_up><div class = ANT_text>*</p></div></div>","none","100","test","","","","","","","","",""
"-1","-1","poldrack-single-stim","135","195464","0.0-100.0","sub-14_ses-01_2","","400","0","fixation","<div class = centerbox><div class = ANT_text>+</div></div>","none","400","test","","","","","","","","",""
"628","89","poldrack-single-stim","136","197588","0.0-101.0","sub-14_ses-01_2","","2100","0","stim","<div class = centerbox><div class = ANT_text>+</div></div><div class = ANT_up><img class = ""ANT_img first"" src = /static/experiments/attention_network_task/images/left_arrow.png></img><img class = ANT_img src = /static/experiments/attention_network_task/images/left_arrow.png></img><img class = ANT_img src = /static/experiments/attention_network_task/images/left_arrow.png></img><img class = ANT_img src = /static/experiments/attention_network_task/images/left_arrow.png></img><img class = ANT_img src = /static/experiments/attention_network_task/images/left_arrow.png></img></div></div>","89,71","1700","test","true","89","","left","congruent","up","spatial","30",""
"-1","-1","poldrack-single-stim","137","197708","0.0-102.0","sub-14_ses-01_2","","100","0","doublecue","<div class = centerbox><div class = ANT_text>+</div></div><div class = ANT_down><div class = ANT_text>*</div></div><div class = ANT_up><div class = ANT_text>*</div><div></div>","none","100","test","","","","","","","","",""
"-1","-1","poldrack-single-stim","138","198119","0.0-103.0","sub-14_ses-01_2","","400","0","fixation","<div class = centerbox><div class = ANT_text>+</div></div>","none","400","test","","","","","","","","",""
"632","89","poldrack-single-stim","139","200239","0.0-104.0","sub-14_ses-01_2","","2100.272","0","stim","<div class = centerbox><div class = ANT_text>+</div></div><div class = ANT_up><img class = ""ANT_img first"" src = /static/experiments/attention_network_task/images/left_arrow.png></img><img class = ANT_img src = /static/experiments/attention_network_task/images/left_arrow.png></img><img class = ANT_img src = /static/experiments/attention_network_task/images/left_arrow.png></img><img class = ANT_img src = /static/experiments/attention_network_task/images/left_arrow.png></img><img class = ANT_img src = /static/experiments/attention_network_task/images/left_arrow.png></img></div></div>","89,71","1700","test","true","89","","left","congruent","up","double","31",""
"-1","-1","poldrack-single-stim","140","200358","0.0-105.0","sub-14_ses-01_2","","100","0","spatialcue","<div class = centerbox><div class = ANT_text>+</div></div><div class = centerbox><div class = ANT_up><div class = ANT_text>*</p></div></div>","none","100","test","","","","","","","","",""
"-1","-1","poldrack-single-stim","141","200778","0.0-106.0","sub-14_ses-01_2","","400","0","fixation","<div class = centerbox><div class = ANT_text>+</div></div>","none","400","test","","","","","","","","",""
"507","89","poldrack-single-stim","142","202910","0.0-107.0","sub-14_ses-01_2","","2100","0","stim","<div class = centerbox><div class = ANT_text>+</div></div><div class = ANT_up><img class = ""ANT_img first"" src = /static/experiments/attention_network_task/images/right_arrow.png></img><img class = ANT_img src = /static/experiments/attention_network_task/images/right_arrow.png></img><img class = ANT_img src = /static/experiments/attention_network_task/images/left_arrow.png></img><img class = ANT_img src = /static/experiments/attention_network_task/images/right_arrow.png></img><img class = ANT_img src = /static/experiments/attention_network_task/images/right_arrow.png></img></div></div>","89,71","1700","test","true","89","","left","incongruent","up","spatial","32",""
"-1","-1","poldrack-single-stim","143","203028","0.0-108.0","sub-14_ses-01_2","","100","0","spatialcue","<div class = centerbox><div class = ANT_text>+</div></div><div class = centerbox><div class = ANT_down><div class = ANT_text>*</p></div></div>","none","100","test","","","","","","","","",""
"-1","-1","poldrack-single-stim","144","203447","0.0-109.0","sub-14_ses-01_2","","400","0","fixation","<div class = centerbox><div class = ANT_text>+</div></div>","none","400","test","","","","","","","","",""
"630","89","poldrack-single-stim","145","205568","0.0-110.0","sub-14_ses-01_2","","2100","0","stim","<div class = centerbox><div class = ANT_text>+</div></div><div class = ANT_down><img class = ""ANT_img first"" src = /static/experiments/attention_network_task/images/right_arrow.png></img><img class = ANT_img src = /static/experiments/attention_network_task/images/right_arrow.png></img><img class = ANT_img src = /static/experiments/attention_network_task/images/left_arrow.png></img><img class = ANT_img src = /static/experiments/attention_network_task/images/right_arrow.png></img><img class = ANT_img src = /static/experiments/attention_network_task/images/right_arrow.png></img></div></div>","89,71","1700","test","true","89","","left","incongruent","down","spatial","33",""
"-1","-1","poldrack-single-stim","146","205688","0.0-111.0","sub-14_ses-01_2","","100","0","spatialcue","<div class = centerbox><div class = ANT_text>+</div></div><div class = centerbox><div class = ANT_down><div class = ANT_text>*</p></div></div>","none","100","test","","","","","","","","",""
"-1","-1","poldrack-single-stim","147","206108","0.0-112.0","sub-14_ses-01_2","","400","0","fixation","<div class = centerbox><div class = ANT_text>+</div></div>","none","400","test","","","","","","","","",""
"721","71","poldrack-single-stim","148","208227","0.0-113.0","sub-14_ses-01_2","","2100.136","0","stim","<div class = centerbox><div class = ANT_text>+</div></div><div class = ANT_down><img class = ""ANT_img first"" src = /static/experiments/attention_network_task/images/right_arrow.png></img><img class = ANT_img src = /static/experiments/attention_network_task/images/right_arrow.png></img><img class = ANT_img src = /static/experiments/attention_network_task/images/right_arrow.png></img><img class = ANT_img src = /static/experiments/attention_network_task/images/right_arrow.png></img><img class = ANT_img src = /static/experiments/attention_network_task/images/right_arrow.png></img></div></div>","89,71","1700","test","true","71","","right","congruent","down","spatial","34",""
"-1","-1","poldrack-single-stim","149","208349","0.0-114.0","sub-14_ses-01_2","","100","0","spatialcue","<div class = centerbox><div class = ANT_text>+</div></div><div class = centerbox><div class = ANT_down><div class = ANT_text>*</p></div></div>","none","100","test","","","","","","","","",""
"-1","-1","poldrack-single-stim","150","208768","0.0-115.0","sub-14_ses-01_2","","400","0","fixation","<div class = centerbox><div class = ANT_text>+</div></div>","none","400","test","","","","","","","","",""
"587","89","poldrack-single-stim","151","210888","0.0-116.0","sub-14_ses-01_2","","2100.272","0","stim","<div class = centerbox><div class = ANT_text>+</div></div><div class = ANT_down><img class = ""ANT_img first"" src = /static/experiments/attention_network_task/images/left_arrow.png></img><img class = ANT_img src = /static/experiments/attention_network_task/images/left_arrow.png></img><img class = ANT_img src = /static/experiments/attention_network_task/images/left_arrow.png></img><img class = ANT_img src = /static/experiments/attention_network_task/images/left_arrow.png></img><img class = ANT_img src = /static/experiments/attention_network_task/images/left_arrow.png></img></div></div>","89,71","1700","test","true","89","","left","congruent","down","spatial","35",""
"-1","-1","poldrack-single-stim","152","211008","0.0-117.0","sub-14_ses-01_2","","100","0","doublecue","<div class = centerbox><div class = ANT_text>+</div></div><div class = ANT_down><div class = ANT_text>*</div></div><div class = ANT_up><div class = ANT_text>*</div><div></div>","none","100","test","","","","","","","","",""
"-1","-1","poldrack-single-stim","153","211428","0.0-118.0","sub-14_ses-01_2","","400","0","fixation","<div class = centerbox><div class = ANT_text>+</div></div>","none","400","test","","","","","","","","",""
"653","89","poldrack-single-stim","154","213546","0.0-119.0","sub-14_ses-01_2","","2100.408","0","stim","<div class = centerbox><div class = ANT_text>+</div></div><div class = ANT_down><img class = ""ANT_img first"" src = /static/experiments/attention_network_task/images/right_arrow.png></img><img class = ANT_img src = /static/experiments/attention_network_task/images/right_arrow.png></img><img class = ANT_img src = /static/experiments/attention_network_task/images/left_arrow.png></img><img class = ANT_img src = /static/experiments/attention_network_task/images/right_arrow.png></img><img class = ANT_img src = /static/experiments/attention_network_task/images/right_arrow.png></img></div></div>","89,71","1700","test","true","89","","left","incongruent","down","double","36",""
"-1","-1","poldrack-single-stim","155","213668","0.0-120.0","sub-14_ses-01_2","","100","0","doublecue","<div class = centerbox><div class = ANT_text>+</div></div><div class = ANT_down><div class = ANT_text>*</div></div><div class = ANT_up><div class = ANT_text>*</div><div></div>","none","100","test","","","","","","","","",""
"-1","-1","poldrack-single-stim","156","214087","0.0-121.0","sub-14_ses-01_2","","400","0","fixation","<div class = centerbox><div class = ANT_text>+</div></div>","none","400","test","","","","","","","","",""
"955","71","poldrack-single-stim","157","216209","0.0-122.0","sub-14_ses-01_2","","2100","0","stim","<div class = centerbox><div class = ANT_text>+</div></div><div class = ANT_up><img class = ""ANT_img first"" src = /static/experiments/attention_network_task/images/right_arrow.png></img><img class = ANT_img src = /static/experiments/attention_network_task/images/right_arrow.png></img><img class = ANT_img src = /static/experiments/attention_network_task/images/right_arrow.png></img><img class = ANT_img src = /static/experiments/attention_network_task/images/right_arrow.png></img><img class = ANT_img src = /static/experiments/attention_network_task/images/right_arrow.png></img></div></div>","89,71","1700","test","true","71","","right","congruent","up","double","37",""
"-1","-1","poldrack-single-stim","158","216328","0.0-123.0","sub-14_ses-01_2","","100","0","doublecue","<div class = centerbox><div class = ANT_text>+</div></div><div class = ANT_down><div class = ANT_text>*</div></div><div class = ANT_up><div class = ANT_text>*</div><div></div>","none","100","test","","","","","","","","",""
"-1","-1","poldrack-single-stim","159","216748","0.0-124.0","sub-14_ses-01_2","","400","0","fixation","<div class = centerbox><div class = ANT_text>+</div></div>","none","400","test","","","","","","","","",""
"601","89","poldrack-single-stim","160","218868","0.0-125.0","sub-14_ses-01_2","","2100.136","0","stim","<div class = centerbox><div class = ANT_text>+</div></div><div class = ANT_down><img class = ""ANT_img first"" src = /static/experiments/attention_network_task/images/left_arrow.png></img><img class = ANT_img src = /static/experiments/attention_network_task/images/left_arrow.png></img><img class = ANT_img src = /static/experiments/attention_network_task/images/left_arrow.png></img><img class = ANT_img src = /static/experiments/attention_network_task/images/left_arrow.png></img><img class = ANT_img src = /static/experiments/attention_network_task/images/left_arrow.png></img></div></div>","89,71","1700","test","true","89","","left","congruent","down","double","38",""
"-1","-1","poldrack-single-stim","161","218988","0.0-126.0","sub-14_ses-01_2","","100","0","spatialcue","<div class = centerbox><div class = ANT_text>+</div></div><div class = centerbox><div class = ANT_up><div class = ANT_text>*</p></div></div>","none","100","test","","","","","","","","",""
"-1","-1","poldrack-single-stim","162","219408","0.0-127.0","sub-14_ses-01_2","","400","0","fixation","<div class = centerbox><div class = ANT_text>+</div></div>","none","400","test","","","","","","","","",""
"739","71","poldrack-single-stim","163","221527","0.0-128.0","sub-14_ses-01_2","","2100.136","0","stim","<div class = centerbox><div class = ANT_text>+</div></div><div class = ANT_up><img class = ""ANT_img first"" src = /static/experiments/attention_network_task/images/right_arrow.png></img><img class = ANT_img src = /static/experiments/attention_network_task/images/right_arrow.png></img><img class = ANT_img src = /static/experiments/attention_network_task/images/right_arrow.png></img><img class = ANT_img src = /static/experiments/attention_network_task/images/right_arrow.png></img><img class = ANT_img src = /static/experiments/attention_network_task/images/right_arrow.png></img></div></div>","89,71","1700","test","true","71","","right","congruent","up","spatial","39",""
"-1","-1","poldrack-single-stim","164","221648","0.0-129.0","sub-14_ses-01_2","","100","0","doublecue","<div class = centerbox><div class = ANT_text>+</div></div><div class = ANT_down><div class = ANT_text>*</div></div><div class = ANT_up><div class = ANT_text>*</div><div></div>","none","100","test","","","","","","","","",""
"-1","-1","poldrack-single-stim","165","222069","0.0-130.0","sub-14_ses-01_2","","400","0","fixation","<div class = centerbox><div class = ANT_text>+</div></div>","none","400","test","","","","","","","","",""
"936","89","poldrack-single-stim","166","224189","0.0-131.0","sub-14_ses-01_2","","2100","0","stim","<div class = centerbox><div class = ANT_text>+</div></div><div class = ANT_down><img class = ""ANT_img first"" src = /static/experiments/attention_network_task/images/left_arrow.png></img><img class = ANT_img src = /static/experiments/attention_network_task/images/left_arrow.png></img><img class = ANT_img src = /static/experiments/attention_network_task/images/left_arrow.png></img><img class = ANT_img src = /static/experiments/attention_network_task/images/left_arrow.png></img><img class = ANT_img src = /static/experiments/attention_network_task/images/left_arrow.png></img></div></div>","89,71","1700","test","true","89","","left","congruent","down","double","40",""
"-1","-1","poldrack-single-stim","167","224308","0.0-132.0","sub-14_ses-01_2","","100","0","doublecue","<div class = centerbox><div class = ANT_text>+</div></div><div class = ANT_down><div class = ANT_text>*</div></div><div class = ANT_up><div class = ANT_text>*</div><div></div>","none","100","test","","","","","","","","",""
"-1","-1","poldrack-single-stim","168","224728","0.0-133.0","sub-14_ses-01_2","","400","0","fixation","<div class = centerbox><div class = ANT_text>+</div></div>","none","400","test","","","","","","","","",""
"911","71","poldrack-single-stim","169","226838","0.0-134.0","sub-14_ses-01_2","","2100.408","0","stim","<div class = centerbox><div class = ANT_text>+</div></div><div class = ANT_down><img class = ""ANT_img first"" src = /static/experiments/attention_network_task/images/left_arrow.png></img><img class = ANT_img src = /static/experiments/attention_network_task/images/left_arrow.png></img><img class = ANT_img src = /static/experiments/attention_network_task/images/right_arrow.png></img><img class = ANT_img src = /static/experiments/attention_network_task/images/left_arrow.png></img><img class = ANT_img src = /static/experiments/attention_network_task/images/left_arrow.png></img></div></div>","89,71","1700","test","true","71","","right","incongruent","down","double","41",""
"-1","-1","poldrack-single-stim","170","226955","0.0-135.0","sub-14_ses-01_2","","100","0","spatialcue","<div class = centerbox><div class = ANT_text>+</div></div><div class = centerbox><div class = ANT_up><div class = ANT_text>*</p></div></div>","none","100","test","","","","","","","","",""
"-1","-1","poldrack-single-stim","171","227378","0.0-136.0","sub-14_ses-01_2","","400","0","fixation","<div class = centerbox><div class = ANT_text>+</div></div>","none","400","test","","","","","","","","",""
"1267","89","poldrack-single-stim","172","229497","0.0-137.0","sub-14_ses-01_2","","2100.544","0","stim","<div class = centerbox><div class = ANT_text>+</div></div><div class = ANT_up><img class = ""ANT_img first"" src = /static/experiments/attention_network_task/images/left_arrow.png></img><img class = ANT_img src = /static/experiments/attention_network_task/images/left_arrow.png></img><img class = ANT_img src = /static/experiments/attention_network_task/images/left_arrow.png></img><img class = ANT_img src = /static/experiments/attention_network_task/images/left_arrow.png></img><img class = ANT_img src = /static/experiments/attention_network_task/images/left_arrow.png></img></div></div>","89,71","1700","test","true","89","","left","congruent","up","spatial","42",""
"-1","-1","poldrack-single-stim","173","229617","0.0-138.0","sub-14_ses-01_2","","100","0","spatialcue","<div class = centerbox><div class = ANT_text>+</div></div><div class = centerbox><div class = ANT_down><div class = ANT_text>*</p></div></div>","none","100","test","","","","","","","","",""
"-1","-1","poldrack-single-stim","174","230038","0.0-139.0","sub-14_ses-01_2","","400","0","fixation","<div class = centerbox><div class = ANT_text>+</div></div>","none","400","test","","","","","","","","",""
"546","71","poldrack-single-stim","175","232148","0.0-140.0","sub-14_ses-01_2","","2100.136","0","stim","<div class = centerbox><div class = ANT_text>+</div></div><div class = ANT_down><img class = ""ANT_img first"" src = /static/experiments/attention_network_task/images/right_arrow.png></img><img class = ANT_img src = /static/experiments/attention_network_task/images/right_arrow.png></img><img class = ANT_img src = /static/experiments/attention_network_task/images/right_arrow.png></img><img class = ANT_img src = /static/experiments/attention_network_task/images/right_arrow.png></img><img class = ANT_img src = /static/experiments/attention_network_task/images/right_arrow.png></img></div></div>","89,71","1700","test","true","71","","right","congruent","down","spatial","43",""
"-1","-1","poldrack-single-stim","176","232257","0.0-141.0","sub-14_ses-01_2","","100","0","spatialcue","<div class = centerbox><div class = ANT_text>+</div></div><div class = centerbox><div class = ANT_down><div class = ANT_text>*</p></div></div>","none","100","test","","","","","","","","",""
"-1","-1","poldrack-single-stim","177","232678","0.0-142.0","sub-14_ses-01_2","","400","0","fixation","<div class = centerbox><div class = ANT_text>+</div></div>","none","400","test","","","","","","","","",""
"519","71","poldrack-single-stim","178","234788","0.0-143.0","sub-14_ses-01_2","","2100.136","0","stim","<div class = centerbox><div class = ANT_text>+</div></div><div class = ANT_down><img class = ""ANT_img first"" src = /static/experiments/attention_network_task/images/right_arrow.png></img><img class = ANT_img src = /static/experiments/attention_network_task/images/right_arrow.png></img><img class = ANT_img src = /static/experiments/attention_network_task/images/right_arrow.png></img><img class = ANT_img src = /static/experiments/attention_network_task/images/right_arrow.png></img><img class = ANT_img src = /static/experiments/attention_network_task/images/right_arrow.png></img></div></div>","89,71","1700","test","true","71","","right","congruent","down","spatial","44",""
"-1","-1","poldrack-single-stim","179","234907","0.0-144.0","sub-14_ses-01_2","","100","0","spatialcue","<div class = centerbox><div class = ANT_text>+</div></div><div class = centerbox><div class = ANT_down><div class = ANT_text>*</p></div></div>","none","100","test","","","","","","","","",""
"-1","-1","poldrack-single-stim","180","235328","0.0-145.0","sub-14_ses-01_2","","400","0","fixation","<div class = centerbox><div class = ANT_text>+</div></div>","none","400","test","","","","","","","","",""
"551","71","poldrack-single-stim","181","237447","0.0-146.0","sub-14_ses-01_2","","2100","0","stim","<div class = centerbox><div class = ANT_text>+</div></div><div class = ANT_down><img class = ""ANT_img first"" src = /static/experiments/attention_network_task/images/left_arrow.png></img><img class = ANT_img src = /static/experiments/attention_network_task/images/left_arrow.png></img><img class = ANT_img src = /static/experiments/attention_network_task/images/right_arrow.png></img><img class = ANT_img src = /static/experiments/attention_network_task/images/left_arrow.png></img><img class = ANT_img src = /static/experiments/attention_network_task/images/left_arrow.png></img></div></div>","89,71","1700","test","true","71","","right","incongruent","down","spatial","45",""
"-1","-1","poldrack-single-stim","182","237568","0.0-147.0","sub-14_ses-01_2","","100","0","doublecue","<div class = centerbox><div class = ANT_text>+</div></div><div class = ANT_down><div class = ANT_text>*</div></div><div class = ANT_up><div class = ANT_text>*</div><div></div>","none","100","test","","","","","","","","",""
"-1","-1","poldrack-single-stim","183","237988","0.0-148.0","sub-14_ses-01_2","","400","0","fixation","<div class = centerbox><div class = ANT_text>+</div></div>","none","400","test","","","","","","","","",""
"738","89","poldrack-single-stim","184","240107","0.0-149.0","sub-14_ses-01_2","","2100","0","stim","<div class = centerbox><div class = ANT_text>+</div></div><div class = ANT_up><img class = ""ANT_img first"" src = /static/experiments/attention_network_task/images/left_arrow.png></img><img class = ANT_img src = /static/experiments/attention_network_task/images/left_arrow.png></img><img class = ANT_img src = /static/experiments/attention_network_task/images/left_arrow.png></img><img class = ANT_img src = /static/experiments/attention_network_task/images/left_arrow.png></img><img class = ANT_img src = /static/experiments/attention_network_task/images/left_arrow.png></img></div></div>","89,71","1700","test","true","89","","left","congruent","up","double","46",""
"-1","-1","poldrack-single-stim","185","240228","0.0-150.0","sub-14_ses-01_2","","100","0","doublecue","<div class = centerbox><div class = ANT_text>+</div></div><div class = ANT_down><div class = ANT_text>*</div></div><div class = ANT_up><div class = ANT_text>*</div><div></div>","none","100","test","","","","","","","","",""
"-1","-1","poldrack-single-stim","186","240648","0.0-151.0","sub-14_ses-01_2","","400","0","fixation","<div class = centerbox><div class = ANT_text>+</div></div>","none","400","test","","","","","","","","",""
"455","71","poldrack-single-stim","187","242757","0.0-152.0","sub-14_ses-01_2","","2100.136","0","stim","<div class = centerbox><div class = ANT_text>+</div></div><div class = ANT_up><img class = ""ANT_img first"" src = /static/experiments/attention_network_task/images/right_arrow.png></img><img class = ANT_img src = /static/experiments/attention_network_task/images/right_arrow.png></img><img class = ANT_img src = /static/experiments/attention_network_task/images/right_arrow.png></img><img class = ANT_img src = /static/experiments/attention_network_task/images/right_arrow.png></img><img class = ANT_img src = /static/experiments/attention_network_task/images/right_arrow.png></img></div></div>","89,71","1700","test","true","71","","right","congruent","up","double","47",""
"-1","-1","poldrack-single-stim","188","242878","0.0-153.0","sub-14_ses-01_2","","100","0","doublecue","<div class = centerbox><div class = ANT_text>+</div></div><div class = ANT_down><div class = ANT_text>*</div></div><div class = ANT_up><div class = ANT_text>*</div><div></div>","none","100","test","","","","","","","","",""
"-1","-1","poldrack-single-stim","189","243298","0.0-154.0","sub-14_ses-01_2","","400","0","fixation","<div class = centerbox><div class = ANT_text>+</div></div>","none","400","test","","","","","","","","",""
"520","71","poldrack-single-stim","190","245418","0.0-155.0","sub-14_ses-01_2","","2100","0","stim","<div class = centerbox><div class = ANT_text>+</div></div><div class = ANT_down><img class = ""ANT_img first"" src = /static/experiments/attention_network_task/images/right_arrow.png></img><img class = ANT_img src = /static/experiments/attention_network_task/images/right_arrow.png></img><img class = ANT_img src = /static/experiments/attention_network_task/images/right_arrow.png></img><img class = ANT_img src = /static/experiments/attention_network_task/images/right_arrow.png></img><img class = ANT_img src = /static/experiments/attention_network_task/images/right_arrow.png></img></div></div>","89,71","1700","test","true","71","","right","congruent","down","double","48",""
"-1","-1","poldrack-single-stim","191","245537","0.0-156.0","sub-14_ses-01_2","","100","0","doublecue","<div class = centerbox><div class = ANT_text>+</div></div><div class = ANT_down><div class = ANT_text>*</div></div><div class = ANT_up><div class = ANT_text>*</div><div></div>","none","100","test","","","","","","","","",""
"-1","-1","poldrack-single-stim","192","245958","0.0-157.0","sub-14_ses-01_2","","400","0","fixation","<div class = centerbox><div class = ANT_text>+</div></div>","none","400","test","","","","","","","","",""
"569","89","poldrack-single-stim","193","248077","0.0-158.0","sub-14_ses-01_2","","2100.136","0","stim","<div class = centerbox><div class = ANT_text>+</div></div><div class = ANT_up><img class = ""ANT_img first"" src = /static/experiments/attention_network_task/images/left_arrow.png></img><img class = ANT_img src = /static/experiments/attention_network_task/images/left_arrow.png></img><img class = ANT_img src = /static/experiments/attention_network_task/images/left_arrow.png></img><img class = ANT_img src = /static/experiments/attention_network_task/images/left_arrow.png></img><img class = ANT_img src = /static/experiments/attention_network_task/images/left_arrow.png></img></div></div>","89,71","1700","test","true","89","","left","congruent","up","double","49",""
"-1","-1","poldrack-single-stim","194","248198","0.0-159.0","sub-14_ses-01_2","","100","0","doublecue","<div class = centerbox><div class = ANT_text>+</div></div><div class = ANT_down><div class = ANT_text>*</div></div><div class = ANT_up><div class = ANT_text>*</div><div></div>","none","100","test","","","","","","","","",""
"-1","-1","poldrack-single-stim","195","248618","0.0-160.0","sub-14_ses-01_2","","400","0","fixation","<div class = centerbox><div class = ANT_text>+</div></div>","none","400","test","","","","","","","","",""
"619","71","poldrack-single-stim","196","250737","0.0-161.0","sub-14_ses-01_2","","2100","0","stim","<div class = centerbox><div class = ANT_text>+</div></div><div class = ANT_up><img class = ""ANT_img first"" src = /static/experiments/attention_network_task/images/right_arrow.png></img><img class = ANT_img src = /static/experiments/attention_network_task/images/right_arrow.png></img><img class = ANT_img src = /static/experiments/attention_network_task/images/right_arrow.png></img><img class = ANT_img src = /static/experiments/attention_network_task/images/right_arrow.png></img><img class = ANT_img src = /static/experiments/attention_network_task/images/right_arrow.png></img></div></div>","89,71","1700","test","true","71","","right","congruent","up","double","50",""
"-1","-1","poldrack-single-stim","197","250857","0.0-162.0","sub-14_ses-01_2","","100","0","spatialcue","<div class = centerbox><div class = ANT_text>+</div></div><div class = centerbox><div class = ANT_down><div class = ANT_text>*</p></div></div>","none","100","test","","","","","","","","",""
"-1","-1","poldrack-single-stim","198","251278","0.0-163.0","sub-14_ses-01_2","","400","0","fixation","<div class = centerbox><div class = ANT_text>+</div></div>","none","400","test","","","","","","","","",""
"546","89","poldrack-single-stim","199","253398","0.0-164.0","sub-14_ses-01_2","","2100.408","0","stim","<div class = centerbox><div class = ANT_text>+</div></div><div class = ANT_down><img class = ""ANT_img first"" src = /static/experiments/attention_network_task/images/left_arrow.png></img><img class = ANT_img src = /static/experiments/attention_network_task/images/left_arrow.png></img><img class = ANT_img src = /static/experiments/attention_network_task/images/left_arrow.png></img><img class = ANT_img src = /static/experiments/attention_network_task/images/left_arrow.png></img><img class = ANT_img src = /static/experiments/attention_network_task/images/left_arrow.png></img></div></div>","89,71","1700","test","true","89","","left","congruent","down","spatial","51",""
"-1","-1","poldrack-single-stim","200","253518","0.0-165.0","sub-14_ses-01_2","","100","0","spatialcue","<div class = centerbox><div class = ANT_text>+</div></div><div class = centerbox><div class = ANT_down><div class = ANT_text>*</p></div></div>","none","100","test","","","","","","","","",""
"-1","-1","poldrack-single-stim","201","253928","0.0-166.0","sub-14_ses-01_2","","400","0","fixation","<div class = centerbox><div class = ANT_text>+</div></div>","none","400","test","","","","","","","","",""
"609","71","poldrack-single-stim","202","256047","0.0-167.0","sub-14_ses-01_2","","2100","0","stim","<div class = centerbox><div class = ANT_text>+</div></div><div class = ANT_down><img class = ""ANT_img first"" src = /static/experiments/attention_network_task/images/left_arrow.png></img><img class = ANT_img src = /static/experiments/attention_network_task/images/left_arrow.png></img><img class = ANT_img src = /static/experiments/attention_network_task/images/right_arrow.png></img><img class = ANT_img src = /static/experiments/attention_network_task/images/left_arrow.png></img><img class = ANT_img src = /static/experiments/attention_network_task/images/left_arrow.png></img></div></div>","89,71","1700","test","true","71","","right","incongruent","down","spatial","52",""
"-1","-1","poldrack-single-stim","203","256168","0.0-168.0","sub-14_ses-01_2","","100","0","doublecue","<div class = centerbox><div class = ANT_text>+</div></div><div class = ANT_down><div class = ANT_text>*</div></div><div class = ANT_up><div class = ANT_text>*</div><div></div>","none","100","test","","","","","","","","",""
"-1","-1","poldrack-single-stim","204","256587","0.0-169.0","sub-14_ses-01_2","","400","0","fixation","<div class = centerbox><div class = ANT_text>+</div></div>","none","400","test","","","","","","","","",""
"499","71","poldrack-single-stim","205","258708","0.0-170.0","sub-14_ses-01_2","","2100.816","0","stim","<div class = centerbox><div class = ANT_text>+</div></div><div class = ANT_down><img class = ""ANT_img first"" src = /static/experiments/attention_network_task/images/left_arrow.png></img><img class = ANT_img src = /static/experiments/attention_network_task/images/left_arrow.png></img><img class = ANT_img src = /static/experiments/attention_network_task/images/right_arrow.png></img><img class = ANT_img src = /static/experiments/attention_network_task/images/left_arrow.png></img><img class = ANT_img src = /static/experiments/attention_network_task/images/left_arrow.png></img></div></div>","89,71","1700","test","true","71","","right","incongruent","down","double","53",""
"-1","-1","poldrack-single-stim","206","258817","0.0-171.0","sub-14_ses-01_2","","100","0","spatialcue","<div class = centerbox><div class = ANT_text>+</div></div><div class = centerbox><div class = ANT_down><div class = ANT_text>*</p></div></div>","none","100","test","","","","","","","","",""
"-1","-1","poldrack-single-stim","207","259228","0.0-172.0","sub-14_ses-01_2","","400","0","fixation","<div class = centerbox><div class = ANT_text>+</div></div>","none","400","test","","","","","","","","",""
"620","71","poldrack-single-stim","208","261348","0.0-173.0","sub-14_ses-01_2","","2100.68","0","stim","<div class = centerbox><div class = ANT_text>+</div></div><div class = ANT_down><img class = ""ANT_img first"" src = /static/experiments/attention_network_task/images/right_arrow.png></img><img class = ANT_img src = /static/experiments/attention_network_task/images/right_arrow.png></img><img class = ANT_img src = /static/experiments/attention_network_task/images/right_arrow.png></img><img class = ANT_img src = /static/experiments/attention_network_task/images/right_arrow.png></img><img class = ANT_img src = /static/experiments/attention_network_task/images/right_arrow.png></img></div></div>","89,71","1700","test","true","71","","right","congruent","down","spatial","54",""
"-1","-1","poldrack-single-stim","209","261467","0.0-174.0","sub-14_ses-01_2","","100","0","spatialcue","<div class = centerbox><div class = ANT_text>+</div></div><div class = centerbox><div class = ANT_up><div class = ANT_text>*</p></div></div>","none","100","test","","","","","","","","",""
"-1","-1","poldrack-single-stim","210","261888","0.0-175.0","sub-14_ses-01_2","","400","0","fixation","<div class = centerbox><div class = ANT_text>+</div></div>","none","400","test","","","","","","","","",""
"944","71","poldrack-single-stim","211","264007","0.0-176.0","sub-14_ses-01_2","","2100","0","stim","<div class = centerbox><div class = ANT_text>+</div></div><div class = ANT_up><img class = ""ANT_img first"" src = /static/experiments/attention_network_task/images/right_arrow.png></img><img class = ANT_img src = /static/experiments/attention_network_task/images/right_arrow.png></img><img class = ANT_img src = /static/experiments/attention_network_task/images/right_arrow.png></img><img class = ANT_img src = /static/experiments/attention_network_task/images/right_arrow.png></img><img class = ANT_img src = /static/experiments/attention_network_task/images/right_arrow.png></img></div></div>","89,71","1700","test","true","71","","right","congruent","up","spatial","55",""
"-1","-1","poldrack-single-stim","212","264129","0.0-177.0","sub-14_ses-01_2","","100","0","spatialcue","<div class = centerbox><div class = ANT_text>+</div></div><div class = centerbox><div class = ANT_down><div class = ANT_text>*</p></div></div>","none","100","test","","","","","","","","",""
"-1","-1","poldrack-single-stim","213","264548","0.0-178.0","sub-14_ses-01_2","","400","0","fixation","<div class = centerbox><div class = ANT_text>+</div></div>","none","400","test","","","","","","","","",""
"572","71","poldrack-single-stim","214","266667","0.0-179.0","sub-14_ses-01_2","","2100.136","0","stim","<div class = centerbox><div class = ANT_text>+</div></div><div class = ANT_down><img class = ""ANT_img first"" src = /static/experiments/attention_network_task/images/right_arrow.png></img><img class = ANT_img src = /static/experiments/attention_network_task/images/right_arrow.png></img><img class = ANT_img src = /static/experiments/attention_network_task/images/right_arrow.png></img><img class = ANT_img src = /static/experiments/attention_network_task/images/right_arrow.png></img><img class = ANT_img src = /static/experiments/attention_network_task/images/right_arrow.png></img></div></div>","89,71","1700","test","true","71","","right","congruent","down","spatial","56",""
"-1","-1","poldrack-single-stim","215","266787","0.0-180.0","sub-14_ses-01_2","","100","0","doublecue","<div class = centerbox><div class = ANT_text>+</div></div><div class = ANT_down><div class = ANT_text>*</div></div><div class = ANT_up><div class = ANT_text>*</div><div></div>","none","100","test","","","","","","","","",""
"-1","-1","poldrack-single-stim","216","267208","0.0-181.0","sub-14_ses-01_2","","400","0","fixation","<div class = centerbox><div class = ANT_text>+</div></div>","none","400","test","","","","","","","","",""
"603","71","poldrack-single-stim","217","269328","0.0-182.0","sub-14_ses-01_2","","2100.136","0","stim","<div class = centerbox><div class = ANT_text>+</div></div><div class = ANT_down><img class = ""ANT_img first"" src = /static/experiments/attention_network_task/images/left_arrow.png></img><img class = ANT_img src = /static/experiments/attention_network_task/images/left_arrow.png></img><img class = ANT_img src = /static/experiments/attention_network_task/images/right_arrow.png></img><img class = ANT_img src = /static/experiments/attention_network_task/images/left_arrow.png></img><img class = ANT_img src = /static/experiments/attention_network_task/images/left_arrow.png></img></div></div>","89,71","1700","test","true","71","","right","incongruent","down","double","57",""
"-1","-1","poldrack-single-stim","218","269448","0.0-183.0","sub-14_ses-01_2","","100","0","doublecue","<div class = centerbox><div class = ANT_text>+</div></div><div class = ANT_down><div class = ANT_text>*</div></div><div class = ANT_up><div class = ANT_text>*</div><div></div>","none","100","test","","","","","","","","",""
"-1","-1","poldrack-single-stim","219","269867","0.0-184.0","sub-14_ses-01_2","","400","0","fixation","<div class = centerbox><div class = ANT_text>+</div></div>","none","400","test","","","","","","","","",""
"572","71","poldrack-single-stim","220","271988","0.0-185.0","sub-14_ses-01_2","","2100.136","0","stim","<div class = centerbox><div class = ANT_text>+</div></div><div class = ANT_up><img class = ""ANT_img first"" src = /static/experiments/attention_network_task/images/left_arrow.png></img><img class = ANT_img src = /static/experiments/attention_network_task/images/left_arrow.png></img><img class = ANT_img src = /static/experiments/attention_network_task/images/right_arrow.png></img><img class = ANT_img src = /static/experiments/attention_network_task/images/left_arrow.png></img><img class = ANT_img src = /static/experiments/attention_network_task/images/left_arrow.png></img></div></div>","89,71","1700","test","true","71","","right","incongruent","up","double","58",""
"-1","-1","poldrack-single-stim","221","272108","0.0-186.0","sub-14_ses-01_2","","100","0","doublecue","<div class = centerbox><div class = ANT_text>+</div></div><div class = ANT_down><div class = ANT_text>*</div></div><div class = ANT_up><div class = ANT_text>*</div><div></div>","none","100","test","","","","","","","","",""
"-1","-1","poldrack-single-stim","222","272528","0.0-187.0","sub-14_ses-01_2","","400","0","fixation","<div class = centerbox><div class = ANT_text>+</div></div>","none","400","test","","","","","","","","",""
"797","89","poldrack-single-stim","223","274648","0.0-188.0","sub-14_ses-01_2","","2100","0","stim","<div class = centerbox><div class = ANT_text>+</div></div><div class = ANT_up><img class = ""ANT_img first"" src = /static/experiments/attention_network_task/images/right_arrow.png></img><img class = ANT_img src = /static/experiments/attention_network_task/images/right_arrow.png></img><img class = ANT_img src = /static/experiments/attention_network_task/images/left_arrow.png></img><img class = ANT_img src = /static/experiments/attention_network_task/images/right_arrow.png></img><img class = ANT_img src = /static/experiments/attention_network_task/images/right_arrow.png></img></div></div>","89,71","1700","test","true","89","","left","incongruent","up","double","59",""
"-1","-1","poldrack-single-stim","224","274767","0.0-189.0","sub-14_ses-01_2","","100","0","spatialcue","<div class = centerbox><div class = ANT_text>+</div></div><div class = centerbox><div class = ANT_up><div class = ANT_text>*</p></div></div>","none","100","test","","","","","","","","",""
"-1","-1","poldrack-single-stim","225","275189","0.0-190.0","sub-14_ses-01_2","","400","0","fixation","<div class = centerbox><div class = ANT_text>+</div></div>","none","400","test","","","","","","","","",""
"1206","71","poldrack-single-stim","226","277308","0.0-191.0","sub-14_ses-01_2","","2100.136","0","stim","<div class = centerbox><div class = ANT_text>+</div></div><div class = ANT_up><img class = ""ANT_img first"" src = /static/experiments/attention_network_task/images/left_arrow.png></img><img class = ANT_img src = /static/experiments/attention_network_task/images/left_arrow.png></img><img class = ANT_img src = /static/experiments/attention_network_task/images/right_arrow.png></img><img class = ANT_img src = /static/experiments/attention_network_task/images/left_arrow.png></img><img class = ANT_img src = /static/experiments/attention_network_task/images/left_arrow.png></img></div></div>","89,71","1700","test","true","71","","right","incongruent","up","spatial","60",""
"-1","-1","poldrack-single-stim","227","277428","0.0-192.0","sub-14_ses-01_2","","100","0","spatialcue","<div class = centerbox><div class = ANT_text>+</div></div><div class = centerbox><div class = ANT_up><div class = ANT_text>*</p></div></div>","none","100","test","","","","","","","","",""
"-1","-1","poldrack-single-stim","228","277848","0.0-193.0","sub-14_ses-01_2","","400","0","fixation","<div class = centerbox><div class = ANT_text>+</div></div>","none","400","test","","","","","","","","",""
"587","71","poldrack-single-stim","229","279968","0.0-194.0","sub-14_ses-01_2","","2100.952","0","stim","<div class = centerbox><div class = ANT_text>+</div></div><div class = ANT_up><img class = ""ANT_img first"" src = /static/experiments/attention_network_task/images/left_arrow.png></img><img class = ANT_img src = /static/experiments/attention_network_task/images/left_arrow.png></img><img class = ANT_img src = /static/experiments/attention_network_task/images/right_arrow.png></img><img class = ANT_img src = /static/experiments/attention_network_task/images/left_arrow.png></img><img class = ANT_img src = /static/experiments/attention_network_task/images/left_arrow.png></img></div></div>","89,71","1700","test","true","71","","right","incongruent","up","spatial","61",""
"-1","-1","poldrack-single-stim","230","280088","0.0-195.0","sub-14_ses-01_2","","100","0","doublecue","<div class = centerbox><div class = ANT_text>+</div></div><div class = ANT_down><div class = ANT_text>*</div></div><div class = ANT_up><div class = ANT_text>*</div><div></div>","none","100","test","","","","","","","","",""
"-1","-1","poldrack-single-stim","231","280507","0.0-196.0","sub-14_ses-01_2","","400","0","fixation","<div class = centerbox><div class = ANT_text>+</div></div>","none","400","test","","","","","","","","",""
"476","89","poldrack-single-stim","232","282617","0.0-197.0","sub-14_ses-01_2","","2100.136","0","stim","<div class = centerbox><div class = ANT_text>+</div></div><div class = ANT_up><img class = ""ANT_img first"" src = /static/experiments/attention_network_task/images/right_arrow.png></img><img class = ANT_img src = /static/experiments/attention_network_task/images/right_arrow.png></img><img class = ANT_img src = /static/experiments/attention_network_task/images/left_arrow.png></img><img class = ANT_img src = /static/experiments/attention_network_task/images/right_arrow.png></img><img class = ANT_img src = /static/experiments/attention_network_task/images/right_arrow.png></img></div></div>","89,71","1700","test","true","89","","left","incongruent","up","double","62",""
