"rt","key_press","trial_type","trial_index","time_elapsed","internal_node_id","subject","text","block_duration","timing_post_trial","trial_id","responses","stimulus","possible_responses","stim_duration","exp_stage","cue","stim_color","stim_number","task","task_switch","cue_switch","trial_num","correct","correct_response","feedback_duration","exp_id"
"1692","13","text","0","1695","0.0-0.0","sub-09_ses-01_2","","","","","","","","","","","","","","","","","","","",""
"807","89","poldrack-text","1","3520","0.0-1.0","sub-09_ses-01_2","<div class = centerbox><div style = 'font-size: 50px' class = center-text>Veuillez appuyer avec votre index</p></div>","807","500","fmri_response_test","","","","","","","","","","","","","","","",""
"635","71","poldrack-text","2","4662","0.0-2.0","sub-09_ses-01_2","<div class = centerbox><div style = 'font-size: 50px' class = center-text>Veuillez appuyer avec votre majeur</p></div>","635","500","fmri_response_test","","","","","","","","","","","","","","","",""
"6586","","survey-text","3","11795","0.0-3.0","sub-09_ses-01_2","","","","task_setup","{""Q0"":""1"",""Q1"":""2""}","","","","","","","","","","","","","","",""
"8709","32","poldrack-single-stim","4","21518","0.0-4.0","sub-09_ses-01_2","","8709","0","instructions","","<div class = centerbox><div class = center-text style=""font-size:40px""><strong>Couleur</strong> or <strong>Orange-Bleu</strong>: Index si orange et Majeur si bleu.<br><br><strong>Amplitude</strong> ou <strong>Haut-Bas</strong>: Majeur si >5 et Index si <5.</div></div>","32","8709","","","","","","","","","","","",""
"","","call-function","5","21519","0.0-5.0-0.0","sub-09_ses-01_2","","","","set_stims","","","","","","","","","","","","","","","",""
"-1","-1","poldrack-single-stim","6","22035","0.0-5.0-1.0","sub-09_ses-01_2","","500","0","fixation","","<div class = upperbox><div class = fixation>+</div></div><div class = lowerbox><div class = fixation>+</div></div>","none","500","practice","","","","","","","","","","",""
"-1","-1","poldrack-single-stim","7","22958","0.0-5.0-2.0","sub-09_ses-01_2","","900","0","cue","","<div class = upperbox><div class = ""center-text"" >Haut-Bas</div></div><div class = lowerbox><div class = fixation>+</div></div>","none","900","practice","Haut-Bas","orange","1","magnitude","switch","stay","0","","","",""
"-1","-1","poldrack-categorize","8","25485","0.0-5.0-3.0","sub-09_ses-01_2","","2000","0","stim","","<div class = upperbox><div class = ""center-text"" >Haut-Bas</div></div><div class = lowerbox><div class = ""stim-text"" style=color:orange;>1</div>","89,71","1000","practice","Haut-Bas","orange","1","magnitude","switch","stay","0","false","89","500",""
"-1","-1","poldrack-single-stim","9","26005","0.0-5.0-4.0","sub-09_ses-01_2","","500","0","gap",""," ","none","500","practice","","","","","","","","","","",""
"","","call-function","10","26006","0.0-5.0-5.0","sub-09_ses-01_2","","","","set_stims","","","","","","","","","","","","","","","",""
"-1","-1","poldrack-single-stim","11","26525","0.0-5.0-6.0","sub-09_ses-01_2","","500","0","fixation","","<div class = upperbox><div class = fixation>+</div></div><div class = lowerbox><div class = fixation>+</div></div>","none","500","practice","","","","","","","","","","",""
"-1","-1","poldrack-single-stim","12","27447","0.0-5.0-7.0","sub-09_ses-01_2","","900","0","cue","","<div class = upperbox><div class = ""center-text"" >Haut-Bas</div></div><div class = lowerbox><div class = fixation>+</div></div>","none","900","practice","Haut-Bas","orange","1","magnitude","stay","stay","1","","","",""
"608","89","poldrack-categorize","13","29976","0.0-5.0-8.0","sub-09_ses-01_2","","2000","0","stim","","<div class = upperbox><div class = ""center-text"" >Haut-Bas</div></div><div class = lowerbox><div class = ""stim-text"" style=color:orange;>1</div>","89,71","1000","practice","Haut-Bas","orange","1","magnitude","stay","stay","1","true","89","500",""
"-1","-1","poldrack-single-stim","14","30496","0.0-5.0-9.0","sub-09_ses-01_2","","500","0","gap",""," ","none","500","practice","","","","","","","","","","",""
"","","call-function","15","30497","0.0-5.0-10.0","sub-09_ses-01_2","","","","set_stims","","","","","","","","","","","","","","","",""
"-1","-1","poldrack-single-stim","16","31016","0.0-5.0-11.0","sub-09_ses-01_2","","500","0","fixation","","<div class = upperbox><div class = fixation>+</div></div><div class = lowerbox><div class = fixation>+</div></div>","none","500","practice","","","","","","","","","","",""
"-1","-1","poldrack-single-stim","17","31136","0.0-5.0-12.0","sub-09_ses-01_2","","100","0","cue","","<div class = upperbox><div class = ""center-text"" >Couleur</div></div><div class = lowerbox><div class = fixation>+</div></div>","none","100","practice","Couleur","orange","2","color","switch","switch","2","","","",""
"634","89","poldrack-categorize","18","33676","0.0-5.0-13.0","sub-09_ses-01_2","","2000","0","stim","","<div class = upperbox><div class = ""center-text"" >Couleur</div></div><div class = lowerbox><div class = ""stim-text"" style=color:orange;>2</div>","89,71","1000","practice","Couleur","orange","2","color","switch","switch","2","true","89","500",""
"-1","-1","poldrack-single-stim","19","34196","0.0-5.0-14.0","sub-09_ses-01_2","","500","0","gap",""," ","none","500","practice","","","","","","","","","","",""
"","","call-function","20","34196","0.0-5.0-15.0","sub-09_ses-01_2","","","","set_stims","","","","","","","","","","","","","","","",""
"-1","-1","poldrack-single-stim","21","34716","0.0-5.0-16.0","sub-09_ses-01_2","","500","0","fixation","","<div class = upperbox><div class = fixation>+</div></div><div class = lowerbox><div class = fixation>+</div></div>","none","500","practice","","","","","","","","","","",""
"-1","-1","poldrack-single-stim","22","34836","0.0-5.0-17.0","sub-09_ses-01_2","","100","0","cue","","<div class = upperbox><div class = ""center-text"" >Couleur</div></div><div class = lowerbox><div class = fixation>+</div></div>","none","100","practice","Couleur","#1F45FC","7","color","stay","stay","3","","","",""
"640","71","poldrack-categorize","23","37366","0.0-5.0-18.0","sub-09_ses-01_2","","2000","0","stim","","<div class = upperbox><div class = ""center-text"" >Couleur</div></div><div class = lowerbox><div class = ""stim-text"" style=color:#1F45FC;>7</div>","89,71","1000","practice","Couleur","#1F45FC","7","color","stay","stay","3","true","71","500",""
"-1","-1","poldrack-single-stim","24","37885","0.0-5.0-19.0","sub-09_ses-01_2","","500","0","gap",""," ","none","500","practice","","","","","","","","","","",""
"","","call-function","25","37886","0.0-5.0-20.0","sub-09_ses-01_2","","","","set_stims","","","","","","","","","","","","","","","",""
"-1","-1","poldrack-single-stim","26","38405","0.0-5.0-21.0","sub-09_ses-01_2","","500","0","fixation","","<div class = upperbox><div class = fixation>+</div></div><div class = lowerbox><div class = fixation>+</div></div>","none","500","practice","","","","","","","","","","",""
"-1","-1","poldrack-single-stim","27","38526","0.0-5.0-22.0","sub-09_ses-01_2","","100","0","cue","","<div class = upperbox><div class = ""center-text"" >Haut-Bas</div></div><div class = lowerbox><div class = fixation>+</div></div>","none","100","practice","Haut-Bas","orange","1","magnitude","switch","stay","4","","","",""
"609","89","poldrack-categorize","28","41065","0.0-5.0-23.0","sub-09_ses-01_2","","2000","0","stim","","<div class = upperbox><div class = ""center-text"" >Haut-Bas</div></div><div class = lowerbox><div class = ""stim-text"" style=color:orange;>1</div>","89,71","1000","practice","Haut-Bas","orange","1","magnitude","switch","stay","4","true","89","500",""
"-1","-1","poldrack-single-stim","29","41586","0.0-5.0-24.0","sub-09_ses-01_2","","500","0","gap",""," ","none","500","practice","","","","","","","","","","",""
"","","call-function","30","41586","0.0-5.0-25.0","sub-09_ses-01_2","","","","set_stims","","","","","","","","","","","","","","","",""
"-1","-1","poldrack-single-stim","31","42104","0.0-5.0-26.0","sub-09_ses-01_2","","500","0","fixation","","<div class = upperbox><div class = fixation>+</div></div><div class = lowerbox><div class = fixation>+</div></div>","none","500","practice","","","","","","","","","","",""
"-1","-1","poldrack-single-stim","32","42228","0.0-5.0-27.0","sub-09_ses-01_2","","100","0","cue","","<div class = upperbox><div class = ""center-text"" >Haut-Bas</div></div><div class = lowerbox><div class = fixation>+</div></div>","none","100","practice","Haut-Bas","orange","8","magnitude","stay","stay","5","","","",""
"645","71","poldrack-categorize","33","44765","0.0-5.0-28.0","sub-09_ses-01_2","","2000","0","stim","","<div class = upperbox><div class = ""center-text"" >Haut-Bas</div></div><div class = lowerbox><div class = ""stim-text"" style=color:orange;>8</div>","89,71","1000","practice","Haut-Bas","orange","8","magnitude","stay","stay","5","true","71","500",""
"-1","-1","poldrack-single-stim","34","45285","0.0-5.0-29.0","sub-09_ses-01_2","","500","0","gap",""," ","none","500","practice","","","","","","","","","","",""
"","","call-function","35","45285","0.0-5.0-30.0","sub-09_ses-01_2","","","","set_stims","","","","","","","","","","","","","","","",""
"-1","-1","poldrack-single-stim","36","45805","0.0-5.0-31.0","sub-09_ses-01_2","","500","0","fixation","","<div class = upperbox><div class = fixation>+</div></div><div class = lowerbox><div class = fixation>+</div></div>","none","500","practice","","","","","","","","","","",""
"-1","-1","poldrack-single-stim","37","45926","0.0-5.0-32.0","sub-09_ses-01_2","","100","0","cue","","<div class = upperbox><div class = ""center-text"" >Amplitude</div></div><div class = lowerbox><div class = fixation>+</div></div>","none","100","practice","Amplitude","orange","1","magnitude","stay","switch","6","","","",""
"626","89","poldrack-categorize","38","48466","0.0-5.0-33.0","sub-09_ses-01_2","","2000","0","stim","","<div class = upperbox><div class = ""center-text"" >Amplitude</div></div><div class = lowerbox><div class = ""stim-text"" style=color:orange;>1</div>","89,71","1000","practice","Amplitude","orange","1","magnitude","stay","switch","6","true","89","500",""
"-1","-1","poldrack-single-stim","39","48986","0.0-5.0-34.0","sub-09_ses-01_2","","500","0","gap",""," ","none","500","practice","","","","","","","","","","",""
"","","call-function","40","48986","0.0-5.0-35.0","sub-09_ses-01_2","","","","set_stims","","","","","","","","","","","","","","","",""
"-1","-1","poldrack-single-stim","41","49506","0.0-5.0-36.0","sub-09_ses-01_2","","500","0","fixation","","<div class = upperbox><div class = fixation>+</div></div><div class = lowerbox><div class = fixation>+</div></div>","none","500","practice","","","","","","","","","","",""
"-1","-1","poldrack-single-stim","42","50417","0.0-5.0-37.0","sub-09_ses-01_2","","900","0","cue","","<div class = upperbox><div class = ""center-text"" >Couleur</div></div><div class = lowerbox><div class = fixation>+</div></div>","none","900","practice","Couleur","orange","4","color","switch","switch","7","","","",""
"548","89","poldrack-categorize","43","52936","0.0-5.0-38.0","sub-09_ses-01_2","","2000","0","stim","","<div class = upperbox><div class = ""center-text"" >Couleur</div></div><div class = lowerbox><div class = ""stim-text"" style=color:orange;>4</div>","89,71","1000","practice","Couleur","orange","4","color","switch","switch","7","true","89","500",""
"-1","-1","poldrack-single-stim","44","53456","0.0-5.0-39.0","sub-09_ses-01_2","","500","0","gap",""," ","none","500","practice","","","","","","","","","","",""
"","","call-function","45","53456","0.0-5.0-40.0","sub-09_ses-01_2","","","","set_stims","","","","","","","","","","","","","","","",""
"-1","-1","poldrack-single-stim","46","53975","0.0-5.0-41.0","sub-09_ses-01_2","","500","0","fixation","","<div class = upperbox><div class = fixation>+</div></div><div class = lowerbox><div class = fixation>+</div></div>","none","500","practice","","","","","","","","","","",""
"-1","-1","poldrack-single-stim","47","54096","0.0-5.0-42.0","sub-09_ses-01_2","","100","0","cue","","<div class = upperbox><div class = ""center-text"" >Haut-Bas</div></div><div class = lowerbox><div class = fixation>+</div></div>","none","100","practice","Haut-Bas","#1F45FC","6","magnitude","switch","switch","8","","","",""
"893","71","poldrack-categorize","48","56635","0.0-5.0-43.0","sub-09_ses-01_2","","2000","0","stim","","<div class = upperbox><div class = ""center-text"" >Haut-Bas</div></div><div class = lowerbox><div class = ""stim-text"" style=color:#1F45FC;>6</div>","89,71","1000","practice","Haut-Bas","#1F45FC","6","magnitude","switch","switch","8","true","71","500",""
"-1","-1","poldrack-single-stim","49","57156","0.0-5.0-44.0","sub-09_ses-01_2","","500","0","gap",""," ","none","500","practice","","","","","","","","","","",""
"","","call-function","50","57156","0.0-5.0-45.0","sub-09_ses-01_2","","","","set_stims","","","","","","","","","","","","","","","",""
"-1","-1","poldrack-single-stim","51","57676","0.0-5.0-46.0","sub-09_ses-01_2","","500","0","fixation","","<div class = upperbox><div class = fixation>+</div></div><div class = lowerbox><div class = fixation>+</div></div>","none","500","practice","","","","","","","","","","",""
"-1","-1","poldrack-single-stim","52","58596","0.0-5.0-47.0","sub-09_ses-01_2","","900","0","cue","","<div class = upperbox><div class = ""center-text"" >Orange-Bleu</div></div><div class = lowerbox><div class = fixation>+</div></div>","none","900","practice","Orange-Bleu","orange","7","color","switch","switch","9","","","",""
"540","89","poldrack-categorize","53","61125","0.0-5.0-48.0","sub-09_ses-01_2","","2000","0","stim","","<div class = upperbox><div class = ""center-text"" >Orange-Bleu</div></div><div class = lowerbox><div class = ""stim-text"" style=color:orange;>7</div>","89,71","1000","practice","Orange-Bleu","orange","7","color","switch","switch","9","true","89","500",""
"-1","-1","poldrack-single-stim","54","61646","0.0-5.0-49.0","sub-09_ses-01_2","","500","0","gap",""," ","none","500","practice","","","","","","","","","","",""
"","","call-function","55","61647","0.0-5.0-50.0","sub-09_ses-01_2","","","","set_stims","","","","","","","","","","","","","","","",""
"-1","-1","poldrack-single-stim","56","62164","0.0-5.0-51.0","sub-09_ses-01_2","","500","0","fixation","","<div class = upperbox><div class = fixation>+</div></div><div class = lowerbox><div class = fixation>+</div></div>","none","500","practice","","","","","","","","","","",""
"-1","-1","poldrack-single-stim","57","63076","0.0-5.0-52.0","sub-09_ses-01_2","","900","0","cue","","<div class = upperbox><div class = ""center-text"" >Haut-Bas</div></div><div class = lowerbox><div class = fixation>+</div></div>","none","900","practice","Haut-Bas","#1F45FC","3","magnitude","switch","stay","10","","","",""
"516","89","poldrack-categorize","58","65616","0.0-5.0-53.0","sub-09_ses-01_2","","2000","0","stim","","<div class = upperbox><div class = ""center-text"" >Haut-Bas</div></div><div class = lowerbox><div class = ""stim-text"" style=color:#1F45FC;>3</div>","89,71","1000","practice","Haut-Bas","#1F45FC","3","magnitude","switch","stay","10","true","89","500",""
"-1","-1","poldrack-single-stim","59","66136","0.0-5.0-54.0","sub-09_ses-01_2","","500","0","gap",""," ","none","500","practice","","","","","","","","","","",""
"","","call-function","60","66136","0.0-5.0-55.0","sub-09_ses-01_2","","","","set_stims","","","","","","","","","","","","","","","",""
"-1","-1","poldrack-single-stim","61","66654","0.0-5.0-56.0","sub-09_ses-01_2","","500","0","fixation","","<div class = upperbox><div class = fixation>+</div></div><div class = lowerbox><div class = fixation>+</div></div>","none","500","practice","","","","","","","","","","",""
"-1","-1","poldrack-single-stim","62","66776","0.0-5.0-57.0","sub-09_ses-01_2","","100","0","cue","","<div class = upperbox><div class = ""center-text"" >Couleur</div></div><div class = lowerbox><div class = fixation>+</div></div>","none","100","practice","Couleur","orange","8","color","switch","stay","11","","","",""
"999","89","poldrack-categorize","63","69316","0.0-5.0-58.0","sub-09_ses-01_2","","2000","0","stim","","<div class = upperbox><div class = ""center-text"" >Couleur</div></div><div class = lowerbox><div class = ""stim-text"" style=color:orange;>8</div>","89,71","1000","practice","Couleur","orange","8","color","switch","stay","11","true","89","500",""
"-1","-1","poldrack-single-stim","64","69883","0.0-5.0-59.0","sub-09_ses-01_2","","500","0","gap",""," ","none","500","practice","","","","","","","","","","",""
"","","call-function","65","69884","0.0-5.0-60.0","sub-09_ses-01_2","","","","set_stims","","","","","","","","","","","","","","","",""
"-1","-1","poldrack-single-stim","66","70395","0.0-5.0-61.0","sub-09_ses-01_2","","500","0","fixation","","<div class = upperbox><div class = fixation>+</div></div><div class = lowerbox><div class = fixation>+</div></div>","none","500","practice","","","","","","","","","","",""
"-1","-1","poldrack-single-stim","67","71316","0.0-5.0-62.0","sub-09_ses-01_2","","900","0","cue","","<div class = upperbox><div class = ""center-text"" >Couleur</div></div><div class = lowerbox><div class = fixation>+</div></div>","none","900","practice","Couleur","orange","8","color","stay","stay","12","","","",""
"479","89","poldrack-categorize","68","73856","0.0-5.0-63.0","sub-09_ses-01_2","","2000","0","stim","","<div class = upperbox><div class = ""center-text"" >Couleur</div></div><div class = lowerbox><div class = ""stim-text"" style=color:orange;>8</div>","89,71","1000","practice","Couleur","orange","8","color","stay","stay","12","true","89","500",""
"-1","-1","poldrack-single-stim","69","74376","0.0-5.0-64.0","sub-09_ses-01_2","","500","0","gap",""," ","none","500","practice","","","","","","","","","","",""
"","","call-function","70","74376","0.0-5.0-65.0","sub-09_ses-01_2","","","","set_stims","","","","","","","","","","","","","","","",""
"-1","-1","poldrack-single-stim","71","74896","0.0-5.0-66.0","sub-09_ses-01_2","","500","0","fixation","","<div class = upperbox><div class = fixation>+</div></div><div class = lowerbox><div class = fixation>+</div></div>","none","500","practice","","","","","","","","","","",""
"-1","-1","poldrack-single-stim","72","75016","0.0-5.0-67.0","sub-09_ses-01_2","","100","0","cue","","<div class = upperbox><div class = ""center-text"" >Orange-Bleu</div></div><div class = lowerbox><div class = fixation>+</div></div>","none","100","practice","Orange-Bleu","#1F45FC","6","color","stay","switch","13","","","",""
"763","71","poldrack-categorize","73","77555","0.0-5.0-68.0","sub-09_ses-01_2","","2000","0","stim","","<div class = upperbox><div class = ""center-text"" >Orange-Bleu</div></div><div class = lowerbox><div class = ""stim-text"" style=color:#1F45FC;>6</div>","89,71","1000","practice","Orange-Bleu","#1F45FC","6","color","stay","switch","13","true","71","500",""
"-1","-1","poldrack-single-stim","74","78075","0.0-5.0-69.0","sub-09_ses-01_2","","500","0","gap",""," ","none","500","practice","","","","","","","","","","",""
"","","call-function","75","78076","0.0-5.0-70.0","sub-09_ses-01_2","","","","set_stims","","","","","","","","","","","","","","","",""
"-1","-1","poldrack-single-stim","76","78596","0.0-5.0-71.0","sub-09_ses-01_2","","500","0","fixation","","<div class = upperbox><div class = fixation>+</div></div><div class = lowerbox><div class = fixation>+</div></div>","none","500","practice","","","","","","","","","","",""
"-1","-1","poldrack-single-stim","77","79517","0.0-5.0-72.0","sub-09_ses-01_2","","900","0","cue","","<div class = upperbox><div class = ""center-text"" >Couleur</div></div><div class = lowerbox><div class = fixation>+</div></div>","none","900","practice","Couleur","orange","3","color","stay","switch","14","","","",""
"656","89","poldrack-categorize","78","82055","0.0-5.0-73.0","sub-09_ses-01_2","","2000","0","stim","","<div class = upperbox><div class = ""center-text"" >Couleur</div></div><div class = lowerbox><div class = ""stim-text"" style=color:orange;>3</div>","89,71","1000","practice","Couleur","orange","3","color","stay","switch","14","true","89","500",""
"-1","-1","poldrack-single-stim","79","82576","0.0-5.0-74.0","sub-09_ses-01_2","","500","0","gap",""," ","none","500","practice","","","","","","","","","","",""
"","","call-function","80","82576","0.0-5.0-75.0","sub-09_ses-01_2","","","","set_stims","","","","","","","","","","","","","","","",""
"-1","-1","poldrack-single-stim","81","83095","0.0-5.0-76.0","sub-09_ses-01_2","","500","0","fixation","","<div class = upperbox><div class = fixation>+</div></div><div class = lowerbox><div class = fixation>+</div></div>","none","500","practice","","","","","","","","","","",""
"-1","-1","poldrack-single-stim","82","84017","0.0-5.0-77.0","sub-09_ses-01_2","","900","0","cue","","<div class = upperbox><div class = ""center-text"" >Orange-Bleu</div></div><div class = lowerbox><div class = fixation>+</div></div>","none","900","practice","Orange-Bleu","#1F45FC","6","color","stay","switch","15","","","",""
"480","71","poldrack-categorize","83","86536","0.0-5.0-78.0","sub-09_ses-01_2","","2000","0","stim","","<div class = upperbox><div class = ""center-text"" >Orange-Bleu</div></div><div class = lowerbox><div class = ""stim-text"" style=color:#1F45FC;>6</div>","89,71","1000","practice","Orange-Bleu","#1F45FC","6","color","stay","switch","15","true","71","500",""
"-1","-1","poldrack-single-stim","84","87056","0.0-5.0-79.0","sub-09_ses-01_2","","500","0","gap",""," ","none","500","practice","","","","","","","","","","",""
"1185","32","poldrack-text","85","88254","0.0-6.0","sub-09_ses-01_2","<div class = centerbox><div  class = center-text>Scanner Setup</div></div>","1185","0","fmri_scanner_wait","","","","","","","","","","","","","","","",""
"54458","84","poldrack-text","86","142715","0.0-7.0","sub-09_ses-01_2","<div class = centerbox><div style='color:red'; class = center-text>+</div></div>","54458","0","fmri_trigger_wait","","","","","","","","","","","","","","","",""
"-1","-1","poldrack-single-stim","87","143737","0.0-8.0","sub-09_ses-01_2","","1000","0","fmri_buffer","","","none","1000","","","","","","","","","","","",""
"-1","-1","poldrack-single-stim","88","145255","0.0-9.0","sub-09_ses-01_2","","1500","500","test_start_block","","<div class = centerbox><div class = center-text>Preparez-vous!</p></div>","none","1500","","","","","","","","","","","",""
"-1","-1","poldrack-single-stim","89","146296","0.0-10.0","sub-09_ses-01_2","","500","0","fixation","","<div class = upperbox><div class = fixation>+</div></div><div class = lowerbox><div class = fixation>+</div></div>","none","500","test","","","","","","","","","","",""
"","","call-function","90","146297","0.0-11.0","sub-09_ses-01_2","","","","set_stims","","","","","","","","","","","","","","","",""
"-1","-1","poldrack-single-stim","91","146415","0.0-12.0","sub-09_ses-01_2","","100","0","cue","","<div class = upperbox><div class = ""center-text"" >Orange-Bleu</div></div><div class = lowerbox><div class = fixation>+</div></div>","none","100","test","Orange-Bleu","orange","1","color","stay","stay","0","","","",""
"780","89","poldrack-single-stim","92","149655","0.0-13.0","sub-09_ses-01_2","","3224","0","stim","","<div class = upperbox><div class = ""center-text"" >Orange-Bleu</div></div><div class = lowerbox><div class = ""stim-text"" style=color:orange;>1</div>","89,71","1000","test","Orange-Bleu","orange","1","color","stay","stay","0","true","89","",""
"","","call-function","93","149656","0.0-14.0","sub-09_ses-01_2","","","","set_stims","","","","","","","","","","","","","","","",""
"-1","-1","poldrack-single-stim","94","150576","0.0-15.0","sub-09_ses-01_2","","900","0","cue","","<div class = upperbox><div class = ""center-text"" >Amplitude</div></div><div class = lowerbox><div class = fixation>+</div></div>","none","900","test","Amplitude","orange","1","magnitude","switch","switch","1","","","",""
"574","89","poldrack-single-stim","95","152995","0.0-16.0","sub-09_ses-01_2","","2408","0","stim","","<div class = upperbox><div class = ""center-text"" >Amplitude</div></div><div class = lowerbox><div class = ""stim-text"" style=color:orange;>1</div>","89,71","1000","test","Amplitude","orange","1","magnitude","switch","switch","1","true","89","",""
"","","call-function","96","152997","0.0-17.0","sub-09_ses-01_2","","","","set_stims","","","","","","","","","","","","","","","",""
"-1","-1","poldrack-single-stim","97","153916","0.0-18.0","sub-09_ses-01_2","","900","0","cue","","<div class = upperbox><div class = ""center-text"" >Couleur</div></div><div class = lowerbox><div class = fixation>+</div></div>","none","900","test","Couleur","orange","2","color","switch","switch","2","","","",""
"483","89","poldrack-single-stim","98","156746","0.0-19.0","sub-09_ses-01_2","","2816","0","stim","","<div class = upperbox><div class = ""center-text"" >Couleur</div></div><div class = lowerbox><div class = ""stim-text"" style=color:orange;>2</div>","89,71","1000","test","Couleur","orange","2","color","switch","switch","2","true","89","",""
"","","call-function","99","156746","0.0-20.0","sub-09_ses-01_2","","","","set_stims","","","","","","","","","","","","","","","",""
"-1","-1","poldrack-single-stim","100","157665","0.0-21.0","sub-09_ses-01_2","","900","0","cue","","<div class = upperbox><div class = ""center-text"" >Amplitude</div></div><div class = lowerbox><div class = fixation>+</div></div>","none","900","test","Amplitude","#1F45FC","7","magnitude","switch","stay","3","","","",""
"449","71","poldrack-single-stim","101","160076","0.0-22.0","sub-09_ses-01_2","","2408","0","stim","","<div class = upperbox><div class = ""center-text"" >Amplitude</div></div><div class = lowerbox><div class = ""stim-text"" style=color:#1F45FC;>7</div>","89,71","1000","test","Amplitude","#1F45FC","7","magnitude","switch","stay","3","true","71","",""
"","","call-function","102","160077","0.0-23.0","sub-09_ses-01_2","","","","set_stims","","","","","","","","","","","","","","","",""
"-1","-1","poldrack-single-stim","103","160195","0.0-24.0","sub-09_ses-01_2","","100","0","cue","","<div class = upperbox><div class = ""center-text"" >Orange-Bleu</div></div><div class = lowerbox><div class = fixation>+</div></div>","none","100","test","Orange-Bleu","orange","1","color","switch","stay","4","","","",""
"632","89","poldrack-single-stim","104","162345","0.0-25.0","sub-09_ses-01_2","","2136","0","stim","","<div class = upperbox><div class = ""center-text"" >Orange-Bleu</div></div><div class = lowerbox><div class = ""stim-text"" style=color:orange;>1</div>","89,71","1000","test","Orange-Bleu","orange","1","color","switch","stay","4","true","89","",""
"","","call-function","105","162347","0.0-26.0","sub-09_ses-01_2","","","","set_stims","","","","","","","","","","","","","","","",""
"-1","-1","poldrack-single-stim","106","162465","0.0-27.0","sub-09_ses-01_2","","100","0","cue","","<div class = upperbox><div class = ""center-text"" >Orange-Bleu</div></div><div class = lowerbox><div class = fixation>+</div></div>","none","100","test","Orange-Bleu","orange","8","color","stay","stay","5","","","",""
"1209","89","poldrack-single-stim","107","164625","0.0-28.0","sub-09_ses-01_2","","2136","0","stim","","<div class = upperbox><div class = ""center-text"" >Orange-Bleu</div></div><div class = lowerbox><div class = ""stim-text"" style=color:orange;>8</div>","89,71","1000","test","Orange-Bleu","orange","8","color","stay","stay","5","true","89","",""
"","","call-function","108","164626","0.0-29.0","sub-09_ses-01_2","","","","set_stims","","","","","","","","","","","","","","","",""
"-1","-1","poldrack-single-stim","109","165545","0.0-30.0","sub-09_ses-01_2","","900","0","cue","","<div class = upperbox><div class = ""center-text"" >Couleur</div></div><div class = lowerbox><div class = fixation>+</div></div>","none","900","test","Couleur","orange","1","color","stay","switch","6","","","",""
"443","89","poldrack-single-stim","110","167565","0.0-31.0","sub-09_ses-01_2","","2000","0","stim","","<div class = upperbox><div class = ""center-text"" >Couleur</div></div><div class = lowerbox><div class = ""stim-text"" style=color:orange;>1</div>","89,71","1000","test","Couleur","orange","1","color","stay","switch","6","true","89","",""
"","","call-function","111","167567","0.0-32.0","sub-09_ses-01_2","","","","set_stims","","","","","","","","","","","","","","","",""
"-1","-1","poldrack-single-stim","112","167686","0.0-33.0","sub-09_ses-01_2","","100","0","cue","","<div class = upperbox><div class = ""center-text"" >Orange-Bleu</div></div><div class = lowerbox><div class = fixation>+</div></div>","none","100","test","Orange-Bleu","orange","4","color","stay","switch","7","","","",""
"810","89","poldrack-single-stim","113","169695","0.0-34.0","sub-09_ses-01_2","","2000","0","stim","","<div class = upperbox><div class = ""center-text"" >Orange-Bleu</div></div><div class = lowerbox><div class = ""stim-text"" style=color:orange;>4</div>","89,71","1000","test","Orange-Bleu","orange","4","color","stay","switch","7","true","89","",""
"","","call-function","114","169696","0.0-35.0","sub-09_ses-01_2","","","","set_stims","","","","","","","","","","","","","","","",""
"-1","-1","poldrack-single-stim","115","169816","0.0-36.0","sub-09_ses-01_2","","100","0","cue","","<div class = upperbox><div class = ""center-text"" >Amplitude</div></div><div class = lowerbox><div class = fixation>+</div></div>","none","100","test","Amplitude","#1F45FC","6","magnitude","switch","switch","8","","","",""
"796","71","poldrack-single-stim","116","172096","0.0-37.0","sub-09_ses-01_2","","2272","0","stim","","<div class = upperbox><div class = ""center-text"" >Amplitude</div></div><div class = lowerbox><div class = ""stim-text"" style=color:#1F45FC;>6</div>","89,71","1000","test","Amplitude","#1F45FC","6","magnitude","switch","switch","8","true","71","",""
"","","call-function","117","172096","0.0-38.0","sub-09_ses-01_2","","","","set_stims","","","","","","","","","","","","","","","",""
"-1","-1","poldrack-single-stim","118","172216","0.0-39.0","sub-09_ses-01_2","","100","0","cue","","<div class = upperbox><div class = ""center-text"" >Orange-Bleu</div></div><div class = lowerbox><div class = fixation>+</div></div>","none","100","test","Orange-Bleu","orange","7","color","switch","switch","9","","","",""
"758","89","poldrack-single-stim","119","174635","0.0-40.0","sub-09_ses-01_2","","2408","0","stim","","<div class = upperbox><div class = ""center-text"" >Orange-Bleu</div></div><div class = lowerbox><div class = ""stim-text"" style=color:orange;>7</div>","89,71","1000","test","Orange-Bleu","orange","7","color","switch","switch","9","true","89","",""
"","","call-function","120","174636","0.0-41.0","sub-09_ses-01_2","","","","set_stims","","","","","","","","","","","","","","","",""
"-1","-1","poldrack-single-stim","121","174755","0.0-42.0","sub-09_ses-01_2","","100","0","cue","","<div class = upperbox><div class = ""center-text"" >Amplitude</div></div><div class = lowerbox><div class = fixation>+</div></div>","none","100","test","Amplitude","#1F45FC","3","magnitude","switch","stay","10","","","",""
"630","89","poldrack-single-stim","122","176774","0.0-43.0","sub-09_ses-01_2","","2000","0","stim","","<div class = upperbox><div class = ""center-text"" >Amplitude</div></div><div class = lowerbox><div class = ""stim-text"" style=color:#1F45FC;>3</div>","89,71","1000","test","Amplitude","#1F45FC","3","magnitude","switch","stay","10","true","89","",""
"","","call-function","123","176776","0.0-44.0","sub-09_ses-01_2","","","","set_stims","","","","","","","","","","","","","","","",""
"-1","-1","poldrack-single-stim","124","177696","0.0-45.0","sub-09_ses-01_2","","900","0","cue","","<div class = upperbox><div class = ""center-text"" >Haut-Bas</div></div><div class = lowerbox><div class = fixation>+</div></div>","none","900","test","Haut-Bas","orange","8","magnitude","stay","switch","11","","","",""
"509","71","poldrack-single-stim","125","179855","0.0-46.0","sub-09_ses-01_2","","2136","0","stim","","<div class = upperbox><div class = ""center-text"" >Haut-Bas</div></div><div class = lowerbox><div class = ""stim-text"" style=color:orange;>8</div>","89,71","1000","test","Haut-Bas","orange","8","magnitude","stay","switch","11","true","71","",""
"","","call-function","126","179856","0.0-47.0","sub-09_ses-01_2","","","","set_stims","","","","","","","","","","","","","","","",""
"-1","-1","poldrack-single-stim","127","179974","0.0-48.0","sub-09_ses-01_2","","100","0","cue","","<div class = upperbox><div class = ""center-text"" >Orange-Bleu</div></div><div class = lowerbox><div class = fixation>+</div></div>","none","100","test","Orange-Bleu","orange","8","color","switch","switch","12","","","",""
"583","89","poldrack-single-stim","128","181995","0.0-49.0","sub-09_ses-01_2","","2000","0","stim","","<div class = upperbox><div class = ""center-text"" >Orange-Bleu</div></div><div class = lowerbox><div class = ""stim-text"" style=color:orange;>8</div>","89,71","1000","test","Orange-Bleu","orange","8","color","switch","switch","12","true","89","",""
"","","call-function","129","181996","0.0-50.0","sub-09_ses-01_2","","","","set_stims","","","","","","","","","","","","","","","",""
"-1","-1","poldrack-single-stim","130","182116","0.0-51.0","sub-09_ses-01_2","","100","0","cue","","<div class = upperbox><div class = ""center-text"" >Haut-Bas</div></div><div class = lowerbox><div class = fixation>+</div></div>","none","100","test","Haut-Bas","#1F45FC","6","magnitude","switch","switch","13","","","",""
"940","71","poldrack-single-stim","131","184545","0.0-52.0","sub-09_ses-01_2","","2408","0","stim","","<div class = upperbox><div class = ""center-text"" >Haut-Bas</div></div><div class = lowerbox><div class = ""stim-text"" style=color:#1F45FC;>6</div>","89,71","1000","test","Haut-Bas","#1F45FC","6","magnitude","switch","switch","13","true","71","",""
"","","call-function","132","184547","0.0-53.0","sub-09_ses-01_2","","","","set_stims","","","","","","","","","","","","","","","",""
"-1","-1","poldrack-single-stim","133","185466","0.0-54.0","sub-09_ses-01_2","","900","0","cue","","<div class = upperbox><div class = ""center-text"" >Amplitude</div></div><div class = lowerbox><div class = fixation>+</div></div>","none","900","test","Amplitude","orange","3","magnitude","stay","switch","14","","","",""
"476","89","poldrack-single-stim","134","187755","0.0-55.0","sub-09_ses-01_2","","2272","0","stim","","<div class = upperbox><div class = ""center-text"" >Amplitude</div></div><div class = lowerbox><div class = ""stim-text"" style=color:orange;>3</div>","89,71","1000","test","Amplitude","orange","3","magnitude","stay","switch","14","true","89","",""
"","","call-function","135","187756","0.0-56.0","sub-09_ses-01_2","","","","set_stims","","","","","","","","","","","","","","","",""
"-1","-1","poldrack-single-stim","136","187876","0.0-57.0","sub-09_ses-01_2","","100","0","cue","","<div class = upperbox><div class = ""center-text"" >Orange-Bleu</div></div><div class = lowerbox><div class = fixation>+</div></div>","none","100","test","Orange-Bleu","#1F45FC","6","color","switch","stay","15","","","",""
"762","71","poldrack-single-stim","137","189884","0.0-58.0","sub-09_ses-01_2","","2000","0","stim","","<div class = upperbox><div class = ""center-text"" >Orange-Bleu</div></div><div class = lowerbox><div class = ""stim-text"" style=color:#1F45FC;>6</div>","89,71","1000","test","Orange-Bleu","#1F45FC","6","color","switch","stay","15","true","71","",""
"","","call-function","138","189885","0.0-59.0","sub-09_ses-01_2","","","","set_stims","","","","","","","","","","","","","","","",""
"-1","-1","poldrack-single-stim","139","190806","0.0-60.0","sub-09_ses-01_2","","900","0","cue","","<div class = upperbox><div class = ""center-text"" >Couleur</div></div><div class = lowerbox><div class = fixation>+</div></div>","none","900","test","Couleur","orange","6","color","stay","switch","16","","","",""
"569","89","poldrack-single-stim","140","193086","0.0-61.0","sub-09_ses-01_2","","2272","0","stim","","<div class = upperbox><div class = ""center-text"" >Couleur</div></div><div class = lowerbox><div class = ""stim-text"" style=color:orange;>6</div>","89,71","1000","test","Couleur","orange","6","color","stay","switch","16","true","89","",""
"","","call-function","141","193087","0.0-62.0","sub-09_ses-01_2","","","","set_stims","","","","","","","","","","","","","","","",""
"-1","-1","poldrack-single-stim","142","194006","0.0-63.0","sub-09_ses-01_2","","900","0","cue","","<div class = upperbox><div class = ""center-text"" >Amplitude</div></div><div class = lowerbox><div class = fixation>+</div></div>","none","900","test","Amplitude","orange","8","magnitude","switch","stay","17","","","",""
"721","71","poldrack-single-stim","143","196025","0.0-64.0","sub-09_ses-01_2","","2000","0","stim","","<div class = upperbox><div class = ""center-text"" >Amplitude</div></div><div class = lowerbox><div class = ""stim-text"" style=color:orange;>8</div>","89,71","1000","test","Amplitude","orange","8","magnitude","switch","stay","17","true","71","",""
"","","call-function","144","196026","0.0-65.0","sub-09_ses-01_2","","","","set_stims","","","","","","","","","","","","","","","",""
"-1","-1","poldrack-single-stim","145","196146","0.0-66.0","sub-09_ses-01_2","","100","0","cue","","<div class = upperbox><div class = ""center-text"" >Couleur</div></div><div class = lowerbox><div class = fixation>+</div></div>","none","100","test","Couleur","#1F45FC","1","color","switch","switch","18","","","",""
"791","71","poldrack-single-stim","146","198155","0.0-67.0","sub-09_ses-01_2","","2000","0","stim","","<div class = upperbox><div class = ""center-text"" >Couleur</div></div><div class = lowerbox><div class = ""stim-text"" style=color:#1F45FC;>1</div>","89,71","1000","test","Couleur","#1F45FC","1","color","switch","switch","18","true","71","",""
"","","call-function","147","198156","0.0-68.0","sub-09_ses-01_2","","","","set_stims","","","","","","","","","","","","","","","",""
"-1","-1","poldrack-single-stim","148","198275","0.0-69.0","sub-09_ses-01_2","","100","0","cue","","<div class = upperbox><div class = ""center-text"" >Couleur</div></div><div class = lowerbox><div class = fixation>+</div></div>","none","100","test","Couleur","#1F45FC","1","color","stay","stay","19","","","",""
"735","71","poldrack-single-stim","149","200554","0.0-70.0","sub-09_ses-01_2","","2272","0","stim","","<div class = upperbox><div class = ""center-text"" >Couleur</div></div><div class = lowerbox><div class = ""stim-text"" style=color:#1F45FC;>1</div>","89,71","1000","test","Couleur","#1F45FC","1","color","stay","stay","19","true","71","",""
"","","call-function","150","200556","0.0-71.0","sub-09_ses-01_2","","","","set_stims","","","","","","","","","","","","","","","",""
"-1","-1","poldrack-single-stim","151","201476","0.0-72.0","sub-09_ses-01_2","","900","0","cue","","<div class = upperbox><div class = ""center-text"" >Haut-Bas</div></div><div class = lowerbox><div class = fixation>+</div></div>","none","900","test","Haut-Bas","#1F45FC","9","magnitude","switch","stay","20","","","",""
"649","71","poldrack-single-stim","152","203626","0.0-73.0","sub-09_ses-01_2","","2136","0","stim","","<div class = upperbox><div class = ""center-text"" >Haut-Bas</div></div><div class = lowerbox><div class = ""stim-text"" style=color:#1F45FC;>9</div>","89,71","1000","test","Haut-Bas","#1F45FC","9","magnitude","switch","stay","20","true","71","",""
"","","call-function","153","203626","0.0-74.0","sub-09_ses-01_2","","","","set_stims","","","","","","","","","","","","","","","",""
"-1","-1","poldrack-single-stim","154","204546","0.0-75.0","sub-09_ses-01_2","","900","0","cue","","<div class = upperbox><div class = ""center-text"" >Orange-Bleu</div></div><div class = lowerbox><div class = fixation>+</div></div>","none","900","test","Orange-Bleu","#1F45FC","9","color","switch","stay","21","","","",""
"580","71","poldrack-single-stim","155","206555","0.0-76.0","sub-09_ses-01_2","","2000","0","stim","","<div class = upperbox><div class = ""center-text"" >Orange-Bleu</div></div><div class = lowerbox><div class = ""stim-text"" style=color:#1F45FC;>9</div>","89,71","1000","test","Orange-Bleu","#1F45FC","9","color","switch","stay","21","true","71","",""
"","","call-function","156","206556","0.0-77.0","sub-09_ses-01_2","","","","set_stims","","","","","","","","","","","","","","","",""
"-1","-1","poldrack-single-stim","157","207476","0.0-78.0","sub-09_ses-01_2","","900","0","cue","","<div class = upperbox><div class = ""center-text"" >Orange-Bleu</div></div><div class = lowerbox><div class = fixation>+</div></div>","none","900","test","Orange-Bleu","orange","3","color","stay","stay","22","","","",""
"473","89","poldrack-single-stim","158","209495","0.0-79.0","sub-09_ses-01_2","","2000","0","stim","","<div class = upperbox><div class = ""center-text"" >Orange-Bleu</div></div><div class = lowerbox><div class = ""stim-text"" style=color:orange;>3</div>","89,71","1000","test","Orange-Bleu","orange","3","color","stay","stay","22","true","89","",""
"","","call-function","159","209496","0.0-80.0","sub-09_ses-01_2","","","","set_stims","","","","","","","","","","","","","","","",""
"-1","-1","poldrack-single-stim","160","209615","0.0-81.0","sub-09_ses-01_2","","100","0","cue","","<div class = upperbox><div class = ""center-text"" >Haut-Bas</div></div><div class = lowerbox><div class = fixation>+</div></div>","none","100","test","Haut-Bas","#1F45FC","6","magnitude","switch","stay","23","","","",""
"732","71","poldrack-single-stim","161","211685","0.0-82.0","sub-09_ses-01_2","","2000","0","stim","","<div class = upperbox><div class = ""center-text"" >Haut-Bas</div></div><div class = lowerbox><div class = ""stim-text"" style=color:#1F45FC;>6</div>","89,71","1000","test","Haut-Bas","#1F45FC","6","magnitude","switch","stay","23","true","71","",""
"","","call-function","162","211686","0.0-83.0","sub-09_ses-01_2","","","","set_stims","","","","","","","","","","","","","","","",""
"-1","-1","poldrack-single-stim","163","211806","0.0-84.0","sub-09_ses-01_2","","100","0","cue","","<div class = upperbox><div class = ""center-text"" >Amplitude</div></div><div class = lowerbox><div class = fixation>+</div></div>","none","100","test","Amplitude","orange","9","magnitude","stay","switch","24","","","",""
"605","71","poldrack-single-stim","164","213825","0.0-85.0","sub-09_ses-01_2","","2000","0","stim","","<div class = upperbox><div class = ""center-text"" >Amplitude</div></div><div class = lowerbox><div class = ""stim-text"" style=color:orange;>9</div>","89,71","1000","test","Amplitude","orange","9","magnitude","stay","switch","24","true","71","",""
"","","call-function","165","213826","0.0-86.0","sub-09_ses-01_2","","","","set_stims","","","","","","","","","","","","","","","",""
"-1","-1","poldrack-single-stim","166","214735","0.0-87.0","sub-09_ses-01_2","","900","0","cue","","<div class = upperbox><div class = ""center-text"" >Amplitude</div></div><div class = lowerbox><div class = fixation>+</div></div>","none","900","test","Amplitude","#1F45FC","2","magnitude","stay","stay","25","","","",""
"430","89","poldrack-single-stim","167","216755","0.0-88.0","sub-09_ses-01_2","","2000","0","stim","","<div class = upperbox><div class = ""center-text"" >Amplitude</div></div><div class = lowerbox><div class = ""stim-text"" style=color:#1F45FC;>2</div>","89,71","1000","test","Amplitude","#1F45FC","2","magnitude","stay","stay","25","true","89","",""
"","","call-function","168","216756","0.0-89.0","sub-09_ses-01_2","","","","set_stims","","","","","","","","","","","","","","","",""
"-1","-1","poldrack-single-stim","169","216876","0.0-90.0","sub-09_ses-01_2","","100","0","cue","","<div class = upperbox><div class = ""center-text"" >Couleur</div></div><div class = lowerbox><div class = fixation>+</div></div>","none","100","test","Couleur","orange","9","color","switch","stay","26","","","",""
"935","89","poldrack-single-stim","170","219014","0.0-91.0","sub-09_ses-01_2","","2136","0","stim","","<div class = upperbox><div class = ""center-text"" >Couleur</div></div><div class = lowerbox><div class = ""stim-text"" style=color:orange;>9</div>","89,71","1000","test","Couleur","orange","9","color","switch","stay","26","true","89","",""
"","","call-function","171","219016","0.0-92.0","sub-09_ses-01_2","","","","set_stims","","","","","","","","","","","","","","","",""
"-1","-1","poldrack-single-stim","172","219936","0.0-93.0","sub-09_ses-01_2","","900","0","cue","","<div class = upperbox><div class = ""center-text"" >Couleur</div></div><div class = lowerbox><div class = fixation>+</div></div>","none","900","test","Couleur","orange","4","color","stay","stay","27","","","",""
"511","89","poldrack-single-stim","173","221945","0.0-94.0","sub-09_ses-01_2","","2000","0","stim","","<div class = upperbox><div class = ""center-text"" >Couleur</div></div><div class = lowerbox><div class = ""stim-text"" style=color:orange;>4</div>","89,71","1000","test","Couleur","orange","4","color","stay","stay","27","true","89","",""
"","","call-function","174","221946","0.0-95.0","sub-09_ses-01_2","","","","set_stims","","","","","","","","","","","","","","","",""
"-1","-1","poldrack-single-stim","175","222866","0.0-96.0","sub-09_ses-01_2","","900","0","cue","","<div class = upperbox><div class = ""center-text"" >Amplitude</div></div><div class = lowerbox><div class = fixation>+</div></div>","none","900","test","Amplitude","orange","8","magnitude","switch","switch","28","","","",""
"528","71","poldrack-single-stim","176","224884","0.0-97.0","sub-09_ses-01_2","","2000","0","stim","","<div class = upperbox><div class = ""center-text"" >Amplitude</div></div><div class = lowerbox><div class = ""stim-text"" style=color:orange;>8</div>","89,71","1000","test","Amplitude","orange","8","magnitude","switch","switch","28","true","71","",""
"","","call-function","177","224886","0.0-98.0","sub-09_ses-01_2","","","","set_stims","","","","","","","","","","","","","","","",""
"-1","-1","poldrack-single-stim","178","225798","0.0-99.0","sub-09_ses-01_2","","900","0","cue","","<div class = upperbox><div class = ""center-text"" >Haut-Bas</div></div><div class = lowerbox><div class = fixation>+</div></div>","none","900","test","Haut-Bas","#1F45FC","1","magnitude","stay","switch","29","","","",""
"619","89","poldrack-single-stim","179","227945","0.0-100.0","sub-09_ses-01_2","","2136","0","stim","","<div class = upperbox><div class = ""center-text"" >Haut-Bas</div></div><div class = lowerbox><div class = ""stim-text"" style=color:#1F45FC;>1</div>","89,71","1000","test","Haut-Bas","#1F45FC","1","magnitude","stay","switch","29","true","89","",""
"","","call-function","180","227946","0.0-101.0","sub-09_ses-01_2","","","","set_stims","","","","","","","","","","","","","","","",""
"-1","-1","poldrack-single-stim","181","228854","0.0-102.0","sub-09_ses-01_2","","900","0","cue","","<div class = upperbox><div class = ""center-text"" >Amplitude</div></div><div class = lowerbox><div class = fixation>+</div></div>","none","900","test","Amplitude","orange","4","magnitude","stay","switch","30","","","",""
"621","89","poldrack-single-stim","182","230864","0.0-103.0","sub-09_ses-01_2","","2000","0","stim","","<div class = upperbox><div class = ""center-text"" >Amplitude</div></div><div class = lowerbox><div class = ""stim-text"" style=color:orange;>4</div>","89,71","1000","test","Amplitude","orange","4","magnitude","stay","switch","30","true","89","",""
"","","call-function","183","230865","0.0-104.0","sub-09_ses-01_2","","","","set_stims","","","","","","","","","","","","","","","",""
"-1","-1","poldrack-single-stim","184","231776","0.0-105.0","sub-09_ses-01_2","","900","0","cue","","<div class = upperbox><div class = ""center-text"" >Orange-Bleu</div></div><div class = lowerbox><div class = fixation>+</div></div>","none","900","test","Orange-Bleu","#1F45FC","4","color","switch","stay","31","","","",""
"858","71","poldrack-single-stim","185","233925","0.0-106.0","sub-09_ses-01_2","","2136","0","stim","","<div class = upperbox><div class = ""center-text"" >Orange-Bleu</div></div><div class = lowerbox><div class = ""stim-text"" style=color:#1F45FC;>4</div>","89,71","1000","test","Orange-Bleu","#1F45FC","4","color","switch","stay","31","true","71","",""
"","","call-function","186","233925","0.0-107.0","sub-09_ses-01_2","","","","set_stims","","","","","","","","","","","","","","","",""
"-1","-1","poldrack-single-stim","187","234045","0.0-108.0","sub-09_ses-01_2","","100","0","cue","","<div class = upperbox><div class = ""center-text"" >Amplitude</div></div><div class = lowerbox><div class = fixation>+</div></div>","none","100","test","Amplitude","orange","4","magnitude","switch","stay","32","","","",""
"1032","89","poldrack-single-stim","188","236737","0.0-109.0","sub-09_ses-01_2","","2680","0","stim","","<div class = upperbox><div class = ""center-text"" >Amplitude</div></div><div class = lowerbox><div class = ""stim-text"" style=color:orange;>4</div>","89,71","1000","test","Amplitude","orange","4","magnitude","switch","stay","32","true","89","",""
"","","call-function","189","236739","0.0-110.0","sub-09_ses-01_2","","","","set_stims","","","","","","","","","","","","","","","",""
"-1","-1","poldrack-single-stim","190","237655","0.0-111.0","sub-09_ses-01_2","","900","0","cue","","<div class = upperbox><div class = ""center-text"" >Amplitude</div></div><div class = lowerbox><div class = fixation>+</div></div>","none","900","test","Amplitude","#1F45FC","6","magnitude","stay","stay","33","","","",""
"649","71","poldrack-single-stim","191","239935","0.0-112.0","sub-09_ses-01_2","","2272","0","stim","","<div class = upperbox><div class = ""center-text"" >Amplitude</div></div><div class = lowerbox><div class = ""stim-text"" style=color:#1F45FC;>6</div>","89,71","1000","test","Amplitude","#1F45FC","6","magnitude","stay","stay","33","true","71","",""
"","","call-function","192","239936","0.0-113.0","sub-09_ses-01_2","","","","set_stims","","","","","","","","","","","","","","","",""
"-1","-1","poldrack-single-stim","193","240055","0.0-114.0","sub-09_ses-01_2","","100","0","cue","","<div class = upperbox><div class = ""center-text"" >Amplitude</div></div><div class = lowerbox><div class = fixation>+</div></div>","none","100","test","Amplitude","orange","3","magnitude","stay","stay","34","","","",""
"746","89","poldrack-single-stim","194","242195","0.0-115.0","sub-09_ses-01_2","","2136","0","stim","","<div class = upperbox><div class = ""center-text"" >Amplitude</div></div><div class = lowerbox><div class = ""stim-text"" style=color:orange;>3</div>","89,71","1000","test","Amplitude","orange","3","magnitude","stay","stay","34","true","89","",""
"","","call-function","195","242196","0.0-116.0","sub-09_ses-01_2","","","","set_stims","","","","","","","","","","","","","","","",""
"-1","-1","poldrack-single-stim","196","243116","0.0-117.0","sub-09_ses-01_2","","900","0","cue","","<div class = upperbox><div class = ""center-text"" >Orange-Bleu</div></div><div class = lowerbox><div class = fixation>+</div></div>","none","900","test","Orange-Bleu","#1F45FC","4","color","switch","switch","35","","","",""
"656","71","poldrack-single-stim","197","245135","0.0-118.0","sub-09_ses-01_2","","2000","0","stim","","<div class = upperbox><div class = ""center-text"" >Orange-Bleu</div></div><div class = lowerbox><div class = ""stim-text"" style=color:#1F45FC;>4</div>","89,71","1000","test","Orange-Bleu","#1F45FC","4","color","switch","switch","35","true","71","",""
"","","call-function","198","245136","0.0-119.0","sub-09_ses-01_2","","","","set_stims","","","","","","","","","","","","","","","",""
"-1","-1","poldrack-single-stim","199","245255","0.0-120.0","sub-09_ses-01_2","","100","0","cue","","<div class = upperbox><div class = ""center-text"" >Amplitude</div></div><div class = lowerbox><div class = fixation>+</div></div>","none","100","test","Amplitude","#1F45FC","1","magnitude","switch","switch","36","","","",""
"836","89","poldrack-single-stim","200","247395","0.0-121.0","sub-09_ses-01_2","","2136","0","stim","","<div class = upperbox><div class = ""center-text"" >Amplitude</div></div><div class = lowerbox><div class = ""stim-text"" style=color:#1F45FC;>1</div>","89,71","1000","test","Amplitude","#1F45FC","1","magnitude","switch","switch","36","true","89","",""
"","","call-function","201","247395","0.0-122.0","sub-09_ses-01_2","","","","set_stims","","","","","","","","","","","","","","","",""
"-1","-1","poldrack-single-stim","202","247515","0.0-123.0","sub-09_ses-01_2","","100","0","cue","","<div class = upperbox><div class = ""center-text"" >Orange-Bleu</div></div><div class = lowerbox><div class = fixation>+</div></div>","none","100","test","Orange-Bleu","orange","4","color","switch","stay","37","","","",""
"1074","89","poldrack-single-stim","203","250215","0.0-124.0","sub-09_ses-01_2","","2680","0","stim","","<div class = upperbox><div class = ""center-text"" >Orange-Bleu</div></div><div class = lowerbox><div class = ""stim-text"" style=color:orange;>4</div>","89,71","1000","test","Orange-Bleu","orange","4","color","switch","stay","37","true","89","",""
"","","call-function","204","250216","0.0-125.0","sub-09_ses-01_2","","","","set_stims","","","","","","","","","","","","","","","",""
"-1","-1","poldrack-single-stim","205","251136","0.0-126.0","sub-09_ses-01_2","","900","0","cue","","<div class = upperbox><div class = ""center-text"" >Haut-Bas</div></div><div class = lowerbox><div class = fixation>+</div></div>","none","900","test","Haut-Bas","orange","9","magnitude","switch","switch","38","","","",""
"540","71","poldrack-single-stim","206","253425","0.0-127.0","sub-09_ses-01_2","","2272","0","stim","","<div class = upperbox><div class = ""center-text"" >Haut-Bas</div></div><div class = lowerbox><div class = ""stim-text"" style=color:orange;>9</div>","89,71","1000","test","Haut-Bas","orange","9","magnitude","switch","switch","38","true","71","",""
"","","call-function","207","253426","0.0-128.0","sub-09_ses-01_2","","","","set_stims","","","","","","","","","","","","","","","",""
"-1","-1","poldrack-single-stim","208","254346","0.0-129.0","sub-09_ses-01_2","","900","0","cue","","<div class = upperbox><div class = ""center-text"" >Amplitude</div></div><div class = lowerbox><div class = fixation>+</div></div>","none","900","test","Amplitude","#1F45FC","3","magnitude","stay","switch","39","","","",""
"420","89","poldrack-single-stim","209","256365","0.0-130.0","sub-09_ses-01_2","","2000","0","stim","","<div class = upperbox><div class = ""center-text"" >Amplitude</div></div><div class = lowerbox><div class = ""stim-text"" style=color:#1F45FC;>3</div>","89,71","1000","test","Amplitude","#1F45FC","3","magnitude","stay","switch","39","true","89","",""
"","","call-function","210","256366","0.0-131.0","sub-09_ses-01_2","","","","set_stims","","","","","","","","","","","","","","","",""
"-1","-1","poldrack-single-stim","211","257284","0.0-132.0","sub-09_ses-01_2","","900","0","cue","","<div class = upperbox><div class = ""center-text"" >Orange-Bleu</div></div><div class = lowerbox><div class = fixation>+</div></div>","none","900","test","Orange-Bleu","orange","6","color","switch","stay","40","","","",""
"1035","89","poldrack-single-stim","212","259305","0.0-133.0","sub-09_ses-01_2","","2000","0","stim","","<div class = upperbox><div class = ""center-text"" >Orange-Bleu</div></div><div class = lowerbox><div class = ""stim-text"" style=color:orange;>6</div>","89,71","1000","test","Orange-Bleu","orange","6","color","switch","stay","40","true","89","",""
"","","call-function","213","259306","0.0-134.0","sub-09_ses-01_2","","","","set_stims","","","","","","","","","","","","","","","",""
"-1","-1","poldrack-single-stim","214","260224","0.0-135.0","sub-09_ses-01_2","","900","0","cue","","<div class = upperbox><div class = ""center-text"" >Orange-Bleu</div></div><div class = lowerbox><div class = fixation>+</div></div>","none","900","test","Orange-Bleu","#1F45FC","2","color","stay","stay","41","","","",""
"587","71","poldrack-single-stim","215","262364","0.0-136.0","sub-09_ses-01_2","","2136","0","stim","","<div class = upperbox><div class = ""center-text"" >Orange-Bleu</div></div><div class = lowerbox><div class = ""stim-text"" style=color:#1F45FC;>2</div>","89,71","1000","test","Orange-Bleu","#1F45FC","2","color","stay","stay","41","true","71","",""
"","","call-function","216","262366","0.0-137.0","sub-09_ses-01_2","","","","set_stims","","","","","","","","","","","","","","","",""
"-1","-1","poldrack-single-stim","217","262485","0.0-138.0","sub-09_ses-01_2","","100","0","cue","","<div class = upperbox><div class = ""center-text"" >Orange-Bleu</div></div><div class = lowerbox><div class = fixation>+</div></div>","none","100","test","Orange-Bleu","#1F45FC","9","color","stay","stay","42","","","",""
"706","71","poldrack-single-stim","218","264495","0.0-139.0","sub-09_ses-01_2","","2000","0","stim","","<div class = upperbox><div class = ""center-text"" >Orange-Bleu</div></div><div class = lowerbox><div class = ""stim-text"" style=color:#1F45FC;>9</div>","89,71","1000","test","Orange-Bleu","#1F45FC","9","color","stay","stay","42","true","71","",""
"","","call-function","219","264495","0.0-140.0","sub-09_ses-01_2","","","","set_stims","","","","","","","","","","","","","","","",""
"-1","-1","poldrack-single-stim","220","265415","0.0-141.0","sub-09_ses-01_2","","900","0","cue","","<div class = upperbox><div class = ""center-text"" >Orange-Bleu</div></div><div class = lowerbox><div class = fixation>+</div></div>","none","900","test","Orange-Bleu","#1F45FC","6","color","stay","stay","43","","","",""
"524","71","poldrack-single-stim","221","267424","0.0-142.0","sub-09_ses-01_2","","2000","0","stim","","<div class = upperbox><div class = ""center-text"" >Orange-Bleu</div></div><div class = lowerbox><div class = ""stim-text"" style=color:#1F45FC;>6</div>","89,71","1000","test","Orange-Bleu","#1F45FC","6","color","stay","stay","43","true","71","",""
"","","call-function","222","267425","0.0-143.0","sub-09_ses-01_2","","","","set_stims","","","","","","","","","","","","","","","",""
"-1","-1","poldrack-single-stim","223","268345","0.0-144.0","sub-09_ses-01_2","","900","0","cue","","<div class = upperbox><div class = ""center-text"" >Couleur</div></div><div class = lowerbox><div class = fixation>+</div></div>","none","900","test","Couleur","#1F45FC","7","color","stay","switch","44","","","",""
"533","71","poldrack-single-stim","224","270354","0.0-145.0","sub-09_ses-01_2","","2000","0","stim","","<div class = upperbox><div class = ""center-text"" >Couleur</div></div><div class = lowerbox><div class = ""stim-text"" style=color:#1F45FC;>7</div>","89,71","1000","test","Couleur","#1F45FC","7","color","stay","switch","44","true","71","",""
"","","call-function","225","270356","0.0-146.0","sub-09_ses-01_2","","","","set_stims","","","","","","","","","","","","","","","",""
"-1","-1","poldrack-single-stim","226","271266","0.0-147.0","sub-09_ses-01_2","","900","0","cue","","<div class = upperbox><div class = ""center-text"" >Amplitude</div></div><div class = lowerbox><div class = fixation>+</div></div>","none","900","test","Amplitude","#1F45FC","6","magnitude","switch","stay","45","","","",""
"469","71","poldrack-single-stim","227","273566","0.0-148.0","sub-09_ses-01_2","","2272","0","stim","","<div class = upperbox><div class = ""center-text"" >Amplitude</div></div><div class = lowerbox><div class = ""stim-text"" style=color:#1F45FC;>6</div>","89,71","1000","test","Amplitude","#1F45FC","6","magnitude","switch","stay","45","true","71","",""
"","","call-function","228","273567","0.0-149.0","sub-09_ses-01_2","","","","set_stims","","","","","","","","","","","","","","","",""
"-1","-1","poldrack-single-stim","229","274476","0.0-150.0","sub-09_ses-01_2","","900","0","cue","","<div class = upperbox><div class = ""center-text"" >Couleur</div></div><div class = lowerbox><div class = fixation>+</div></div>","none","900","test","Couleur","#1F45FC","4","color","switch","switch","46","","","",""
"580","71","poldrack-single-stim","230","276895","0.0-151.0","sub-09_ses-01_2","","2408","0","stim","","<div class = upperbox><div class = ""center-text"" >Couleur</div></div><div class = lowerbox><div class = ""stim-text"" style=color:#1F45FC;>4</div>","89,71","1000","test","Couleur","#1F45FC","4","color","switch","switch","46","true","71","",""
"","","call-function","231","276895","0.0-152.0","sub-09_ses-01_2","","","","set_stims","","","","","","","","","","","","","","","",""
"-1","-1","poldrack-single-stim","232","277016","0.0-153.0","sub-09_ses-01_2","","100","0","cue","","<div class = upperbox><div class = ""center-text"" >Couleur</div></div><div class = lowerbox><div class = fixation>+</div></div>","none","100","test","Couleur","orange","8","color","stay","stay","47","","","",""
"598","89","poldrack-single-stim","233","279035","0.0-154.0","sub-09_ses-01_2","","2000","0","stim","","<div class = upperbox><div class = ""center-text"" >Couleur</div></div><div class = lowerbox><div class = ""stim-text"" style=color:orange;>8</div>","89,71","1000","test","Couleur","orange","8","color","stay","stay","47","true","89","",""
"","","call-function","234","279037","0.0-155.0","sub-09_ses-01_2","","","","set_stims","","","","","","","","","","","","","","","",""
"-1","-1","poldrack-single-stim","235","279156","0.0-156.0","sub-09_ses-01_2","","100","0","cue","","<div class = upperbox><div class = ""center-text"" >Couleur</div></div><div class = lowerbox><div class = fixation>+</div></div>","none","100","test","Couleur","#1F45FC","1","color","stay","stay","48","","","",""
"1268","71","poldrack-single-stim","236","281165","0.0-157.0","sub-09_ses-01_2","","2000","0","stim","","<div class = upperbox><div class = ""center-text"" >Couleur</div></div><div class = lowerbox><div class = ""stim-text"" style=color:#1F45FC;>1</div>","89,71","1000","test","Couleur","#1F45FC","1","color","stay","stay","48","true","71","",""
"","","call-function","237","281166","0.0-158.0","sub-09_ses-01_2","","","","set_stims","","","","","","","","","","","","","","","",""
"-1","-1","poldrack-single-stim","238","282076","0.0-159.0","sub-09_ses-01_2","","900","0","cue","","<div class = upperbox><div class = ""center-text"" >Haut-Bas</div></div><div class = lowerbox><div class = fixation>+</div></div>","none","900","test","Haut-Bas","#1F45FC","4","magnitude","switch","switch","49","","","",""
"675","89","poldrack-single-stim","239","284092","0.0-160.0","sub-09_ses-01_2","","2000","0","stim","","<div class = upperbox><div class = ""center-text"" >Haut-Bas</div></div><div class = lowerbox><div class = ""stim-text"" style=color:#1F45FC;>4</div>","89,71","1000","test","Haut-Bas","#1F45FC","4","magnitude","switch","switch","49","true","89","",""
"","","call-function","240","284094","0.0-161.0","sub-09_ses-01_2","","","","set_stims","","","","","","","","","","","","","","","",""
"-1","-1","poldrack-single-stim","241","285006","0.0-162.0","sub-09_ses-01_2","","900","0","cue","","<div class = upperbox><div class = ""center-text"" >Couleur</div></div><div class = lowerbox><div class = fixation>+</div></div>","none","900","test","Couleur","orange","9","color","switch","stay","50","","","",""
"449","89","poldrack-single-stim","242","287294","0.0-163.0","sub-09_ses-01_2","","2272","0","stim","","<div class = upperbox><div class = ""center-text"" >Couleur</div></div><div class = lowerbox><div class = ""stim-text"" style=color:orange;>9</div>","89,71","1000","test","Couleur","orange","9","color","switch","stay","50","true","89","",""
"","","call-function","243","287294","0.0-164.0","sub-09_ses-01_2","","","","set_stims","","","","","","","","","","","","","","","",""
"-1","-1","poldrack-single-stim","244","288216","0.0-165.0","sub-09_ses-01_2","","900","0","cue","","<div class = upperbox><div class = ""center-text"" >Couleur</div></div><div class = lowerbox><div class = fixation>+</div></div>","none","900","test","Couleur","#1F45FC","1","color","stay","stay","51","","","",""
"614","71","poldrack-single-stim","245","290355","0.0-166.0","sub-09_ses-01_2","","2136","0","stim","","<div class = upperbox><div class = ""center-text"" >Couleur</div></div><div class = lowerbox><div class = ""stim-text"" style=color:#1F45FC;>1</div>","89,71","1000","test","Couleur","#1F45FC","1","color","stay","stay","51","true","71","",""
"","","call-function","246","290356","0.0-167.0","sub-09_ses-01_2","","","","set_stims","","","","","","","","","","","","","","","",""
"-1","-1","poldrack-single-stim","247","290476","0.0-168.0","sub-09_ses-01_2","","100","0","cue","","<div class = upperbox><div class = ""center-text"" >Amplitude</div></div><div class = lowerbox><div class = fixation>+</div></div>","none","100","test","Amplitude","orange","3","magnitude","switch","switch","52","","","",""
"819","89","poldrack-single-stim","248","292496","0.0-169.0","sub-09_ses-01_2","","2000","0","stim","","<div class = upperbox><div class = ""center-text"" >Amplitude</div></div><div class = lowerbox><div class = ""stim-text"" style=color:orange;>3</div>","89,71","1000","test","Amplitude","orange","3","magnitude","switch","switch","52","true","89","",""
"","","call-function","249","292496","0.0-170.0","sub-09_ses-01_2","","","","set_stims","","","","","","","","","","","","","","","",""
"-1","-1","poldrack-single-stim","250","292615","0.0-171.0","sub-09_ses-01_2","","100","0","cue","","<div class = upperbox><div class = ""center-text"" >Haut-Bas</div></div><div class = lowerbox><div class = fixation>+</div></div>","none","100","test","Haut-Bas","#1F45FC","6","magnitude","stay","switch","53","","","",""
"790","71","poldrack-single-stim","251","295175","0.0-172.0","sub-09_ses-01_2","","2544","0","stim","","<div class = upperbox><div class = ""center-text"" >Haut-Bas</div></div><div class = lowerbox><div class = ""stim-text"" style=color:#1F45FC;>6</div>","89,71","1000","test","Haut-Bas","#1F45FC","6","magnitude","stay","switch","53","true","71","",""
"","","call-function","252","295176","0.0-173.0","sub-09_ses-01_2","","","","set_stims","","","","","","","","","","","","","","","",""
"-1","-1","poldrack-single-stim","253","295296","0.0-174.0","sub-09_ses-01_2","","100","0","cue","","<div class = upperbox><div class = ""center-text"" >Orange-Bleu</div></div><div class = lowerbox><div class = fixation>+</div></div>","none","100","test","Orange-Bleu","#1F45FC","9","color","switch","stay","54","","","",""
"623","89","poldrack-single-stim","254","297586","0.0-175.0","sub-09_ses-01_2","","2272","0","stim","","<div class = upperbox><div class = ""center-text"" >Orange-Bleu</div></div><div class = lowerbox><div class = ""stim-text"" style=color:#1F45FC;>9</div>","89,71","1000","test","Orange-Bleu","#1F45FC","9","color","switch","stay","54","false","71","",""
"","","call-function","255","297586","0.0-176.0","sub-09_ses-01_2","","","","set_stims","","","","","","","","","","","","","","","",""
"-1","-1","poldrack-single-stim","256","298507","0.0-177.0","sub-09_ses-01_2","","900","0","cue","","<div class = upperbox><div class = ""center-text"" >Orange-Bleu</div></div><div class = lowerbox><div class = fixation>+</div></div>","none","900","test","Orange-Bleu","orange","8","color","stay","stay","55","","","",""
"462","89","poldrack-single-stim","257","300785","0.0-178.0","sub-09_ses-01_2","","2272","0","stim","","<div class = upperbox><div class = ""center-text"" >Orange-Bleu</div></div><div class = lowerbox><div class = ""stim-text"" style=color:orange;>8</div>","89,71","1000","test","Orange-Bleu","orange","8","color","stay","stay","55","true","89","",""
"","","call-function","258","300787","0.0-179.0","sub-09_ses-01_2","","","","set_stims","","","","","","","","","","","","","","","",""
"-1","-1","poldrack-single-stim","259","300907","0.0-180.0","sub-09_ses-01_2","","100","0","cue","","<div class = upperbox><div class = ""center-text"" >Couleur</div></div><div class = lowerbox><div class = fixation>+</div></div>","none","100","test","Couleur","orange","1","color","stay","switch","56","","","",""
"735","89","poldrack-single-stim","260","302915","0.0-181.0","sub-09_ses-01_2","","2000","0","stim","","<div class = upperbox><div class = ""center-text"" >Couleur</div></div><div class = lowerbox><div class = ""stim-text"" style=color:orange;>1</div>","89,71","1000","test","Couleur","orange","1","color","stay","switch","56","true","89","",""
"","","call-function","261","302916","0.0-182.0","sub-09_ses-01_2","","","","set_stims","","","","","","","","","","","","","","","",""
"-1","-1","poldrack-single-stim","262","303035","0.0-183.0","sub-09_ses-01_2","","100","0","cue","","<div class = upperbox><div class = ""center-text"" >Couleur</div></div><div class = lowerbox><div class = fixation>+</div></div>","none","100","test","Couleur","orange","1","color","stay","stay","57","","","",""
"581","89","poldrack-single-stim","263","305045","0.0-184.0","sub-09_ses-01_2","","2000","0","stim","","<div class = upperbox><div class = ""center-text"" >Couleur</div></div><div class = lowerbox><div class = ""stim-text"" style=color:orange;>1</div>","89,71","1000","test","Couleur","orange","1","color","stay","stay","57","true","89","",""
"","","call-function","264","305046","0.0-185.0","sub-09_ses-01_2","","","","set_stims","","","","","","","","","","","","","","","",""
"-1","-1","poldrack-single-stim","265","305165","0.0-186.0","sub-09_ses-01_2","","100","0","cue","","<div class = upperbox><div class = ""center-text"" >Haut-Bas</div></div><div class = lowerbox><div class = fixation>+</div></div>","none","100","test","Haut-Bas","#1F45FC","7","magnitude","switch","switch","58","","","",""
"632","71","poldrack-single-stim","266","307305","0.0-187.0","sub-09_ses-01_2","","2136","0","stim","","<div class = upperbox><div class = ""center-text"" >Haut-Bas</div></div><div class = lowerbox><div class = ""stim-text"" style=color:#1F45FC;>7</div>","89,71","1000","test","Haut-Bas","#1F45FC","7","magnitude","switch","switch","58","true","71","",""
"","","call-function","267","307306","0.0-188.0","sub-09_ses-01_2","","","","set_stims","","","","","","","","","","","","","","","",""
"-1","-1","poldrack-single-stim","268","308226","0.0-189.0","sub-09_ses-01_2","","900","0","cue","","<div class = upperbox><div class = ""center-text"" >Couleur</div></div><div class = lowerbox><div class = fixation>+</div></div>","none","900","test","Couleur","orange","7","color","switch","stay","59","","","",""
"641","89","poldrack-single-stim","269","310235","0.0-190.0","sub-09_ses-01_2","","2000","0","stim","","<div class = upperbox><div class = ""center-text"" >Couleur</div></div><div class = lowerbox><div class = ""stim-text"" style=color:orange;>7</div>","89,71","1000","test","Couleur","orange","7","color","switch","stay","59","true","89","",""
"","","call-function","270","310236","0.0-191.0","sub-09_ses-01_2","","","","set_stims","","","","","","","","","","","","","","","",""
"-1","-1","poldrack-single-stim","271","311156","0.0-192.0","sub-09_ses-01_2","","900","0","cue","","<div class = upperbox><div class = ""center-text"" >Orange-Bleu</div></div><div class = lowerbox><div class = fixation>+</div></div>","none","900","test","Orange-Bleu","orange","6","color","stay","switch","60","","","",""
"918","89","poldrack-single-stim","272","313315","0.0-193.0","sub-09_ses-01_2","","2136","0","stim","","<div class = upperbox><div class = ""center-text"" >Orange-Bleu</div></div><div class = lowerbox><div class = ""stim-text"" style=color:orange;>6</div>","89,71","1000","test","Orange-Bleu","orange","6","color","stay","switch","60","true","89","",""
"","","call-function","273","313316","0.0-194.0","sub-09_ses-01_2","","","","set_stims","","","","","","","","","","","","","","","",""
"-1","-1","poldrack-single-stim","274","313436","0.0-195.0","sub-09_ses-01_2","","100","0","cue","","<div class = upperbox><div class = ""center-text"" >Haut-Bas</div></div><div class = lowerbox><div class = fixation>+</div></div>","none","100","test","Haut-Bas","orange","8","magnitude","switch","stay","61","","","",""
"939","71","poldrack-single-stim","275","315715","0.0-196.0","sub-09_ses-01_2","","2272","0","stim","","<div class = upperbox><div class = ""center-text"" >Haut-Bas</div></div><div class = lowerbox><div class = ""stim-text"" style=color:orange;>8</div>","89,71","1000","test","Haut-Bas","orange","8","magnitude","switch","stay","61","true","71","",""
"","","call-function","276","315717","0.0-197.0","sub-09_ses-01_2","","","","set_stims","","","","","","","","","","","","","","","",""
"-1","-1","poldrack-single-stim","277","316636","0.0-198.0","sub-09_ses-01_2","","900","0","cue","","<div class = upperbox><div class = ""center-text"" >Couleur</div></div><div class = lowerbox><div class = fixation>+</div></div>","none","900","test","Couleur","orange","1","color","switch","switch","62","","","",""
"871","89","poldrack-single-stim","278","318785","0.0-199.0","sub-09_ses-01_2","","2136","0","stim","","<div class = upperbox><div class = ""center-text"" >Couleur</div></div><div class = lowerbox><div class = ""stim-text"" style=color:orange;>1</div>","89,71","1000","test","Couleur","orange","1","color","switch","switch","62","true","89","",""
"","","call-function","279","318786","0.0-200.0","sub-09_ses-01_2","","","","set_stims","","","","","","","","","","","","","","","",""
"-1","-1","poldrack-single-stim","280","318906","0.0-201.0","sub-09_ses-01_2","","100","0","cue","","<div class = upperbox><div class = ""center-text"" >Couleur</div></div><div class = lowerbox><div class = fixation>+</div></div>","none","100","test","Couleur","orange","2","color","stay","stay","63","","","",""
"1093","89","poldrack-single-stim","281","321195","0.0-202.0","sub-09_ses-01_2","","2272","0","stim","","<div class = upperbox><div class = ""center-text"" >Couleur</div></div><div class = lowerbox><div class = ""stim-text"" style=color:orange;>2</div>","89,71","1000","test","Couleur","orange","2","color","stay","stay","63","true","89","",""
"","","call-function","282","321196","0.0-203.0","sub-09_ses-01_2","","","","set_stims","","","","","","","","","","","","","","","",""
"-1","-1","poldrack-single-stim","283","321316","0.0-204.0","sub-09_ses-01_2","","100","0","cue","","<div class = upperbox><div class = ""center-text"" >Haut-Bas</div></div><div class = lowerbox><div class = fixation>+</div></div>","none","100","test","Haut-Bas","#1F45FC","4","magnitude","switch","switch","64","","","",""
"1152","89","poldrack-single-stim","284","323325","0.0-205.0","sub-09_ses-01_2","","2000","0","stim","","<div class = upperbox><div class = ""center-text"" >Haut-Bas</div></div><div class = lowerbox><div class = ""stim-text"" style=color:#1F45FC;>4</div>","89,71","1000","test","Haut-Bas","#1F45FC","4","magnitude","switch","switch","64","true","89","",""
"","","call-function","285","323326","0.0-206.0","sub-09_ses-01_2","","","","set_stims","","","","","","","","","","","","","","","",""
"-1","-1","poldrack-single-stim","286","324236","0.0-207.0","sub-09_ses-01_2","","900","0","cue","","<div class = upperbox><div class = ""center-text"" >Haut-Bas</div></div><div class = lowerbox><div class = fixation>+</div></div>","none","900","test","Haut-Bas","orange","3","magnitude","stay","stay","65","","","",""
"-1","-1","poldrack-single-stim","287","327065","0.0-208.0","sub-09_ses-01_2","","2816","0","stim","","<div class = upperbox><div class = ""center-text"" >Haut-Bas</div></div><div class = lowerbox><div class = ""stim-text"" style=color:orange;>3</div>","89,71","1000","test","Haut-Bas","orange","3","magnitude","stay","stay","65","false","89","",""
"","","call-function","288","327066","0.0-209.0","sub-09_ses-01_2","","","","set_stims","","","","","","","","","","","","","","","",""
"-1","-1","poldrack-single-stim","289","327985","0.0-210.0","sub-09_ses-01_2","","900","0","cue","","<div class = upperbox><div class = ""center-text"" >Amplitude</div></div><div class = lowerbox><div class = fixation>+</div></div>","none","900","test","Amplitude","#1F45FC","4","magnitude","stay","switch","66","","","",""
"818","89","poldrack-single-stim","290","330404","0.0-211.0","sub-09_ses-01_2","","2408","0","stim","","<div class = upperbox><div class = ""center-text"" >Amplitude</div></div><div class = lowerbox><div class = ""stim-text"" style=color:#1F45FC;>4</div>","89,71","1000","test","Amplitude","#1F45FC","4","magnitude","stay","switch","66","true","89","",""
"","","call-function","291","330405","0.0-212.0","sub-09_ses-01_2","","","","set_stims","","","","","","","","","","","","","","","",""
"-1","-1","poldrack-single-stim","292","330524","0.0-213.0","sub-09_ses-01_2","","100","0","cue","","<div class = upperbox><div class = ""center-text"" >Amplitude</div></div><div class = lowerbox><div class = fixation>+</div></div>","none","100","test","Amplitude","#1F45FC","8","magnitude","stay","stay","67","","","",""
"723","71","poldrack-single-stim","293","332535","0.0-214.0","sub-09_ses-01_2","","2000","0","stim","","<div class = upperbox><div class = ""center-text"" >Amplitude</div></div><div class = lowerbox><div class = ""stim-text"" style=color:#1F45FC;>8</div>","89,71","1000","test","Amplitude","#1F45FC","8","magnitude","stay","stay","67","true","71","",""
"","","call-function","294","332536","0.0-215.0","sub-09_ses-01_2","","","","set_stims","","","","","","","","","","","","","","","",""
"-1","-1","poldrack-single-stim","295","332655","0.0-216.0","sub-09_ses-01_2","","100","0","cue","","<div class = upperbox><div class = ""center-text"" >Amplitude</div></div><div class = lowerbox><div class = fixation>+</div></div>","none","100","test","Amplitude","orange","7","magnitude","stay","stay","68","","","",""
"933","71","poldrack-single-stim","296","335215","0.0-217.0","sub-09_ses-01_2","","2544","0","stim","","<div class = upperbox><div class = ""center-text"" >Amplitude</div></div><div class = lowerbox><div class = ""stim-text"" style=color:orange;>7</div>","89,71","1000","test","Amplitude","orange","7","magnitude","stay","stay","68","true","71","",""
"","","call-function","297","335217","0.0-218.0","sub-09_ses-01_2","","","","set_stims","","","","","","","","","","","","","","","",""
"-1","-1","poldrack-single-stim","298","336135","0.0-219.0","sub-09_ses-01_2","","900","0","cue","","<div class = upperbox><div class = ""center-text"" >Orange-Bleu</div></div><div class = lowerbox><div class = fixation>+</div></div>","none","900","test","Orange-Bleu","#1F45FC","7","color","switch","stay","69","","","",""
"698","71","poldrack-single-stim","299","338275","0.0-220.0","sub-09_ses-01_2","","2136","0","stim","","<div class = upperbox><div class = ""center-text"" >Orange-Bleu</div></div><div class = lowerbox><div class = ""stim-text"" style=color:#1F45FC;>7</div>","89,71","1000","test","Orange-Bleu","#1F45FC","7","color","switch","stay","69","true","71","",""
"","","call-function","300","338276","0.0-221.0","sub-09_ses-01_2","","","","set_stims","","","","","","","","","","","","","","","",""
"-1","-1","poldrack-single-stim","301","338396","0.0-222.0","sub-09_ses-01_2","","100","0","cue","","<div class = upperbox><div class = ""center-text"" >Haut-Bas</div></div><div class = lowerbox><div class = fixation>+</div></div>","none","100","test","Haut-Bas","#1F45FC","7","magnitude","switch","stay","70","","","",""
"984","71","poldrack-single-stim","302","340405","0.0-223.0","sub-09_ses-01_2","","2000","0","stim","","<div class = upperbox><div class = ""center-text"" >Haut-Bas</div></div><div class = lowerbox><div class = ""stim-text"" style=color:#1F45FC;>7</div>","89,71","1000","test","Haut-Bas","#1F45FC","7","magnitude","switch","stay","70","true","71","",""
"","","call-function","303","340406","0.0-224.0","sub-09_ses-01_2","","","","set_stims","","","","","","","","","","","","","","","",""
"-1","-1","poldrack-single-stim","304","341325","0.0-225.0","sub-09_ses-01_2","","900","0","cue","","<div class = upperbox><div class = ""center-text"" >Haut-Bas</div></div><div class = lowerbox><div class = fixation>+</div></div>","none","900","test","Haut-Bas","orange","6","magnitude","stay","stay","71","","","",""
"723","71","poldrack-single-stim","305","343335","0.0-226.0","sub-09_ses-01_2","","2000","0","stim","","<div class = upperbox><div class = ""center-text"" >Haut-Bas</div></div><div class = lowerbox><div class = ""stim-text"" style=color:orange;>6</div>","89,71","1000","test","Haut-Bas","orange","6","magnitude","stay","stay","71","true","71","",""
"","","call-function","306","343336","0.0-227.0","sub-09_ses-01_2","","","","set_stims","","","","","","","","","","","","","","","",""
"-1","-1","poldrack-single-stim","307","344256","0.0-228.0","sub-09_ses-01_2","","900","0","cue","","<div class = upperbox><div class = ""center-text"" >Amplitude</div></div><div class = lowerbox><div class = fixation>+</div></div>","none","900","test","Amplitude","orange","3","magnitude","stay","switch","72","","","",""
"566","89","poldrack-single-stim","308","346415","0.0-229.0","sub-09_ses-01_2","","2136","0","stim","","<div class = upperbox><div class = ""center-text"" >Amplitude</div></div><div class = lowerbox><div class = ""stim-text"" style=color:orange;>3</div>","89,71","1000","test","Amplitude","orange","3","magnitude","stay","switch","72","true","89","",""
"","","call-function","309","346416","0.0-230.0","sub-09_ses-01_2","","","","set_stims","","","","","","","","","","","","","","","",""
"-1","-1","poldrack-single-stim","310","346535","0.0-231.0","sub-09_ses-01_2","","100","0","cue","","<div class = upperbox><div class = ""center-text"" >Amplitude</div></div><div class = lowerbox><div class = fixation>+</div></div>","none","100","test","Amplitude","#1F45FC","3","magnitude","stay","stay","73","","","",""
"662","89","poldrack-single-stim","311","348695","0.0-232.0","sub-09_ses-01_2","","2136","0","stim","","<div class = upperbox><div class = ""center-text"" >Amplitude</div></div><div class = lowerbox><div class = ""stim-text"" style=color:#1F45FC;>3</div>","89,71","1000","test","Amplitude","#1F45FC","3","magnitude","stay","stay","73","true","89","",""
"","","call-function","312","348695","0.0-233.0","sub-09_ses-01_2","","","","set_stims","","","","","","","","","","","","","","","",""
"-1","-1","poldrack-single-stim","313","349616","0.0-234.0","sub-09_ses-01_2","","900","0","cue","","<div class = upperbox><div class = ""center-text"" >Couleur</div></div><div class = lowerbox><div class = fixation>+</div></div>","none","900","test","Couleur","orange","4","color","switch","stay","74","","","",""
"550","89","poldrack-single-stim","314","351905","0.0-235.0","sub-09_ses-01_2","","2272","0","stim","","<div class = upperbox><div class = ""center-text"" >Couleur</div></div><div class = lowerbox><div class = ""stim-text"" style=color:orange;>4</div>","89,71","1000","test","Couleur","orange","4","color","switch","stay","74","true","89","",""
"","","call-function","315","351906","0.0-236.0","sub-09_ses-01_2","","","","set_stims","","","","","","","","","","","","","","","",""
"-1","-1","poldrack-single-stim","316","352826","0.0-237.0","sub-09_ses-01_2","","900","0","cue","","<div class = upperbox><div class = ""center-text"" >Orange-Bleu</div></div><div class = lowerbox><div class = fixation>+</div></div>","none","900","test","Orange-Bleu","orange","7","color","stay","switch","75","","","",""
"596","89","poldrack-single-stim","317","356065","0.0-238.0","sub-09_ses-01_2","","3224","0","stim","","<div class = upperbox><div class = ""center-text"" >Orange-Bleu</div></div><div class = lowerbox><div class = ""stim-text"" style=color:orange;>7</div>","89,71","1000","test","Orange-Bleu","orange","7","color","stay","switch","75","true","89","",""
"","","call-function","318","356066","0.0-239.0","sub-09_ses-01_2","","","","set_stims","","","","","","","","","","","","","","","",""
"-1","-1","poldrack-single-stim","319","356186","0.0-240.0","sub-09_ses-01_2","","100","0","cue","","<div class = upperbox><div class = ""center-text"" >Couleur</div></div><div class = lowerbox><div class = fixation>+</div></div>","none","100","test","Couleur","orange","1","color","stay","switch","76","","","",""
"788","89","poldrack-single-stim","320","358205","0.0-241.0","sub-09_ses-01_2","","2000","0","stim","","<div class = upperbox><div class = ""center-text"" >Couleur</div></div><div class = lowerbox><div class = ""stim-text"" style=color:orange;>1</div>","89,71","1000","test","Couleur","orange","1","color","stay","switch","76","true","89","",""
"","","call-function","321","358206","0.0-242.0","sub-09_ses-01_2","","","","set_stims","","","","","","","","","","","","","","","",""
"-1","-1","poldrack-single-stim","322","359114","0.0-243.0","sub-09_ses-01_2","","900","0","cue","","<div class = upperbox><div class = ""center-text"" >Amplitude</div></div><div class = lowerbox><div class = fixation>+</div></div>","none","900","test","Amplitude","orange","9","magnitude","switch","stay","77","","","",""
"994","71","poldrack-single-stim","323","361136","0.0-244.0","sub-09_ses-01_2","","2000","0","stim","","<div class = upperbox><div class = ""center-text"" >Amplitude</div></div><div class = lowerbox><div class = ""stim-text"" style=color:orange;>9</div>","89,71","1000","test","Amplitude","orange","9","magnitude","switch","stay","77","true","71","",""
"","","call-function","324","361136","0.0-245.0","sub-09_ses-01_2","","","","set_stims","","","","","","","","","","","","","","","",""
"-1","-1","poldrack-single-stim","325","362046","0.0-246.0","sub-09_ses-01_2","","900","0","cue","","<div class = upperbox><div class = ""center-text"" >Orange-Bleu</div></div><div class = lowerbox><div class = fixation>+</div></div>","none","900","test","Orange-Bleu","orange","9","color","switch","switch","78","","","",""
"1063","89","poldrack-single-stim","326","364324","0.0-247.0","sub-09_ses-01_2","","2272","0","stim","","<div class = upperbox><div class = ""center-text"" >Orange-Bleu</div></div><div class = lowerbox><div class = ""stim-text"" style=color:orange;>9</div>","89,71","1000","test","Orange-Bleu","orange","9","color","switch","switch","78","true","89","",""
"","","call-function","327","364325","0.0-248.0","sub-09_ses-01_2","","","","set_stims","","","","","","","","","","","","","","","",""
"-1","-1","poldrack-single-stim","328","364445","0.0-249.0","sub-09_ses-01_2","","100","0","cue","","<div class = upperbox><div class = ""center-text"" >Haut-Bas</div></div><div class = lowerbox><div class = fixation>+</div></div>","none","100","test","Haut-Bas","orange","1","magnitude","switch","switch","79","","","",""
"1356","89","poldrack-single-stim","329","366585","0.0-250.0","sub-09_ses-01_2","","2136","0","stim","","<div class = upperbox><div class = ""center-text"" >Haut-Bas</div></div><div class = lowerbox><div class = ""stim-text"" style=color:orange;>1</div>","89,71","1000","test","Haut-Bas","orange","1","magnitude","switch","switch","79","true","89","",""
"-1","-1","poldrack-single-stim","330","376595","0.0-251.0","sub-09_ses-01_2","","10000","1000","rest_block","","<div class = centerbox><div class = center-text>+</div></div>","none","10000","","","","","","","","","","","",""
"-1","-1","poldrack-single-stim","331","379129","0.0-252.0","sub-09_ses-01_2","","1500","500","test_start_block","","<div class = centerbox><div class = center-text>Preparez-vous!</p></div>","none","1500","","","","","","","","","","","",""
"-1","-1","poldrack-single-stim","332","380165","0.0-253.0","sub-09_ses-01_2","","500","0","fixation","","<div class = upperbox><div class = fixation>+</div></div><div class = lowerbox><div class = fixation>+</div></div>","none","500","test","","","","","","","","","","",""
"","","call-function","333","380165","0.0-254.0","sub-09_ses-01_2","","","","set_stims","","","","","","","","","","","","","","","",""
"-1","-1","poldrack-single-stim","334","380285","0.0-255.0","sub-09_ses-01_2","","100","0","cue","","<div class = upperbox><div class = ""center-text"" >Orange-Bleu</div></div><div class = lowerbox><div class = fixation>+</div></div>","none","100","test","Orange-Bleu","orange","1","color","stay","stay","0","","","",""
"785","89","poldrack-single-stim","335","382305","0.0-256.0","sub-09_ses-01_2","","2000","0","stim","","<div class = upperbox><div class = ""center-text"" >Orange-Bleu</div></div><div class = lowerbox><div class = ""stim-text"" style=color:orange;>1</div>","89,71","1000","test","Orange-Bleu","orange","1","color","stay","stay","0","true","89","",""
"","","call-function","336","382306","0.0-257.0","sub-09_ses-01_2","","","","set_stims","","","","","","","","","","","","","","","",""
"-1","-1","poldrack-single-stim","337","383225","0.0-258.0","sub-09_ses-01_2","","900","0","cue","","<div class = upperbox><div class = ""center-text"" >Amplitude</div></div><div class = lowerbox><div class = fixation>+</div></div>","none","900","test","Amplitude","orange","1","magnitude","switch","switch","1","","","",""
"518","89","poldrack-single-stim","338","385245","0.0-259.0","sub-09_ses-01_2","","2000","0","stim","","<div class = upperbox><div class = ""center-text"" >Amplitude</div></div><div class = lowerbox><div class = ""stim-text"" style=color:orange;>1</div>","89,71","1000","test","Amplitude","orange","1","magnitude","switch","switch","1","true","89","",""
"","","call-function","339","385246","0.0-260.0","sub-09_ses-01_2","","","","set_stims","","","","","","","","","","","","","","","",""
"-1","-1","poldrack-single-stim","340","386165","0.0-261.0","sub-09_ses-01_2","","900","0","cue","","<div class = upperbox><div class = ""center-text"" >Couleur</div></div><div class = lowerbox><div class = fixation>+</div></div>","none","900","test","Couleur","orange","2","color","switch","switch","2","","","",""
"428","89","poldrack-single-stim","341","388175","0.0-262.0","sub-09_ses-01_2","","2000","0","stim","","<div class = upperbox><div class = ""center-text"" >Couleur</div></div><div class = lowerbox><div class = ""stim-text"" style=color:orange;>2</div>","89,71","1000","test","Couleur","orange","2","color","switch","switch","2","true","89","",""
"","","call-function","342","388176","0.0-263.0","sub-09_ses-01_2","","","","set_stims","","","","","","","","","","","","","","","",""
"-1","-1","poldrack-single-stim","343","389095","0.0-264.0","sub-09_ses-01_2","","900","0","cue","","<div class = upperbox><div class = ""center-text"" >Haut-Bas</div></div><div class = lowerbox><div class = fixation>+</div></div>","none","900","test","Haut-Bas","#1F45FC","7","magnitude","switch","stay","3","","","",""
"441","71","poldrack-single-stim","344","391795","0.0-265.0","sub-09_ses-01_2","","2680","0","stim","","<div class = upperbox><div class = ""center-text"" >Haut-Bas</div></div><div class = lowerbox><div class = ""stim-text"" style=color:#1F45FC;>7</div>","89,71","1000","test","Haut-Bas","#1F45FC","7","magnitude","switch","stay","3","true","71","",""
"","","call-function","345","391796","0.0-266.0","sub-09_ses-01_2","","","","set_stims","","","","","","","","","","","","","","","",""
"-1","-1","poldrack-single-stim","346","391915","0.0-267.0","sub-09_ses-01_2","","100","0","cue","","<div class = upperbox><div class = ""center-text"" >Orange-Bleu</div></div><div class = lowerbox><div class = fixation>+</div></div>","none","100","test","Orange-Bleu","orange","1","color","switch","stay","4","","","",""
"499","89","poldrack-single-stim","347","393935","0.0-268.0","sub-09_ses-01_2","","2000","0","stim","","<div class = upperbox><div class = ""center-text"" >Orange-Bleu</div></div><div class = lowerbox><div class = ""stim-text"" style=color:orange;>1</div>","89,71","1000","test","Orange-Bleu","orange","1","color","switch","stay","4","true","89","",""
"","","call-function","348","393937","0.0-269.0","sub-09_ses-01_2","","","","set_stims","","","","","","","","","","","","","","","",""
"-1","-1","poldrack-single-stim","349","394055","0.0-270.0","sub-09_ses-01_2","","100","0","cue","","<div class = upperbox><div class = ""center-text"" >Orange-Bleu</div></div><div class = lowerbox><div class = fixation>+</div></div>","none","100","test","Orange-Bleu","orange","8","color","stay","stay","5","","","",""
"800","89","poldrack-single-stim","350","396345","0.0-271.0","sub-09_ses-01_2","","2272","0","stim","","<div class = upperbox><div class = ""center-text"" >Orange-Bleu</div></div><div class = lowerbox><div class = ""stim-text"" style=color:orange;>8</div>","89,71","1000","test","Orange-Bleu","orange","8","color","stay","stay","5","true","89","",""
"","","call-function","351","396346","0.0-272.0","sub-09_ses-01_2","","","","set_stims","","","","","","","","","","","","","","","",""
"-1","-1","poldrack-single-stim","352","397266","0.0-273.0","sub-09_ses-01_2","","900","0","cue","","<div class = upperbox><div class = ""center-text"" >Couleur</div></div><div class = lowerbox><div class = fixation>+</div></div>","none","900","test","Couleur","orange","1","color","stay","switch","6","","","",""
"442","89","poldrack-single-stim","353","399284","0.0-274.0","sub-09_ses-01_2","","2000","0","stim","","<div class = upperbox><div class = ""center-text"" >Couleur</div></div><div class = lowerbox><div class = ""stim-text"" style=color:orange;>1</div>","89,71","1000","test","Couleur","orange","1","color","stay","switch","6","true","89","",""
"","","call-function","354","399285","0.0-275.0","sub-09_ses-01_2","","","","set_stims","","","","","","","","","","","","","","","",""
"-1","-1","poldrack-single-stim","355","399408","0.0-276.0","sub-09_ses-01_2","","100","0","cue","","<div class = upperbox><div class = ""center-text"" >Orange-Bleu</div></div><div class = lowerbox><div class = fixation>+</div></div>","none","100","test","Orange-Bleu","orange","4","color","stay","switch","7","","","",""
"682","89","poldrack-single-stim","356","401685","0.0-277.0","sub-09_ses-01_2","","2272","0","stim","","<div class = upperbox><div class = ""center-text"" >Orange-Bleu</div></div><div class = lowerbox><div class = ""stim-text"" style=color:orange;>4</div>","89,71","1000","test","Orange-Bleu","orange","4","color","stay","switch","7","true","89","",""
"","","call-function","357","401686","0.0-278.0","sub-09_ses-01_2","","","","set_stims","","","","","","","","","","","","","","","",""
"-1","-1","poldrack-single-stim","358","401805","0.0-279.0","sub-09_ses-01_2","","100","0","cue","","<div class = upperbox><div class = ""center-text"" >Amplitude</div></div><div class = lowerbox><div class = fixation>+</div></div>","none","100","test","Amplitude","#1F45FC","6","magnitude","switch","switch","8","","","",""
"754","71","poldrack-single-stim","359","404766","0.0-280.0","sub-09_ses-01_2","","2952","0","stim","","<div class = upperbox><div class = ""center-text"" >Amplitude</div></div><div class = lowerbox><div class = ""stim-text"" style=color:#1F45FC;>6</div>","89,71","1000","test","Amplitude","#1F45FC","6","magnitude","switch","switch","8","true","71","",""
"","","call-function","360","404768","0.0-281.0","sub-09_ses-01_2","","","","set_stims","","","","","","","","","","","","","","","",""
"-1","-1","poldrack-single-stim","361","404885","0.0-282.0","sub-09_ses-01_2","","100","0","cue","","<div class = upperbox><div class = ""center-text"" >Couleur</div></div><div class = lowerbox><div class = fixation>+</div></div>","none","100","test","Couleur","orange","7","color","switch","switch","9","","","",""
"670","89","poldrack-single-stim","362","406892","0.0-283.0","sub-09_ses-01_2","","2000","0","stim","","<div class = upperbox><div class = ""center-text"" >Couleur</div></div><div class = lowerbox><div class = ""stim-text"" style=color:orange;>7</div>","89,71","1000","test","Couleur","orange","7","color","switch","switch","9","true","89","",""
"","","call-function","363","406894","0.0-284.0","sub-09_ses-01_2","","","","set_stims","","","","","","","","","","","","","","","",""
"-1","-1","poldrack-single-stim","364","407016","0.0-285.0","sub-09_ses-01_2","","100","0","cue","","<div class = upperbox><div class = ""center-text"" >Amplitude</div></div><div class = lowerbox><div class = fixation>+</div></div>","none","100","test","Amplitude","#1F45FC","3","magnitude","switch","stay","10","","","",""
"776","71","poldrack-single-stim","365","409024","0.0-286.0","sub-09_ses-01_2","","2000","0","stim","","<div class = upperbox><div class = ""center-text"" >Amplitude</div></div><div class = lowerbox><div class = ""stim-text"" style=color:#1F45FC;>3</div>","89,71","1000","test","Amplitude","#1F45FC","3","magnitude","switch","stay","10","false","89","",""
"","","call-function","366","409024","0.0-287.0","sub-09_ses-01_2","","","","set_stims","","","","","","","","","","","","","","","",""
"-1","-1","poldrack-single-stim","367","409946","0.0-288.0","sub-09_ses-01_2","","900","0","cue","","<div class = upperbox><div class = ""center-text"" >Haut-Bas</div></div><div class = lowerbox><div class = fixation>+</div></div>","none","900","test","Haut-Bas","orange","8","magnitude","stay","switch","11","","","",""
"415","71","poldrack-single-stim","368","411965","0.0-289.0","sub-09_ses-01_2","","2000","0","stim","","<div class = upperbox><div class = ""center-text"" >Haut-Bas</div></div><div class = lowerbox><div class = ""stim-text"" style=color:orange;>8</div>","89,71","1000","test","Haut-Bas","orange","8","magnitude","stay","switch","11","true","71","",""
"","","call-function","369","411967","0.0-290.0","sub-09_ses-01_2","","","","set_stims","","","","","","","","","","","","","","","",""
"-1","-1","poldrack-single-stim","370","412085","0.0-291.0","sub-09_ses-01_2","","100","0","cue","","<div class = upperbox><div class = ""center-text"" >Orange-Bleu</div></div><div class = lowerbox><div class = fixation>+</div></div>","none","100","test","Orange-Bleu","orange","8","color","switch","switch","12","","","",""
"771","89","poldrack-single-stim","371","414095","0.0-292.0","sub-09_ses-01_2","","2000","0","stim","","<div class = upperbox><div class = ""center-text"" >Orange-Bleu</div></div><div class = lowerbox><div class = ""stim-text"" style=color:orange;>8</div>","89,71","1000","test","Orange-Bleu","orange","8","color","switch","switch","12","true","89","",""
"","","call-function","372","414096","0.0-293.0","sub-09_ses-01_2","","","","set_stims","","","","","","","","","","","","","","","",""
"-1","-1","poldrack-single-stim","373","414215","0.0-294.0","sub-09_ses-01_2","","100","0","cue","","<div class = upperbox><div class = ""center-text"" >Haut-Bas</div></div><div class = lowerbox><div class = fixation>+</div></div>","none","100","test","Haut-Bas","#1F45FC","6","magnitude","switch","switch","13","","","",""
"833","71","poldrack-single-stim","374","416356","0.0-295.0","sub-09_ses-01_2","","2136","0","stim","","<div class = upperbox><div class = ""center-text"" >Haut-Bas</div></div><div class = lowerbox><div class = ""stim-text"" style=color:#1F45FC;>6</div>","89,71","1000","test","Haut-Bas","#1F45FC","6","magnitude","switch","switch","13","true","71","",""
"","","call-function","375","416356","0.0-296.0","sub-09_ses-01_2","","","","set_stims","","","","","","","","","","","","","","","",""
"-1","-1","poldrack-single-stim","376","417265","0.0-297.0","sub-09_ses-01_2","","900","0","cue","","<div class = upperbox><div class = ""center-text"" >Amplitude</div></div><div class = lowerbox><div class = fixation>+</div></div>","none","900","test","Amplitude","orange","3","magnitude","stay","switch","14","","","",""
