"rt","key_press","trial_type","trial_index","time_elapsed","internal_node_id","subject","text","block_duration","timing_post_trial","trial_id","responses","stimulus","possible_responses","stim_duration","exp_stage","cue","stim_color","stim_number","task","task_switch","cue_switch","trial_num","correct","correct_response","feedback_duration","exp_id"
"1384","13","text","0","1387","0.0-0.0","sub-07_ses-01_1","","","","","","","","","","","","","","","","","","","",""
"1492","89","poldrack-text","1","3905","0.0-1.0","sub-07_ses-01_1","<div class = centerbox><div style = 'font-size: 50px' class = center-text>Veuillez appuyer avec votre index</p></div>","1492","500","fmri_response_test","","","","","","","","","","","","","","","",""
"383","71","poldrack-text","2","4811","0.0-2.0","sub-07_ses-01_1","<div class = centerbox><div style = 'font-size: 50px' class = center-text>Veuillez appuyer avec votre majeur</p></div>","383","500","fmri_response_test","","","","","","","","","","","","","","","",""
"5759","","survey-text","3","11104","0.0-3.0","sub-07_ses-01_1","","","","task_setup","{""Q0"":""2"",""Q1"":""2""}","","","","","","","","","","","","","","",""
"25541","32","poldrack-single-stim","4","37653","0.0-4.0","sub-07_ses-01_1","","25541","0","instructions","","<div class = centerbox><div class = center-text style=""font-size:40px""><strong>Couleur</strong> or <strong>Orange-Bleu</strong>: Majeur si orange et Index si bleu.<br><br><strong>Amplitude</strong> ou <strong>Haut-Bas</strong>: Majeur si >5 et Index si <5.</div></div>","32","25541","","","","","","","","","","","",""
"","","call-function","5","37654","0.0-5.0-0.0","sub-07_ses-01_1","","","","set_stims","","","","","","","","","","","","","","","",""
"-1","-1","poldrack-single-stim","6","38167","0.0-5.0-1.0","sub-07_ses-01_1","","500","0","fixation","","<div class = upperbox><div class = fixation>+</div></div><div class = lowerbox><div class = fixation>+</div></div>","none","500","practice","","","","","","","","","","",""
"-1","-1","poldrack-single-stim","7","39090","0.0-5.0-2.0","sub-07_ses-01_1","","900","0","cue","","<div class = upperbox><div class = ""center-text"" >Haut-Bas</div></div><div class = lowerbox><div class = fixation>+</div></div>","none","900","practice","Haut-Bas","orange","8","magnitude","stay","switch","0","","","",""
"1380","71","poldrack-categorize","8","41627","0.0-5.0-3.0","sub-07_ses-01_1","","2000","0","stim","","<div class = upperbox><div class = ""center-text"" >Haut-Bas</div></div><div class = lowerbox><div class = ""stim-text"" style=color:orange;>8</div>","89,71","1000","practice","Haut-Bas","orange","8","magnitude","stay","switch","0","true","71","500",""
"-1","-1","poldrack-single-stim","9","42148","0.0-5.0-4.0","sub-07_ses-01_1","","500","0","gap",""," ","none","500","practice","","","","","","","","","","",""
"","","call-function","10","42149","0.0-5.0-5.0","sub-07_ses-01_1","","","","set_stims","","","","","","","","","","","","","","","",""
"-1","-1","poldrack-single-stim","11","42667","0.0-5.0-6.0","sub-07_ses-01_1","","500","0","fixation","","<div class = upperbox><div class = fixation>+</div></div><div class = lowerbox><div class = fixation>+</div></div>","none","500","practice","","","","","","","","","","",""
"-1","-1","poldrack-single-stim","12","43578","0.0-5.0-7.0","sub-07_ses-01_1","","900","0","cue","","<div class = upperbox><div class = ""center-text"" >Couleur</div></div><div class = lowerbox><div class = fixation>+</div></div>","none","900","practice","Couleur","#1F45FC","1","color","switch","switch","1","","","",""
"543","89","poldrack-categorize","13","46117","0.0-5.0-8.0","sub-07_ses-01_1","","2000","0","stim","","<div class = upperbox><div class = ""center-text"" >Couleur</div></div><div class = lowerbox><div class = ""stim-text"" style=color:#1F45FC;>1</div>","89,71","1000","practice","Couleur","#1F45FC","1","color","switch","switch","1","true","89","500",""
"-1","-1","poldrack-single-stim","14","46637","0.0-5.0-9.0","sub-07_ses-01_1","","500","0","gap",""," ","none","500","practice","","","","","","","","","","",""
"","","call-function","15","46638","0.0-5.0-10.0","sub-07_ses-01_1","","","","set_stims","","","","","","","","","","","","","","","",""
"-1","-1","poldrack-single-stim","16","47157","0.0-5.0-11.0","sub-07_ses-01_1","","500","0","fixation","","<div class = upperbox><div class = fixation>+</div></div><div class = lowerbox><div class = fixation>+</div></div>","none","500","practice","","","","","","","","","","",""
"-1","-1","poldrack-single-stim","17","48077","0.0-5.0-12.0","sub-07_ses-01_1","","900","0","cue","","<div class = upperbox><div class = ""center-text"" >Haut-Bas</div></div><div class = lowerbox><div class = fixation>+</div></div>","none","900","practice","Haut-Bas","orange","4","magnitude","switch","stay","2","","","",""
"877","89","poldrack-categorize","18","50607","0.0-5.0-13.0","sub-07_ses-01_1","","2000","0","stim","","<div class = upperbox><div class = ""center-text"" >Haut-Bas</div></div><div class = lowerbox><div class = ""stim-text"" style=color:orange;>4</div>","89,71","1000","practice","Haut-Bas","orange","4","magnitude","switch","stay","2","true","89","500",""
"-1","-1","poldrack-single-stim","19","51127","0.0-5.0-14.0","sub-07_ses-01_1","","500","0","gap",""," ","none","500","practice","","","","","","","","","","",""
"","","call-function","20","51128","0.0-5.0-15.0","sub-07_ses-01_1","","","","set_stims","","","","","","","","","","","","","","","",""
"-1","-1","poldrack-single-stim","21","51647","0.0-5.0-16.0","sub-07_ses-01_1","","500","0","fixation","","<div class = upperbox><div class = fixation>+</div></div><div class = lowerbox><div class = fixation>+</div></div>","none","500","practice","","","","","","","","","","",""
"-1","-1","poldrack-single-stim","22","51768","0.0-5.0-17.0","sub-07_ses-01_1","","100","0","cue","","<div class = upperbox><div class = ""center-text"" >Orange-Bleu</div></div><div class = lowerbox><div class = fixation>+</div></div>","none","100","practice","Orange-Bleu","orange","1","color","switch","switch","3","","","",""
"1535","89","poldrack-categorize","23","54307","0.0-5.0-18.0","sub-07_ses-01_1","","2000","0","stim","","<div class = upperbox><div class = ""center-text"" >Orange-Bleu</div></div><div class = lowerbox><div class = ""stim-text"" style=color:orange;>1</div>","89,71","1000","practice","Orange-Bleu","orange","1","color","switch","switch","3","false","71","500",""
"-1","-1","poldrack-single-stim","24","54827","0.0-5.0-19.0","sub-07_ses-01_1","","500","0","gap",""," ","none","500","practice","","","","","","","","","","",""
"","","call-function","25","54828","0.0-5.0-20.0","sub-07_ses-01_1","","","","set_stims","","","","","","","","","","","","","","","",""
"-1","-1","poldrack-single-stim","26","55347","0.0-5.0-21.0","sub-07_ses-01_1","","500","0","fixation","","<div class = upperbox><div class = fixation>+</div></div><div class = lowerbox><div class = fixation>+</div></div>","none","500","practice","","","","","","","","","","",""
"-1","-1","poldrack-single-stim","27","55469","0.0-5.0-22.0","sub-07_ses-01_1","","100","0","cue","","<div class = upperbox><div class = ""center-text"" >Haut-Bas</div></div><div class = lowerbox><div class = fixation>+</div></div>","none","100","practice","Haut-Bas","#1F45FC","4","magnitude","switch","stay","4","","","",""
"1243","89","poldrack-categorize","28","57997","0.0-5.0-23.0","sub-07_ses-01_1","","2000","0","stim","","<div class = upperbox><div class = ""center-text"" >Haut-Bas</div></div><div class = lowerbox><div class = ""stim-text"" style=color:#1F45FC;>4</div>","89,71","1000","practice","Haut-Bas","#1F45FC","4","magnitude","switch","stay","4","true","89","500",""
"-1","-1","poldrack-single-stim","29","58517","0.0-5.0-24.0","sub-07_ses-01_1","","500","0","gap",""," ","none","500","practice","","","","","","","","","","",""
"","","call-function","30","58517","0.0-5.0-25.0","sub-07_ses-01_1","","","","set_stims","","","","","","","","","","","","","","","",""
"-1","-1","poldrack-single-stim","31","59027","0.0-5.0-26.0","sub-07_ses-01_1","","500","0","fixation","","<div class = upperbox><div class = fixation>+</div></div><div class = lowerbox><div class = fixation>+</div></div>","none","500","practice","","","","","","","","","","",""
"-1","-1","poldrack-single-stim","32","59147","0.0-5.0-27.0","sub-07_ses-01_1","","100","0","cue","","<div class = upperbox><div class = ""center-text"" >Haut-Bas</div></div><div class = lowerbox><div class = fixation>+</div></div>","none","100","practice","Haut-Bas","orange","9","magnitude","stay","stay","5","","","",""
"1346","89","poldrack-categorize","33","61657","0.0-5.0-28.0","sub-07_ses-01_1","","2000","0","stim","","<div class = upperbox><div class = ""center-text"" >Haut-Bas</div></div><div class = lowerbox><div class = ""stim-text"" style=color:orange;>9</div>","89,71","1000","practice","Haut-Bas","orange","9","magnitude","stay","stay","5","false","71","500",""
"-1","-1","poldrack-single-stim","34","62177","0.0-5.0-29.0","sub-07_ses-01_1","","500","0","gap",""," ","none","500","practice","","","","","","","","","","",""
"","","call-function","35","62178","0.0-5.0-30.0","sub-07_ses-01_1","","","","set_stims","","","","","","","","","","","","","","","",""
"-1","-1","poldrack-single-stim","36","62698","0.0-5.0-31.0","sub-07_ses-01_1","","500","0","fixation","","<div class = upperbox><div class = fixation>+</div></div><div class = lowerbox><div class = fixation>+</div></div>","none","500","practice","","","","","","","","","","",""
"-1","-1","poldrack-single-stim","37","62818","0.0-5.0-32.0","sub-07_ses-01_1","","100","0","cue","","<div class = upperbox><div class = ""center-text"" >Orange-Bleu</div></div><div class = lowerbox><div class = fixation>+</div></div>","none","100","practice","Orange-Bleu","orange","3","color","switch","stay","6","","","",""
"1588","89","poldrack-categorize","38","65346","0.0-5.0-33.0","sub-07_ses-01_1","","2000","0","stim","","<div class = upperbox><div class = ""center-text"" >Orange-Bleu</div></div><div class = lowerbox><div class = ""stim-text"" style=color:orange;>3</div>","89,71","1000","practice","Orange-Bleu","orange","3","color","switch","stay","6","false","71","500",""
"-1","-1","poldrack-single-stim","39","65867","0.0-5.0-34.0","sub-07_ses-01_1","","500","0","gap",""," ","none","500","practice","","","","","","","","","","",""
"","","call-function","40","65867","0.0-5.0-35.0","sub-07_ses-01_1","","","","set_stims","","","","","","","","","","","","","","","",""
"-1","-1","poldrack-single-stim","41","66388","0.0-5.0-36.0","sub-07_ses-01_1","","500","0","fixation","","<div class = upperbox><div class = fixation>+</div></div><div class = lowerbox><div class = fixation>+</div></div>","none","500","practice","","","","","","","","","","",""
"-1","-1","poldrack-single-stim","42","67307","0.0-5.0-37.0","sub-07_ses-01_1","","900","0","cue","","<div class = upperbox><div class = ""center-text"" >Haut-Bas</div></div><div class = lowerbox><div class = fixation>+</div></div>","none","900","practice","Haut-Bas","orange","1","magnitude","switch","stay","7","","","",""
"1289","89","poldrack-categorize","43","69838","0.0-5.0-38.0","sub-07_ses-01_1","","2000","0","stim","","<div class = upperbox><div class = ""center-text"" >Haut-Bas</div></div><div class = lowerbox><div class = ""stim-text"" style=color:orange;>1</div>","89,71","1000","practice","Haut-Bas","orange","1","magnitude","switch","stay","7","true","89","500",""
"-1","-1","poldrack-single-stim","44","70356","0.0-5.0-39.0","sub-07_ses-01_1","","500","0","gap",""," ","none","500","practice","","","","","","","","","","",""
"","","call-function","45","70357","0.0-5.0-40.0","sub-07_ses-01_1","","","","set_stims","","","","","","","","","","","","","","","",""
"-1","-1","poldrack-single-stim","46","70876","0.0-5.0-41.0","sub-07_ses-01_1","","500","0","fixation","","<div class = upperbox><div class = fixation>+</div></div><div class = lowerbox><div class = fixation>+</div></div>","none","500","practice","","","","","","","","","","",""
"-1","-1","poldrack-single-stim","47","71796","0.0-5.0-42.0","sub-07_ses-01_1","","900","0","cue","","<div class = upperbox><div class = ""center-text"" >Amplitude</div></div><div class = lowerbox><div class = fixation>+</div></div>","none","900","practice","Amplitude","#1F45FC","3","magnitude","stay","switch","8","","","",""
"839","89","poldrack-categorize","48","74327","0.0-5.0-43.0","sub-07_ses-01_1","","2000","0","stim","","<div class = upperbox><div class = ""center-text"" >Amplitude</div></div><div class = lowerbox><div class = ""stim-text"" style=color:#1F45FC;>3</div>","89,71","1000","practice","Amplitude","#1F45FC","3","magnitude","stay","switch","8","true","89","500",""
"-1","-1","poldrack-single-stim","49","74846","0.0-5.0-44.0","sub-07_ses-01_1","","500","0","gap",""," ","none","500","practice","","","","","","","","","","",""
"","","call-function","50","74846","0.0-5.0-45.0","sub-07_ses-01_1","","","","set_stims","","","","","","","","","","","","","","","",""
"-1","-1","poldrack-single-stim","51","75368","0.0-5.0-46.0","sub-07_ses-01_1","","500","0","fixation","","<div class = upperbox><div class = fixation>+</div></div><div class = lowerbox><div class = fixation>+</div></div>","none","500","practice","","","","","","","","","","",""
"-1","-1","poldrack-single-stim","52","76286","0.0-5.0-47.0","sub-07_ses-01_1","","900","0","cue","","<div class = upperbox><div class = ""center-text"" >Amplitude</div></div><div class = lowerbox><div class = fixation>+</div></div>","none","900","practice","Amplitude","orange","1","magnitude","stay","stay","9","","","",""
"782","89","poldrack-categorize","53","78827","0.0-5.0-48.0","sub-07_ses-01_1","","2000","0","stim","","<div class = upperbox><div class = ""center-text"" >Amplitude</div></div><div class = lowerbox><div class = ""stim-text"" style=color:orange;>1</div>","89,71","1000","practice","Amplitude","orange","1","magnitude","stay","stay","9","true","89","500",""
"-1","-1","poldrack-single-stim","54","79347","0.0-5.0-49.0","sub-07_ses-01_1","","500","0","gap",""," ","none","500","practice","","","","","","","","","","",""
"","","call-function","55","79347","0.0-5.0-50.0","sub-07_ses-01_1","","","","set_stims","","","","","","","","","","","","","","","",""
"-1","-1","poldrack-single-stim","56","79866","0.0-5.0-51.0","sub-07_ses-01_1","","500","0","fixation","","<div class = upperbox><div class = fixation>+</div></div><div class = lowerbox><div class = fixation>+</div></div>","none","500","practice","","","","","","","","","","",""
"-1","-1","poldrack-single-stim","57","80786","0.0-5.0-52.0","sub-07_ses-01_1","","900","0","cue","","<div class = upperbox><div class = ""center-text"" >Amplitude</div></div><div class = lowerbox><div class = fixation>+</div></div>","none","900","practice","Amplitude","orange","7","magnitude","stay","stay","10","","","",""
"522","71","poldrack-categorize","58","83327","0.0-5.0-53.0","sub-07_ses-01_1","","2000","0","stim","","<div class = upperbox><div class = ""center-text"" >Amplitude</div></div><div class = lowerbox><div class = ""stim-text"" style=color:orange;>7</div>","89,71","1000","practice","Amplitude","orange","7","magnitude","stay","stay","10","true","71","500",""
"-1","-1","poldrack-single-stim","59","83837","0.0-5.0-54.0","sub-07_ses-01_1","","500","0","gap",""," ","none","500","practice","","","","","","","","","","",""
"","","call-function","60","83838","0.0-5.0-55.0","sub-07_ses-01_1","","","","set_stims","","","","","","","","","","","","","","","",""
"-1","-1","poldrack-single-stim","61","84357","0.0-5.0-56.0","sub-07_ses-01_1","","500","0","fixation","","<div class = upperbox><div class = fixation>+</div></div><div class = lowerbox><div class = fixation>+</div></div>","none","500","practice","","","","","","","","","","",""
"-1","-1","poldrack-single-stim","62","84476","0.0-5.0-57.0","sub-07_ses-01_1","","100","0","cue","","<div class = upperbox><div class = ""center-text"" >Amplitude</div></div><div class = lowerbox><div class = fixation>+</div></div>","none","100","practice","Amplitude","#1F45FC","3","magnitude","stay","stay","11","","","",""
"980","89","poldrack-categorize","63","86997","0.0-5.0-58.0","sub-07_ses-01_1","","2000","0","stim","","<div class = upperbox><div class = ""center-text"" >Amplitude</div></div><div class = lowerbox><div class = ""stim-text"" style=color:#1F45FC;>3</div>","89,71","1000","practice","Amplitude","#1F45FC","3","magnitude","stay","stay","11","true","89","500",""
"-1","-1","poldrack-single-stim","64","87564","0.0-5.0-59.0","sub-07_ses-01_1","","500","0","gap",""," ","none","500","practice","","","","","","","","","","",""
"","","call-function","65","87566","0.0-5.0-60.0","sub-07_ses-01_1","","","","set_stims","","","","","","","","","","","","","","","",""
"-1","-1","poldrack-single-stim","66","88078","0.0-5.0-61.0","sub-07_ses-01_1","","500","0","fixation","","<div class = upperbox><div class = fixation>+</div></div><div class = lowerbox><div class = fixation>+</div></div>","none","500","practice","","","","","","","","","","",""
"-1","-1","poldrack-single-stim","67","88197","0.0-5.0-62.0","sub-07_ses-01_1","","100","0","cue","","<div class = upperbox><div class = ""center-text"" >Haut-Bas</div></div><div class = lowerbox><div class = fixation>+</div></div>","none","100","practice","Haut-Bas","#1F45FC","7","magnitude","stay","switch","12","","","",""
"1044","71","poldrack-categorize","68","90727","0.0-5.0-63.0","sub-07_ses-01_1","","2000","0","stim","","<div class = upperbox><div class = ""center-text"" >Haut-Bas</div></div><div class = lowerbox><div class = ""stim-text"" style=color:#1F45FC;>7</div>","89,71","1000","practice","Haut-Bas","#1F45FC","7","magnitude","stay","switch","12","true","71","500",""
"-1","-1","poldrack-single-stim","69","91247","0.0-5.0-64.0","sub-07_ses-01_1","","500","0","gap",""," ","none","500","practice","","","","","","","","","","",""
"","","call-function","70","91247","0.0-5.0-65.0","sub-07_ses-01_1","","","","set_stims","","","","","","","","","","","","","","","",""
"-1","-1","poldrack-single-stim","71","91757","0.0-5.0-66.0","sub-07_ses-01_1","","500","0","fixation","","<div class = upperbox><div class = fixation>+</div></div><div class = lowerbox><div class = fixation>+</div></div>","none","500","practice","","","","","","","","","","",""
"-1","-1","poldrack-single-stim","72","91868","0.0-5.0-67.0","sub-07_ses-01_1","","100","0","cue","","<div class = upperbox><div class = ""center-text"" >Orange-Bleu</div></div><div class = lowerbox><div class = fixation>+</div></div>","none","100","practice","Orange-Bleu","#1F45FC","2","color","switch","switch","13","","","",""
"1059","89","poldrack-categorize","73","94398","0.0-5.0-68.0","sub-07_ses-01_1","","2000","0","stim","","<div class = upperbox><div class = ""center-text"" >Orange-Bleu</div></div><div class = lowerbox><div class = ""stim-text"" style=color:#1F45FC;>2</div>","89,71","1000","practice","Orange-Bleu","#1F45FC","2","color","switch","switch","13","true","89","500",""
"-1","-1","poldrack-single-stim","74","94917","0.0-5.0-69.0","sub-07_ses-01_1","","500","0","gap",""," ","none","500","practice","","","","","","","","","","",""
"","","call-function","75","94917","0.0-5.0-70.0","sub-07_ses-01_1","","","","set_stims","","","","","","","","","","","","","","","",""
"-1","-1","poldrack-single-stim","76","95437","0.0-5.0-71.0","sub-07_ses-01_1","","500","0","fixation","","<div class = upperbox><div class = fixation>+</div></div><div class = lowerbox><div class = fixation>+</div></div>","none","500","practice","","","","","","","","","","",""
"-1","-1","poldrack-single-stim","77","95557","0.0-5.0-72.0","sub-07_ses-01_1","","100","0","cue","","<div class = upperbox><div class = ""center-text"" >Couleur</div></div><div class = lowerbox><div class = fixation>+</div></div>","none","100","practice","Couleur","orange","9","color","stay","switch","14","","","",""
"1026","71","poldrack-categorize","78","98088","0.0-5.0-73.0","sub-07_ses-01_1","","2000","0","stim","","<div class = upperbox><div class = ""center-text"" >Couleur</div></div><div class = lowerbox><div class = ""stim-text"" style=color:orange;>9</div>","89,71","1000","practice","Couleur","orange","9","color","stay","switch","14","true","71","500",""
"-1","-1","poldrack-single-stim","79","98606","0.0-5.0-74.0","sub-07_ses-01_1","","500","0","gap",""," ","none","500","practice","","","","","","","","","","",""
"","","call-function","80","98607","0.0-5.0-75.0","sub-07_ses-01_1","","","","set_stims","","","","","","","","","","","","","","","",""
"-1","-1","poldrack-single-stim","81","99128","0.0-5.0-76.0","sub-07_ses-01_1","","500","0","fixation","","<div class = upperbox><div class = fixation>+</div></div><div class = lowerbox><div class = fixation>+</div></div>","none","500","practice","","","","","","","","","","",""
"-1","-1","poldrack-single-stim","82","100046","0.0-5.0-77.0","sub-07_ses-01_1","","900","0","cue","","<div class = upperbox><div class = ""center-text"" >Haut-Bas</div></div><div class = lowerbox><div class = fixation>+</div></div>","none","900","practice","Haut-Bas","orange","4","magnitude","switch","switch","15","","","",""
"635","89","poldrack-categorize","83","102587","0.0-5.0-78.0","sub-07_ses-01_1","","2000","0","stim","","<div class = upperbox><div class = ""center-text"" >Haut-Bas</div></div><div class = lowerbox><div class = ""stim-text"" style=color:orange;>4</div>","89,71","1000","practice","Haut-Bas","orange","4","magnitude","switch","switch","15","true","89","500",""
"-1","-1","poldrack-single-stim","84","103108","0.0-5.0-79.0","sub-07_ses-01_1","","500","0","gap",""," ","none","500","practice","","","","","","","","","","",""
"1473","32","poldrack-text","85","104595","0.0-6.0","sub-07_ses-01_1","<div class = centerbox><div  class = center-text>Scanner Setup</div></div>","1473","0","fmri_scanner_wait","","","","","","","","","","","","","","","",""
"55296","84","poldrack-text","86","159895","0.0-7.0","sub-07_ses-01_1","<div class = centerbox><div style='color:red'; class = center-text>+</div></div>","55296","0","fmri_trigger_wait","","","","","","","","","","","","","","","",""
"-1","-1","poldrack-single-stim","87","160919","0.0-8.0","sub-07_ses-01_1","","1000","0","fmri_buffer","","","none","1000","","","","","","","","","","","",""
"-1","-1","poldrack-single-stim","88","162438","0.0-9.0","sub-07_ses-01_1","","1500","500","test_start_block","","<div class = centerbox><div class = center-text>Preparez-vous!</p></div>","none","1500","","","","","","","","","","","",""
"-1","-1","poldrack-single-stim","89","163477","0.0-10.0","sub-07_ses-01_1","","500","0","fixation","","<div class = upperbox><div class = fixation>+</div></div><div class = lowerbox><div class = fixation>+</div></div>","none","500","test","","","","","","","","","","",""
"","","call-function","90","163478","0.0-11.0","sub-07_ses-01_1","","","","set_stims","","","","","","","","","","","","","","","",""
"-1","-1","poldrack-single-stim","91","163597","0.0-12.0","sub-07_ses-01_1","","100","0","cue","","<div class = upperbox><div class = ""center-text"" >Haut-Bas</div></div><div class = lowerbox><div class = fixation>+</div></div>","none","100","test","Haut-Bas","orange","8","magnitude","stay","stay","0","","","",""
"1580","71","poldrack-single-stim","92","166836","0.0-13.0","sub-07_ses-01_1","","3224","0","stim","","<div class = upperbox><div class = ""center-text"" >Haut-Bas</div></div><div class = lowerbox><div class = ""stim-text"" style=color:orange;>8</div>","89,71","1000","test","Haut-Bas","orange","8","magnitude","stay","stay","0","true","71","",""
"","","call-function","93","166839","0.0-14.0","sub-07_ses-01_1","","","","set_stims","","","","","","","","","","","","","","","",""
"-1","-1","poldrack-single-stim","94","166957","0.0-15.0","sub-07_ses-01_1","","100","0","cue","","<div class = upperbox><div class = ""center-text"" >Couleur</div></div><div class = lowerbox><div class = fixation>+</div></div>","none","100","test","Couleur","#1F45FC","1","color","switch","switch","1","","","",""
"799","89","poldrack-single-stim","95","169366","0.0-16.0","sub-07_ses-01_1","","2408","0","stim","","<div class = upperbox><div class = ""center-text"" >Couleur</div></div><div class = lowerbox><div class = ""stim-text"" style=color:#1F45FC;>1</div>","89,71","1000","test","Couleur","#1F45FC","1","color","switch","switch","1","true","89","",""
"","","call-function","96","169368","0.0-17.0","sub-07_ses-01_1","","","","set_stims","","","","","","","","","","","","","","","",""
"-1","-1","poldrack-single-stim","97","170276","0.0-18.0","sub-07_ses-01_1","","900","0","cue","","<div class = upperbox><div class = ""center-text"" >Haut-Bas</div></div><div class = lowerbox><div class = fixation>+</div></div>","none","900","test","Haut-Bas","orange","4","magnitude","switch","stay","2","","","",""
"636","89","poldrack-single-stim","98","173097","0.0-19.0","sub-07_ses-01_1","","2816","0","stim","","<div class = upperbox><div class = ""center-text"" >Haut-Bas</div></div><div class = lowerbox><div class = ""stim-text"" style=color:orange;>4</div>","89,71","1000","test","Haut-Bas","orange","4","magnitude","switch","stay","2","true","89","",""
"","","call-function","99","173098","0.0-20.0","sub-07_ses-01_1","","","","set_stims","","","","","","","","","","","","","","","",""
"-1","-1","poldrack-single-stim","100","174008","0.0-21.0","sub-07_ses-01_1","","900","0","cue","","<div class = upperbox><div class = ""center-text"" >Orange-Bleu</div></div><div class = lowerbox><div class = fixation>+</div></div>","none","900","test","Orange-Bleu","orange","1","color","switch","stay","3","","","",""
"585","71","poldrack-single-stim","101","176437","0.0-22.0","sub-07_ses-01_1","","2408","0","stim","","<div class = upperbox><div class = ""center-text"" >Orange-Bleu</div></div><div class = lowerbox><div class = ""stim-text"" style=color:orange;>1</div>","89,71","1000","test","Orange-Bleu","orange","1","color","switch","stay","3","true","71","",""
"","","call-function","102","176438","0.0-23.0","sub-07_ses-01_1","","","","set_stims","","","","","","","","","","","","","","","",""
"-1","-1","poldrack-single-stim","103","177358","0.0-24.0","sub-07_ses-01_1","","900","0","cue","","<div class = upperbox><div class = ""center-text"" >Amplitude</div></div><div class = lowerbox><div class = fixation>+</div></div>","none","900","test","Amplitude","#1F45FC","4","magnitude","switch","switch","4","","","",""
"671","89","poldrack-single-stim","104","179517","0.0-25.0","sub-07_ses-01_1","","2136","0","stim","","<div class = upperbox><div class = ""center-text"" >Amplitude</div></div><div class = lowerbox><div class = ""stim-text"" style=color:#1F45FC;>4</div>","89,71","1000","test","Amplitude","#1F45FC","4","magnitude","switch","switch","4","true","89","",""
"","","call-function","105","179518","0.0-26.0","sub-07_ses-01_1","","","","set_stims","","","","","","","","","","","","","","","",""
"-1","-1","poldrack-single-stim","106","180446","0.0-27.0","sub-07_ses-01_1","","900","0","cue","","<div class = upperbox><div class = ""center-text"" >Amplitude</div></div><div class = lowerbox><div class = fixation>+</div></div>","none","900","test","Amplitude","orange","9","magnitude","stay","stay","5","","","",""
"832","71","poldrack-single-stim","107","182596","0.0-28.0","sub-07_ses-01_1","","2136","0","stim","","<div class = upperbox><div class = ""center-text"" >Amplitude</div></div><div class = lowerbox><div class = ""stim-text"" style=color:orange;>9</div>","89,71","1000","test","Amplitude","orange","9","magnitude","stay","stay","5","true","71","",""
"","","call-function","108","182598","0.0-29.0","sub-07_ses-01_1","","","","set_stims","","","","","","","","","","","","","","","",""
"-1","-1","poldrack-single-stim","109","183514","0.0-30.0","sub-07_ses-01_1","","900","0","cue","","<div class = upperbox><div class = ""center-text"" >Haut-Bas</div></div><div class = lowerbox><div class = fixation>+</div></div>","none","900","test","Haut-Bas","orange","3","magnitude","stay","switch","6","","","",""
"578","89","poldrack-single-stim","110","185526","0.0-31.0","sub-07_ses-01_1","","2000","0","stim","","<div class = upperbox><div class = ""center-text"" >Haut-Bas</div></div><div class = lowerbox><div class = ""stim-text"" style=color:orange;>3</div>","89,71","1000","test","Haut-Bas","orange","3","magnitude","stay","switch","6","true","89","",""
"","","call-function","111","185527","0.0-32.0","sub-07_ses-01_1","","","","set_stims","","","","","","","","","","","","","","","",""
"-1","-1","poldrack-single-stim","112","186447","0.0-33.0","sub-07_ses-01_1","","900","0","cue","","<div class = upperbox><div class = ""center-text"" >Amplitude</div></div><div class = lowerbox><div class = fixation>+</div></div>","none","900","test","Amplitude","orange","1","magnitude","stay","switch","7","","","",""
"562","89","poldrack-single-stim","113","188456","0.0-34.0","sub-07_ses-01_1","","2000","0","stim","","<div class = upperbox><div class = ""center-text"" >Amplitude</div></div><div class = lowerbox><div class = ""stim-text"" style=color:orange;>1</div>","89,71","1000","test","Amplitude","orange","1","magnitude","stay","switch","7","true","89","",""
"","","call-function","114","188457","0.0-35.0","sub-07_ses-01_1","","","","set_stims","","","","","","","","","","","","","","","",""
"-1","-1","poldrack-single-stim","115","188567","0.0-36.0","sub-07_ses-01_1","","100","0","cue","","<div class = upperbox><div class = ""center-text"" >Couleur</div></div><div class = lowerbox><div class = fixation>+</div></div>","none","100","test","Couleur","#1F45FC","3","color","switch","switch","8","","","",""
"1190","89","poldrack-single-stim","116","190856","0.0-37.0","sub-07_ses-01_1","","2272","0","stim","","<div class = upperbox><div class = ""center-text"" >Couleur</div></div><div class = lowerbox><div class = ""stim-text"" style=color:#1F45FC;>3</div>","89,71","1000","test","Couleur","#1F45FC","3","color","switch","switch","8","true","89","",""
"","","call-function","117","190857","0.0-38.0","sub-07_ses-01_1","","","","set_stims","","","","","","","","","","","","","","","",""
"-1","-1","poldrack-single-stim","118","191777","0.0-39.0","sub-07_ses-01_1","","900","0","cue","","<div class = upperbox><div class = ""center-text"" >Amplitude</div></div><div class = lowerbox><div class = fixation>+</div></div>","none","900","test","Amplitude","orange","1","magnitude","switch","stay","9","","","",""
"645","89","poldrack-single-stim","119","194207","0.0-40.0","sub-07_ses-01_1","","2408","0","stim","","<div class = upperbox><div class = ""center-text"" >Amplitude</div></div><div class = lowerbox><div class = ""stim-text"" style=color:orange;>1</div>","89,71","1000","test","Amplitude","orange","1","magnitude","switch","stay","9","true","89","",""
"","","call-function","120","194207","0.0-41.0","sub-07_ses-01_1","","","","set_stims","","","","","","","","","","","","","","","",""
"-1","-1","poldrack-single-stim","121","195127","0.0-42.0","sub-07_ses-01_1","","900","0","cue","","<div class = upperbox><div class = ""center-text"" >Orange-Bleu</div></div><div class = lowerbox><div class = fixation>+</div></div>","none","900","test","Orange-Bleu","orange","7","color","switch","stay","10","","","",""
"681","71","poldrack-single-stim","122","197146","0.0-43.0","sub-07_ses-01_1","","2000","0","stim","","<div class = upperbox><div class = ""center-text"" >Orange-Bleu</div></div><div class = lowerbox><div class = ""stim-text"" style=color:orange;>7</div>","89,71","1000","test","Orange-Bleu","orange","7","color","switch","stay","10","true","71","",""
"","","call-function","123","197147","0.0-44.0","sub-07_ses-01_1","","","","set_stims","","","","","","","","","","","","","","","",""
"-1","-1","poldrack-single-stim","124","197267","0.0-45.0","sub-07_ses-01_1","","100","0","cue","","<div class = upperbox><div class = ""center-text"" >Couleur</div></div><div class = lowerbox><div class = fixation>+</div></div>","none","100","test","Couleur","#1F45FC","3","color","stay","switch","11","","","",""
"1113","89","poldrack-single-stim","125","199406","0.0-46.0","sub-07_ses-01_1","","2136","0","stim","","<div class = upperbox><div class = ""center-text"" >Couleur</div></div><div class = lowerbox><div class = ""stim-text"" style=color:#1F45FC;>3</div>","89,71","1000","test","Couleur","#1F45FC","3","color","stay","switch","11","true","89","",""
"","","call-function","126","199407","0.0-47.0","sub-07_ses-01_1","","","","set_stims","","","","","","","","","","","","","","","",""
"-1","-1","poldrack-single-stim","127","199527","0.0-48.0","sub-07_ses-01_1","","100","0","cue","","<div class = upperbox><div class = ""center-text"" >Amplitude</div></div><div class = lowerbox><div class = fixation>+</div></div>","none","100","test","Amplitude","#1F45FC","7","magnitude","switch","switch","12","","","",""
"982","71","poldrack-single-stim","128","201546","0.0-49.0","sub-07_ses-01_1","","2000","0","stim","","<div class = upperbox><div class = ""center-text"" >Amplitude</div></div><div class = lowerbox><div class = ""stim-text"" style=color:#1F45FC;>7</div>","89,71","1000","test","Amplitude","#1F45FC","7","magnitude","switch","switch","12","true","71","",""
"","","call-function","129","201547","0.0-50.0","sub-07_ses-01_1","","","","set_stims","","","","","","","","","","","","","","","",""
"-1","-1","poldrack-single-stim","130","201668","0.0-51.0","sub-07_ses-01_1","","100","0","cue","","<div class = upperbox><div class = ""center-text"" >Orange-Bleu</div></div><div class = lowerbox><div class = fixation>+</div></div>","none","100","test","Orange-Bleu","#1F45FC","2","color","switch","stay","13","","","",""
"1217","89","poldrack-single-stim","131","204085","0.0-52.0","sub-07_ses-01_1","","2408","0","stim","","<div class = upperbox><div class = ""center-text"" >Orange-Bleu</div></div><div class = lowerbox><div class = ""stim-text"" style=color:#1F45FC;>2</div>","89,71","1000","test","Orange-Bleu","#1F45FC","2","color","switch","stay","13","true","89","",""
"","","call-function","132","204085","0.0-53.0","sub-07_ses-01_1","","","","set_stims","","","","","","","","","","","","","","","",""
"-1","-1","poldrack-single-stim","133","204207","0.0-54.0","sub-07_ses-01_1","","100","0","cue","","<div class = upperbox><div class = ""center-text"" >Couleur</div></div><div class = lowerbox><div class = fixation>+</div></div>","none","100","test","Couleur","orange","9","color","stay","switch","14","","","",""
"1270","89","poldrack-single-stim","134","206487","0.0-55.0","sub-07_ses-01_1","","2272","0","stim","","<div class = upperbox><div class = ""center-text"" >Couleur</div></div><div class = lowerbox><div class = ""stim-text"" style=color:orange;>9</div>","89,71","1000","test","Couleur","orange","9","color","stay","switch","14","false","71","",""
"","","call-function","135","206488","0.0-56.0","sub-07_ses-01_1","","","","set_stims","","","","","","","","","","","","","","","",""
"-1","-1","poldrack-single-stim","136","207407","0.0-57.0","sub-07_ses-01_1","","900","0","cue","","<div class = upperbox><div class = ""center-text"" >Haut-Bas</div></div><div class = lowerbox><div class = fixation>+</div></div>","none","900","test","Haut-Bas","orange","4","magnitude","switch","switch","15","","","",""
"814","89","poldrack-single-stim","137","209416","0.0-58.0","sub-07_ses-01_1","","2000","0","stim","","<div class = upperbox><div class = ""center-text"" >Haut-Bas</div></div><div class = lowerbox><div class = ""stim-text"" style=color:orange;>4</div>","89,71","1000","test","Haut-Bas","orange","4","magnitude","switch","switch","15","true","89","",""
"","","call-function","138","209417","0.0-59.0","sub-07_ses-01_1","","","","set_stims","","","","","","","","","","","","","","","",""
"-1","-1","poldrack-single-stim","139","209537","0.0-60.0","sub-07_ses-01_1","","100","0","cue","","<div class = upperbox><div class = ""center-text"" >Amplitude</div></div><div class = lowerbox><div class = fixation>+</div></div>","none","100","test","Amplitude","#1F45FC","1","magnitude","stay","switch","16","","","",""
"1144","89","poldrack-single-stim","140","211816","0.0-61.0","sub-07_ses-01_1","","2272","0","stim","","<div class = upperbox><div class = ""center-text"" >Amplitude</div></div><div class = lowerbox><div class = ""stim-text"" style=color:#1F45FC;>1</div>","89,71","1000","test","Amplitude","#1F45FC","1","magnitude","stay","switch","16","true","89","",""
"","","call-function","141","211818","0.0-62.0","sub-07_ses-01_1","","","","set_stims","","","","","","","","","","","","","","","",""
"-1","-1","poldrack-single-stim","142","211937","0.0-63.0","sub-07_ses-01_1","","100","0","cue","","<div class = upperbox><div class = ""center-text"" >Orange-Bleu</div></div><div class = lowerbox><div class = fixation>+</div></div>","none","100","test","Orange-Bleu","#1F45FC","6","color","switch","switch","17","","","",""
"1044","89","poldrack-single-stim","143","213946","0.0-64.0","sub-07_ses-01_1","","2000","0","stim","","<div class = upperbox><div class = ""center-text"" >Orange-Bleu</div></div><div class = lowerbox><div class = ""stim-text"" style=color:#1F45FC;>6</div>","89,71","1000","test","Orange-Bleu","#1F45FC","6","color","switch","switch","17","true","89","",""
"","","call-function","144","213948","0.0-65.0","sub-07_ses-01_1","","","","set_stims","","","","","","","","","","","","","","","",""
"-1","-1","poldrack-single-stim","145","214867","0.0-66.0","sub-07_ses-01_1","","900","0","cue","","<div class = upperbox><div class = ""center-text"" >Haut-Bas</div></div><div class = lowerbox><div class = fixation>+</div></div>","none","900","test","Haut-Bas","#1F45FC","3","magnitude","switch","stay","18","","","",""
"792","89","poldrack-single-stim","146","216886","0.0-67.0","sub-07_ses-01_1","","2000","0","stim","","<div class = upperbox><div class = ""center-text"" >Haut-Bas</div></div><div class = lowerbox><div class = ""stim-text"" style=color:#1F45FC;>3</div>","89,71","1000","test","Haut-Bas","#1F45FC","3","magnitude","switch","stay","18","true","89","",""
"","","call-function","147","216887","0.0-68.0","sub-07_ses-01_1","","","","set_stims","","","","","","","","","","","","","","","",""
"-1","-1","poldrack-single-stim","148","217007","0.0-69.0","sub-07_ses-01_1","","100","0","cue","","<div class = upperbox><div class = ""center-text"" >Haut-Bas</div></div><div class = lowerbox><div class = fixation>+</div></div>","none","100","test","Haut-Bas","orange","1","magnitude","stay","stay","19","","","",""
"1176","89","poldrack-single-stim","149","219287","0.0-70.0","sub-07_ses-01_1","","2272","0","stim","","<div class = upperbox><div class = ""center-text"" >Haut-Bas</div></div><div class = lowerbox><div class = ""stim-text"" style=color:orange;>1</div>","89,71","1000","test","Haut-Bas","orange","1","magnitude","stay","stay","19","true","89","",""
"","","call-function","150","219288","0.0-71.0","sub-07_ses-01_1","","","","set_stims","","","","","","","","","","","","","","","",""
"-1","-1","poldrack-single-stim","151","220208","0.0-72.0","sub-07_ses-01_1","","900","0","cue","","<div class = upperbox><div class = ""center-text"" >Orange-Bleu</div></div><div class = lowerbox><div class = fixation>+</div></div>","none","900","test","Orange-Bleu","#1F45FC","2","color","switch","stay","20","","","",""
"700","89","poldrack-single-stim","152","222357","0.0-73.0","sub-07_ses-01_1","","2136","0","stim","","<div class = upperbox><div class = ""center-text"" >Orange-Bleu</div></div><div class = lowerbox><div class = ""stim-text"" style=color:#1F45FC;>2</div>","89,71","1000","test","Orange-Bleu","#1F45FC","2","color","switch","stay","20","true","89","",""
"","","call-function","153","222357","0.0-74.0","sub-07_ses-01_1","","","","set_stims","","","","","","","","","","","","","","","",""
"-1","-1","poldrack-single-stim","154","223277","0.0-75.0","sub-07_ses-01_1","","900","0","cue","","<div class = upperbox><div class = ""center-text"" >Haut-Bas</div></div><div class = lowerbox><div class = fixation>+</div></div>","none","900","test","Haut-Bas","#1F45FC","8","magnitude","switch","stay","21","","","",""
"707","71","poldrack-single-stim","155","225287","0.0-76.0","sub-07_ses-01_1","","2000","0","stim","","<div class = upperbox><div class = ""center-text"" >Haut-Bas</div></div><div class = lowerbox><div class = ""stim-text"" style=color:#1F45FC;>8</div>","89,71","1000","test","Haut-Bas","#1F45FC","8","magnitude","switch","stay","21","true","71","",""
"","","call-function","156","225288","0.0-77.0","sub-07_ses-01_1","","","","set_stims","","","","","","","","","","","","","","","",""
"-1","-1","poldrack-single-stim","157","225407","0.0-78.0","sub-07_ses-01_1","","100","0","cue","","<div class = upperbox><div class = ""center-text"" >Haut-Bas</div></div><div class = lowerbox><div class = fixation>+</div></div>","none","100","test","Haut-Bas","orange","8","magnitude","stay","stay","22","","","",""
"1128","71","poldrack-single-stim","158","227426","0.0-79.0","sub-07_ses-01_1","","2000","0","stim","","<div class = upperbox><div class = ""center-text"" >Haut-Bas</div></div><div class = lowerbox><div class = ""stim-text"" style=color:orange;>8</div>","89,71","1000","test","Haut-Bas","orange","8","magnitude","stay","stay","22","true","71","",""
"","","call-function","159","227428","0.0-80.0","sub-07_ses-01_1","","","","set_stims","","","","","","","","","","","","","","","",""
"-1","-1","poldrack-single-stim","160","228347","0.0-81.0","sub-07_ses-01_1","","900","0","cue","","<div class = upperbox><div class = ""center-text"" >Orange-Bleu</div></div><div class = lowerbox><div class = fixation>+</div></div>","none","900","test","Orange-Bleu","#1F45FC","4","color","switch","stay","23","","","",""
"940","89","poldrack-single-stim","161","230432","0.0-82.0","sub-07_ses-01_1","","2000","0","stim","","<div class = upperbox><div class = ""center-text"" >Orange-Bleu</div></div><div class = lowerbox><div class = ""stim-text"" style=color:#1F45FC;>4</div>","89,71","1000","test","Orange-Bleu","#1F45FC","4","color","switch","stay","23","true","89","",""
"","","call-function","162","230433","0.0-83.0","sub-07_ses-01_1","","","","set_stims","","","","","","","","","","","","","","","",""
"-1","-1","poldrack-single-stim","163","231349","0.0-84.0","sub-07_ses-01_1","","900","0","cue","","<div class = upperbox><div class = ""center-text"" >Couleur</div></div><div class = lowerbox><div class = fixation>+</div></div>","none","900","test","Couleur","orange","8","color","stay","switch","24","","","",""
"851","71","poldrack-single-stim","164","233366","0.0-85.0","sub-07_ses-01_1","","2000","0","stim","","<div class = upperbox><div class = ""center-text"" >Couleur</div></div><div class = lowerbox><div class = ""stim-text"" style=color:orange;>8</div>","89,71","1000","test","Couleur","orange","8","color","stay","switch","24","true","71","",""
"","","call-function","165","233367","0.0-86.0","sub-07_ses-01_1","","","","set_stims","","","","","","","","","","","","","","","",""
"-1","-1","poldrack-single-stim","166","234287","0.0-87.0","sub-07_ses-01_1","","900","0","cue","","<div class = upperbox><div class = ""center-text"" >Couleur</div></div><div class = lowerbox><div class = fixation>+</div></div>","none","900","test","Couleur","#1F45FC","6","color","stay","stay","25","","","",""
"1051","89","poldrack-single-stim","167","236306","0.0-88.0","sub-07_ses-01_1","","2000","0","stim","","<div class = upperbox><div class = ""center-text"" >Couleur</div></div><div class = lowerbox><div class = ""stim-text"" style=color:#1F45FC;>6</div>","89,71","1000","test","Couleur","#1F45FC","6","color","stay","stay","25","true","89","",""
"","","call-function","168","236308","0.0-89.0","sub-07_ses-01_1","","","","set_stims","","","","","","","","","","","","","","","",""
"-1","-1","poldrack-single-stim","169","236427","0.0-90.0","sub-07_ses-01_1","","100","0","cue","","<div class = upperbox><div class = ""center-text"" >Amplitude</div></div><div class = lowerbox><div class = fixation>+</div></div>","none","100","test","Amplitude","orange","1","magnitude","switch","stay","26","","","",""
"953","89","poldrack-single-stim","170","238566","0.0-91.0","sub-07_ses-01_1","","2136","0","stim","","<div class = upperbox><div class = ""center-text"" >Amplitude</div></div><div class = lowerbox><div class = ""stim-text"" style=color:orange;>1</div>","89,71","1000","test","Amplitude","orange","1","magnitude","switch","stay","26","true","89","",""
"","","call-function","171","238567","0.0-92.0","sub-07_ses-01_1","","","","set_stims","","","","","","","","","","","","","","","",""
"-1","-1","poldrack-single-stim","172","239488","0.0-93.0","sub-07_ses-01_1","","900","0","cue","","<div class = upperbox><div class = ""center-text"" >Amplitude</div></div><div class = lowerbox><div class = fixation>+</div></div>","none","900","test","Amplitude","#1F45FC","4","magnitude","stay","stay","27","","","",""
"900","89","poldrack-single-stim","173","241507","0.0-94.0","sub-07_ses-01_1","","2000","0","stim","","<div class = upperbox><div class = ""center-text"" >Amplitude</div></div><div class = lowerbox><div class = ""stim-text"" style=color:#1F45FC;>4</div>","89,71","1000","test","Amplitude","#1F45FC","4","magnitude","stay","stay","27","true","89","",""
"","","call-function","174","241508","0.0-95.0","sub-07_ses-01_1","","","","set_stims","","","","","","","","","","","","","","","",""
"-1","-1","poldrack-single-stim","175","241628","0.0-96.0","sub-07_ses-01_1","","100","0","cue","","<div class = upperbox><div class = ""center-text"" >Orange-Bleu</div></div><div class = lowerbox><div class = fixation>+</div></div>","none","100","test","Orange-Bleu","orange","1","color","switch","switch","28","","","",""
"1416","71","poldrack-single-stim","176","243647","0.0-97.0","sub-07_ses-01_1","","2000","0","stim","","<div class = upperbox><div class = ""center-text"" >Orange-Bleu</div></div><div class = lowerbox><div class = ""stim-text"" style=color:orange;>1</div>","89,71","1000","test","Orange-Bleu","orange","1","color","switch","switch","28","true","71","",""
"","","call-function","177","243647","0.0-98.0","sub-07_ses-01_1","","","","set_stims","","","","","","","","","","","","","","","",""
"-1","-1","poldrack-single-stim","178","243767","0.0-99.0","sub-07_ses-01_1","","100","0","cue","","<div class = upperbox><div class = ""center-text"" >Couleur</div></div><div class = lowerbox><div class = fixation>+</div></div>","none","100","test","Couleur","#1F45FC","7","color","stay","switch","29","","","",""
"1068","89","poldrack-single-stim","179","245926","0.0-100.0","sub-07_ses-01_1","","2136","0","stim","","<div class = upperbox><div class = ""center-text"" >Couleur</div></div><div class = lowerbox><div class = ""stim-text"" style=color:#1F45FC;>7</div>","89,71","1000","test","Couleur","#1F45FC","7","color","stay","switch","29","true","89","",""
"","","call-function","180","245928","0.0-101.0","sub-07_ses-01_1","","","","set_stims","","","","","","","","","","","","","","","",""
"-1","-1","poldrack-single-stim","181","246047","0.0-102.0","sub-07_ses-01_1","","100","0","cue","","<div class = upperbox><div class = ""center-text"" >Orange-Bleu</div></div><div class = lowerbox><div class = fixation>+</div></div>","none","100","test","Orange-Bleu","orange","1","color","stay","switch","30","","","",""
"1585","71","poldrack-single-stim","182","248066","0.0-103.0","sub-07_ses-01_1","","2000","0","stim","","<div class = upperbox><div class = ""center-text"" >Orange-Bleu</div></div><div class = lowerbox><div class = ""stim-text"" style=color:orange;>1</div>","89,71","1000","test","Orange-Bleu","orange","1","color","stay","switch","30","true","71","",""
"","","call-function","183","248068","0.0-104.0","sub-07_ses-01_1","","","","set_stims","","","","","","","","","","","","","","","",""
"-1","-1","poldrack-single-stim","184","248187","0.0-105.0","sub-07_ses-01_1","","100","0","cue","","<div class = upperbox><div class = ""center-text"" >Amplitude</div></div><div class = lowerbox><div class = fixation>+</div></div>","none","100","test","Amplitude","#1F45FC","7","magnitude","switch","stay","31","","","",""
"1450","71","poldrack-single-stim","185","250346","0.0-106.0","sub-07_ses-01_1","","2136","0","stim","","<div class = upperbox><div class = ""center-text"" >Amplitude</div></div><div class = lowerbox><div class = ""stim-text"" style=color:#1F45FC;>7</div>","89,71","1000","test","Amplitude","#1F45FC","7","magnitude","switch","stay","31","true","71","",""
"","","call-function","186","250347","0.0-107.0","sub-07_ses-01_1","","","","set_stims","","","","","","","","","","","","","","","",""
"-1","-1","poldrack-single-stim","187","251266","0.0-108.0","sub-07_ses-01_1","","900","0","cue","","<div class = upperbox><div class = ""center-text"" >Orange-Bleu</div></div><div class = lowerbox><div class = fixation>+</div></div>","none","900","test","Orange-Bleu","#1F45FC","9","color","switch","stay","32","","","",""
"1060","89","poldrack-single-stim","188","253969","0.0-109.0","sub-07_ses-01_1","","2680","0","stim","","<div class = upperbox><div class = ""center-text"" >Orange-Bleu</div></div><div class = lowerbox><div class = ""stim-text"" style=color:#1F45FC;>9</div>","89,71","1000","test","Orange-Bleu","#1F45FC","9","color","switch","stay","32","true","89","",""
"","","call-function","189","253971","0.0-110.0","sub-07_ses-01_1","","","","set_stims","","","","","","","","","","","","","","","",""
"-1","-1","poldrack-single-stim","190","254876","0.0-111.0","sub-07_ses-01_1","","900","0","cue","","<div class = upperbox><div class = ""center-text"" >Orange-Bleu</div></div><div class = lowerbox><div class = fixation>+</div></div>","none","900","test","Orange-Bleu","orange","6","color","stay","stay","33","","","",""
"615","71","poldrack-single-stim","191","257166","0.0-112.0","sub-07_ses-01_1","","2272","0","stim","","<div class = upperbox><div class = ""center-text"" >Orange-Bleu</div></div><div class = lowerbox><div class = ""stim-text"" style=color:orange;>6</div>","89,71","1000","test","Orange-Bleu","orange","6","color","stay","stay","33","true","71","",""
"","","call-function","192","257166","0.0-113.0","sub-07_ses-01_1","","","","set_stims","","","","","","","","","","","","","","","",""
"-1","-1","poldrack-single-stim","193","258087","0.0-114.0","sub-07_ses-01_1","","900","0","cue","","<div class = upperbox><div class = ""center-text"" >Orange-Bleu</div></div><div class = lowerbox><div class = fixation>+</div></div>","none","900","test","Orange-Bleu","#1F45FC","4","color","stay","stay","34","","","",""
"467","89","poldrack-single-stim","194","260237","0.0-115.0","sub-07_ses-01_1","","2136","0","stim","","<div class = upperbox><div class = ""center-text"" >Orange-Bleu</div></div><div class = lowerbox><div class = ""stim-text"" style=color:#1F45FC;>4</div>","89,71","1000","test","Orange-Bleu","#1F45FC","4","color","stay","stay","34","true","89","",""
"","","call-function","195","260238","0.0-116.0","sub-07_ses-01_1","","","","set_stims","","","","","","","","","","","","","","","",""
"-1","-1","poldrack-single-stim","196","261148","0.0-117.0","sub-07_ses-01_1","","900","0","cue","","<div class = upperbox><div class = ""center-text"" >Amplitude</div></div><div class = lowerbox><div class = fixation>+</div></div>","none","900","test","Amplitude","orange","6","magnitude","switch","switch","35","","","",""
"584","71","poldrack-single-stim","197","263167","0.0-118.0","sub-07_ses-01_1","","2000","0","stim","","<div class = upperbox><div class = ""center-text"" >Amplitude</div></div><div class = lowerbox><div class = ""stim-text"" style=color:orange;>6</div>","89,71","1000","test","Amplitude","orange","6","magnitude","switch","switch","35","true","71","",""
"","","call-function","198","263168","0.0-119.0","sub-07_ses-01_1","","","","set_stims","","","","","","","","","","","","","","","",""
"-1","-1","poldrack-single-stim","199","264077","0.0-120.0","sub-07_ses-01_1","","900","0","cue","","<div class = upperbox><div class = ""center-text"" >Orange-Bleu</div></div><div class = lowerbox><div class = fixation>+</div></div>","none","900","test","Orange-Bleu","orange","1","color","switch","switch","36","","","",""
"764","71","poldrack-single-stim","200","266226","0.0-121.0","sub-07_ses-01_1","","2136","0","stim","","<div class = upperbox><div class = ""center-text"" >Orange-Bleu</div></div><div class = lowerbox><div class = ""stim-text"" style=color:orange;>1</div>","89,71","1000","test","Orange-Bleu","orange","1","color","switch","switch","36","true","71","",""
"","","call-function","201","266228","0.0-122.0","sub-07_ses-01_1","","","","set_stims","","","","","","","","","","","","","","","",""
"-1","-1","poldrack-single-stim","202","267147","0.0-123.0","sub-07_ses-01_1","","900","0","cue","","<div class = upperbox><div class = ""center-text"" >Haut-Bas</div></div><div class = lowerbox><div class = fixation>+</div></div>","none","900","test","Haut-Bas","orange","2","magnitude","switch","switch","37","","","",""
"673","89","poldrack-single-stim","203","269836","0.0-124.0","sub-07_ses-01_1","","2680","0","stim","","<div class = upperbox><div class = ""center-text"" >Haut-Bas</div></div><div class = lowerbox><div class = ""stim-text"" style=color:orange;>2</div>","89,71","1000","test","Haut-Bas","orange","2","magnitude","switch","switch","37","true","89","",""
"","","call-function","204","269837","0.0-125.0","sub-07_ses-01_1","","","","set_stims","","","","","","","","","","","","","","","",""
"-1","-1","poldrack-single-stim","205","269956","0.0-126.0","sub-07_ses-01_1","","100","0","cue","","<div class = upperbox><div class = ""center-text"" >Couleur</div></div><div class = lowerbox><div class = fixation>+</div></div>","none","100","test","Couleur","#1F45FC","8","color","switch","stay","38","","","",""
"958","89","poldrack-single-stim","206","272237","0.0-127.0","sub-07_ses-01_1","","2272","0","stim","","<div class = upperbox><div class = ""center-text"" >Couleur</div></div><div class = lowerbox><div class = ""stim-text"" style=color:#1F45FC;>8</div>","89,71","1000","test","Couleur","#1F45FC","8","color","switch","stay","38","true","89","",""
"","","call-function","207","272237","0.0-128.0","sub-07_ses-01_1","","","","set_stims","","","","","","","","","","","","","","","",""
"-1","-1","poldrack-single-stim","208","273145","0.0-129.0","sub-07_ses-01_1","","900","0","cue","","<div class = upperbox><div class = ""center-text"" >Orange-Bleu</div></div><div class = lowerbox><div class = fixation>+</div></div>","none","900","test","Orange-Bleu","orange","4","color","stay","switch","39","","","",""
"579","71","poldrack-single-stim","209","275166","0.0-130.0","sub-07_ses-01_1","","2000","0","stim","","<div class = upperbox><div class = ""center-text"" >Orange-Bleu</div></div><div class = lowerbox><div class = ""stim-text"" style=color:orange;>4</div>","89,71","1000","test","Orange-Bleu","orange","4","color","stay","switch","39","true","71","",""
"","","call-function","210","275168","0.0-131.0","sub-07_ses-01_1","","","","set_stims","","","","","","","","","","","","","","","",""
"-1","-1","poldrack-single-stim","211","276087","0.0-132.0","sub-07_ses-01_1","","900","0","cue","","<div class = upperbox><div class = ""center-text"" >Amplitude</div></div><div class = lowerbox><div class = fixation>+</div></div>","none","900","test","Amplitude","#1F45FC","6","magnitude","switch","switch","40","","","",""
"660","71","poldrack-single-stim","212","278096","0.0-133.0","sub-07_ses-01_1","","2000","0","stim","","<div class = upperbox><div class = ""center-text"" >Amplitude</div></div><div class = lowerbox><div class = ""stim-text"" style=color:#1F45FC;>6</div>","89,71","1000","test","Amplitude","#1F45FC","6","magnitude","switch","switch","40","true","71","",""
"","","call-function","213","278097","0.0-134.0","sub-07_ses-01_1","","","","set_stims","","","","","","","","","","","","","","","",""
"-1","-1","poldrack-single-stim","214","278217","0.0-135.0","sub-07_ses-01_1","","100","0","cue","","<div class = upperbox><div class = ""center-text"" >Amplitude</div></div><div class = lowerbox><div class = fixation>+</div></div>","none","100","test","Amplitude","orange","9","magnitude","stay","stay","41","","","",""
"1275","71","poldrack-single-stim","215","280367","0.0-136.0","sub-07_ses-01_1","","2136","0","stim","","<div class = upperbox><div class = ""center-text"" >Amplitude</div></div><div class = lowerbox><div class = ""stim-text"" style=color:orange;>9</div>","89,71","1000","test","Amplitude","orange","9","magnitude","stay","stay","41","true","71","",""
"","","call-function","216","280368","0.0-137.0","sub-07_ses-01_1","","","","set_stims","","","","","","","","","","","","","","","",""
"-1","-1","poldrack-single-stim","217","281287","0.0-138.0","sub-07_ses-01_1","","900","0","cue","","<div class = upperbox><div class = ""center-text"" >Amplitude</div></div><div class = lowerbox><div class = fixation>+</div></div>","none","900","test","Amplitude","orange","1","magnitude","stay","stay","42","","","",""
"572","89","poldrack-single-stim","218","283306","0.0-139.0","sub-07_ses-01_1","","2000","0","stim","","<div class = upperbox><div class = ""center-text"" >Amplitude</div></div><div class = lowerbox><div class = ""stim-text"" style=color:orange;>1</div>","89,71","1000","test","Amplitude","orange","1","magnitude","stay","stay","42","true","89","",""
"","","call-function","219","283307","0.0-140.0","sub-07_ses-01_1","","","","set_stims","","","","","","","","","","","","","","","",""
"-1","-1","poldrack-single-stim","220","283427","0.0-141.0","sub-07_ses-01_1","","100","0","cue","","<div class = upperbox><div class = ""center-text"" >Amplitude</div></div><div class = lowerbox><div class = fixation>+</div></div>","none","100","test","Amplitude","orange","7","magnitude","stay","stay","43","","","",""
"759","71","poldrack-single-stim","221","285446","0.0-142.0","sub-07_ses-01_1","","2000","0","stim","","<div class = upperbox><div class = ""center-text"" >Amplitude</div></div><div class = lowerbox><div class = ""stim-text"" style=color:orange;>7</div>","89,71","1000","test","Amplitude","orange","7","magnitude","stay","stay","43","true","71","",""
"","","call-function","222","285446","0.0-143.0","sub-07_ses-01_1","","","","set_stims","","","","","","","","","","","","","","","",""
"-1","-1","poldrack-single-stim","223","285566","0.0-144.0","sub-07_ses-01_1","","100","0","cue","","<div class = upperbox><div class = ""center-text"" >Haut-Bas</div></div><div class = lowerbox><div class = fixation>+</div></div>","none","100","test","Haut-Bas","#1F45FC","8","magnitude","stay","switch","44","","","",""
"1243","71","poldrack-single-stim","224","287586","0.0-145.0","sub-07_ses-01_1","","2000","0","stim","","<div class = upperbox><div class = ""center-text"" >Haut-Bas</div></div><div class = lowerbox><div class = ""stim-text"" style=color:#1F45FC;>8</div>","89,71","1000","test","Haut-Bas","#1F45FC","8","magnitude","stay","switch","44","true","71","",""
"","","call-function","225","287588","0.0-146.0","sub-07_ses-01_1","","","","set_stims","","","","","","","","","","","","","","","",""
"-1","-1","poldrack-single-stim","226","287706","0.0-147.0","sub-07_ses-01_1","","100","0","cue","","<div class = upperbox><div class = ""center-text"" >Couleur</div></div><div class = lowerbox><div class = fixation>+</div></div>","none","100","test","Couleur","orange","3","color","switch","switch","45","","","",""
"1163","71","poldrack-single-stim","227","289999","0.0-148.0","sub-07_ses-01_1","","2272","0","stim","","<div class = upperbox><div class = ""center-text"" >Couleur</div></div><div class = lowerbox><div class = ""stim-text"" style=color:orange;>3</div>","89,71","1000","test","Couleur","orange","3","color","switch","switch","45","true","71","",""
"","","call-function","228","290001","0.0-149.0","sub-07_ses-01_1","","","","set_stims","","","","","","","","","","","","","","","",""
"-1","-1","poldrack-single-stim","229","290918","0.0-150.0","sub-07_ses-01_1","","900","0","cue","","<div class = upperbox><div class = ""center-text"" >Haut-Bas</div></div><div class = lowerbox><div class = fixation>+</div></div>","none","900","test","Haut-Bas","#1F45FC","8","magnitude","switch","stay","46","","","",""
"995","71","poldrack-single-stim","230","293336","0.0-151.0","sub-07_ses-01_1","","2408","0","stim","","<div class = upperbox><div class = ""center-text"" >Haut-Bas</div></div><div class = lowerbox><div class = ""stim-text"" style=color:#1F45FC;>8</div>","89,71","1000","test","Haut-Bas","#1F45FC","8","magnitude","switch","stay","46","true","71","",""
"","","call-function","231","293337","0.0-152.0","sub-07_ses-01_1","","","","set_stims","","","","","","","","","","","","","","","",""
"-1","-1","poldrack-single-stim","232","294257","0.0-153.0","sub-07_ses-01_1","","900","0","cue","","<div class = upperbox><div class = ""center-text"" >Haut-Bas</div></div><div class = lowerbox><div class = fixation>+</div></div>","none","900","test","Haut-Bas","orange","8","magnitude","stay","stay","47","","","",""
"731","71","poldrack-single-stim","233","296277","0.0-154.0","sub-07_ses-01_1","","2000","0","stim","","<div class = upperbox><div class = ""center-text"" >Haut-Bas</div></div><div class = lowerbox><div class = ""stim-text"" style=color:orange;>8</div>","89,71","1000","test","Haut-Bas","orange","8","magnitude","stay","stay","47","true","71","",""
"","","call-function","234","296278","0.0-155.0","sub-07_ses-01_1","","","","set_stims","","","","","","","","","","","","","","","",""
"-1","-1","poldrack-single-stim","235","297198","0.0-156.0","sub-07_ses-01_1","","900","0","cue","","<div class = upperbox><div class = ""center-text"" >Haut-Bas</div></div><div class = lowerbox><div class = fixation>+</div></div>","none","900","test","Haut-Bas","#1F45FC","9","magnitude","stay","stay","48","","","",""
"636","71","poldrack-single-stim","236","299217","0.0-157.0","sub-07_ses-01_1","","2000","0","stim","","<div class = upperbox><div class = ""center-text"" >Haut-Bas</div></div><div class = lowerbox><div class = ""stim-text"" style=color:#1F45FC;>9</div>","89,71","1000","test","Haut-Bas","#1F45FC","9","magnitude","stay","stay","48","true","71","",""
"","","call-function","237","299219","0.0-158.0","sub-07_ses-01_1","","","","set_stims","","","","","","","","","","","","","","","",""
"-1","-1","poldrack-single-stim","238","299337","0.0-159.0","sub-07_ses-01_1","","100","0","cue","","<div class = upperbox><div class = ""center-text"" >Orange-Bleu</div></div><div class = lowerbox><div class = fixation>+</div></div>","none","100","test","Orange-Bleu","#1F45FC","7","color","switch","switch","49","","","",""
"1368","89","poldrack-single-stim","239","301357","0.0-160.0","sub-07_ses-01_1","","2000","0","stim","","<div class = upperbox><div class = ""center-text"" >Orange-Bleu</div></div><div class = lowerbox><div class = ""stim-text"" style=color:#1F45FC;>7</div>","89,71","1000","test","Orange-Bleu","#1F45FC","7","color","switch","switch","49","true","89","",""
"","","call-function","240","301358","0.0-161.0","sub-07_ses-01_1","","","","set_stims","","","","","","","","","","","","","","","",""
"-1","-1","poldrack-single-stim","241","301476","0.0-162.0","sub-07_ses-01_1","","100","0","cue","","<div class = upperbox><div class = ""center-text"" >Haut-Bas</div></div><div class = lowerbox><div class = fixation>+</div></div>","none","100","test","Haut-Bas","orange","3","magnitude","switch","stay","50","","","",""
"1862","71","poldrack-single-stim","242","303757","0.0-163.0","sub-07_ses-01_1","","2272","0","stim","","<div class = upperbox><div class = ""center-text"" >Haut-Bas</div></div><div class = lowerbox><div class = ""stim-text"" style=color:orange;>3</div>","89,71","1000","test","Haut-Bas","orange","3","magnitude","switch","stay","50","false","89","",""
"","","call-function","243","303758","0.0-164.0","sub-07_ses-01_1","","","","set_stims","","","","","","","","","","","","","","","",""
"-1","-1","poldrack-single-stim","244","304677","0.0-165.0","sub-07_ses-01_1","","900","0","cue","","<div class = upperbox><div class = ""center-text"" >Haut-Bas</div></div><div class = lowerbox><div class = fixation>+</div></div>","none","900","test","Haut-Bas","orange","7","magnitude","stay","stay","51","","","",""
"1689","71","poldrack-single-stim","245","306836","0.0-166.0","sub-07_ses-01_1","","2136","0","stim","","<div class = upperbox><div class = ""center-text"" >Haut-Bas</div></div><div class = lowerbox><div class = ""stim-text"" style=color:orange;>7</div>","89,71","1000","test","Haut-Bas","orange","7","magnitude","stay","stay","51","true","71","",""
"","","call-function","246","306838","0.0-167.0","sub-07_ses-01_1","","","","set_stims","","","","","","","","","","","","","","","",""
"-1","-1","poldrack-single-stim","247","306956","0.0-168.0","sub-07_ses-01_1","","100","0","cue","","<div class = upperbox><div class = ""center-text"" >Couleur</div></div><div class = lowerbox><div class = fixation>+</div></div>","none","100","test","Couleur","orange","4","color","switch","switch","52","","","",""
"1090","71","poldrack-single-stim","248","308976","0.0-169.0","sub-07_ses-01_1","","2000","0","stim","","<div class = upperbox><div class = ""center-text"" >Couleur</div></div><div class = lowerbox><div class = ""stim-text"" style=color:orange;>4</div>","89,71","1000","test","Couleur","orange","4","color","switch","switch","52","true","71","",""
"","","call-function","249","308977","0.0-170.0","sub-07_ses-01_1","","","","set_stims","","","","","","","","","","","","","","","",""
"-1","-1","poldrack-single-stim","250","309896","0.0-171.0","sub-07_ses-01_1","","900","0","cue","","<div class = upperbox><div class = ""center-text"" >Orange-Bleu</div></div><div class = lowerbox><div class = fixation>+</div></div>","none","900","test","Orange-Bleu","orange","3","color","stay","switch","53","","","",""
"652","71","poldrack-single-stim","251","312457","0.0-172.0","sub-07_ses-01_1","","2544","0","stim","","<div class = upperbox><div class = ""center-text"" >Orange-Bleu</div></div><div class = lowerbox><div class = ""stim-text"" style=color:orange;>3</div>","89,71","1000","test","Orange-Bleu","orange","3","color","stay","switch","53","true","71","",""
"","","call-function","252","312457","0.0-173.0","sub-07_ses-01_1","","","","set_stims","","","","","","","","","","","","","","","",""
"-1","-1","poldrack-single-stim","253","312576","0.0-174.0","sub-07_ses-01_1","","100","0","cue","","<div class = upperbox><div class = ""center-text"" >Amplitude</div></div><div class = lowerbox><div class = fixation>+</div></div>","none","100","test","Amplitude","#1F45FC","9","magnitude","switch","switch","54","","","",""
"711","71","poldrack-single-stim","254","314856","0.0-175.0","sub-07_ses-01_1","","2272","0","stim","","<div class = upperbox><div class = ""center-text"" >Amplitude</div></div><div class = lowerbox><div class = ""stim-text"" style=color:#1F45FC;>9</div>","89,71","1000","test","Amplitude","#1F45FC","9","magnitude","switch","switch","54","true","71","",""
"","","call-function","255","314856","0.0-176.0","sub-07_ses-01_1","","","","set_stims","","","","","","","","","","","","","","","",""
"-1","-1","poldrack-single-stim","256","314977","0.0-177.0","sub-07_ses-01_1","","100","0","cue","","<div class = upperbox><div class = ""center-text"" >Amplitude</div></div><div class = lowerbox><div class = fixation>+</div></div>","none","100","test","Amplitude","orange","6","magnitude","stay","stay","55","","","",""
"1187","71","poldrack-single-stim","257","317257","0.0-178.0","sub-07_ses-01_1","","2272","0","stim","","<div class = upperbox><div class = ""center-text"" >Amplitude</div></div><div class = lowerbox><div class = ""stim-text"" style=color:orange;>6</div>","89,71","1000","test","Amplitude","orange","6","magnitude","stay","stay","55","true","71","",""
"","","call-function","258","317258","0.0-179.0","sub-07_ses-01_1","","","","set_stims","","","","","","","","","","","","","","","",""
"-1","-1","poldrack-single-stim","259","318167","0.0-180.0","sub-07_ses-01_1","","900","0","cue","","<div class = upperbox><div class = ""center-text"" >Haut-Bas</div></div><div class = lowerbox><div class = fixation>+</div></div>","none","900","test","Haut-Bas","#1F45FC","2","magnitude","stay","switch","56","","","",""
"906","89","poldrack-single-stim","260","320186","0.0-181.0","sub-07_ses-01_1","","2000","0","stim","","<div class = upperbox><div class = ""center-text"" >Haut-Bas</div></div><div class = lowerbox><div class = ""stim-text"" style=color:#1F45FC;>2</div>","89,71","1000","test","Haut-Bas","#1F45FC","2","magnitude","stay","switch","56","true","89","",""
"","","call-function","261","320187","0.0-182.0","sub-07_ses-01_1","","","","set_stims","","","","","","","","","","","","","","","",""
"-1","-1","poldrack-single-stim","262","321107","0.0-183.0","sub-07_ses-01_1","","900","0","cue","","<div class = upperbox><div class = ""center-text"" >Haut-Bas</div></div><div class = lowerbox><div class = fixation>+</div></div>","none","900","test","Haut-Bas","#1F45FC","3","magnitude","stay","stay","57","","","",""
"553","89","poldrack-single-stim","263","323127","0.0-184.0","sub-07_ses-01_1","","2000","0","stim","","<div class = upperbox><div class = ""center-text"" >Haut-Bas</div></div><div class = lowerbox><div class = ""stim-text"" style=color:#1F45FC;>3</div>","89,71","1000","test","Haut-Bas","#1F45FC","3","magnitude","stay","stay","57","true","89","",""
"","","call-function","264","323128","0.0-185.0","sub-07_ses-01_1","","","","set_stims","","","","","","","","","","","","","","","",""
"-1","-1","poldrack-single-stim","265","324047","0.0-186.0","sub-07_ses-01_1","","900","0","cue","","<div class = upperbox><div class = ""center-text"" >Couleur</div></div><div class = lowerbox><div class = fixation>+</div></div>","none","900","test","Couleur","orange","4","color","switch","stay","58","","","",""
"775","71","poldrack-single-stim","266","326186","0.0-187.0","sub-07_ses-01_1","","2136","0","stim","","<div class = upperbox><div class = ""center-text"" >Couleur</div></div><div class = lowerbox><div class = ""stim-text"" style=color:orange;>4</div>","89,71","1000","test","Couleur","orange","4","color","switch","stay","58","true","71","",""
"","","call-function","267","326187","0.0-188.0","sub-07_ses-01_1","","","","set_stims","","","","","","","","","","","","","","","",""
"-1","-1","poldrack-single-stim","268","327097","0.0-189.0","sub-07_ses-01_1","","900","0","cue","","<div class = upperbox><div class = ""center-text"" >Haut-Bas</div></div><div class = lowerbox><div class = fixation>+</div></div>","none","900","test","Haut-Bas","#1F45FC","3","magnitude","switch","stay","59","","","",""
"1129","89","poldrack-single-stim","269","329116","0.0-190.0","sub-07_ses-01_1","","2000","0","stim","","<div class = upperbox><div class = ""center-text"" >Haut-Bas</div></div><div class = lowerbox><div class = ""stim-text"" style=color:#1F45FC;>3</div>","89,71","1000","test","Haut-Bas","#1F45FC","3","magnitude","switch","stay","59","true","89","",""
"","","call-function","270","329118","0.0-191.0","sub-07_ses-01_1","","","","set_stims","","","","","","","","","","","","","","","",""
"-1","-1","poldrack-single-stim","271","330038","0.0-192.0","sub-07_ses-01_1","","900","0","cue","","<div class = upperbox><div class = ""center-text"" >Amplitude</div></div><div class = lowerbox><div class = fixation>+</div></div>","none","900","test","Amplitude","orange","3","magnitude","stay","switch","60","","","",""
"608","89","poldrack-single-stim","272","332176","0.0-193.0","sub-07_ses-01_1","","2136","0","stim","","<div class = upperbox><div class = ""center-text"" >Amplitude</div></div><div class = lowerbox><div class = ""stim-text"" style=color:orange;>3</div>","89,71","1000","test","Amplitude","orange","3","magnitude","stay","switch","60","true","89","",""
"","","call-function","273","332176","0.0-194.0","sub-07_ses-01_1","","","","set_stims","","","","","","","","","","","","","","","",""
"-1","-1","poldrack-single-stim","274","332296","0.0-195.0","sub-07_ses-01_1","","100","0","cue","","<div class = upperbox><div class = ""center-text"" >Orange-Bleu</div></div><div class = lowerbox><div class = fixation>+</div></div>","none","100","test","Orange-Bleu","orange","3","color","switch","switch","61","","","",""
"1638","89","poldrack-single-stim","275","334587","0.0-196.0","sub-07_ses-01_1","","2272","0","stim","","<div class = upperbox><div class = ""center-text"" >Orange-Bleu</div></div><div class = lowerbox><div class = ""stim-text"" style=color:orange;>3</div>","89,71","1000","test","Orange-Bleu","orange","3","color","switch","switch","61","false","71","",""
"","","call-function","276","334587","0.0-197.0","sub-07_ses-01_1","","","","set_stims","","","","","","","","","","","","","","","",""
"-1","-1","poldrack-single-stim","277","334707","0.0-198.0","sub-07_ses-01_1","","100","0","cue","","<div class = upperbox><div class = ""center-text"" >Haut-Bas</div></div><div class = lowerbox><div class = fixation>+</div></div>","none","100","test","Haut-Bas","#1F45FC","8","magnitude","switch","switch","62","","","",""
"1337","71","poldrack-single-stim","278","336846","0.0-199.0","sub-07_ses-01_1","","2136","0","stim","","<div class = upperbox><div class = ""center-text"" >Haut-Bas</div></div><div class = lowerbox><div class = ""stim-text"" style=color:#1F45FC;>8</div>","89,71","1000","test","Haut-Bas","#1F45FC","8","magnitude","switch","switch","62","true","71","",""
"","","call-function","279","336846","0.0-200.0","sub-07_ses-01_1","","","","set_stims","","","","","","","","","","","","","","","",""
"-1","-1","poldrack-single-stim","280","336966","0.0-201.0","sub-07_ses-01_1","","100","0","cue","","<div class = upperbox><div class = ""center-text"" >Haut-Bas</div></div><div class = lowerbox><div class = fixation>+</div></div>","none","100","test","Haut-Bas","#1F45FC","7","magnitude","stay","stay","63","","","",""
"883","71","poldrack-single-stim","281","339246","0.0-202.0","sub-07_ses-01_1","","2272","0","stim","","<div class = upperbox><div class = ""center-text"" >Haut-Bas</div></div><div class = lowerbox><div class = ""stim-text"" style=color:#1F45FC;>7</div>","89,71","1000","test","Haut-Bas","#1F45FC","7","magnitude","stay","stay","63","true","71","",""
"","","call-function","282","339248","0.0-203.0","sub-07_ses-01_1","","","","set_stims","","","","","","","","","","","","","","","",""
"-1","-1","poldrack-single-stim","283","340167","0.0-204.0","sub-07_ses-01_1","","900","0","cue","","<div class = upperbox><div class = ""center-text"" >Couleur</div></div><div class = lowerbox><div class = fixation>+</div></div>","none","900","test","Couleur","#1F45FC","6","color","switch","stay","64","","","",""
"891","71","poldrack-single-stim","284","342186","0.0-205.0","sub-07_ses-01_1","","2000","0","stim","","<div class = upperbox><div class = ""center-text"" >Couleur</div></div><div class = lowerbox><div class = ""stim-text"" style=color:#1F45FC;>6</div>","89,71","1000","test","Couleur","#1F45FC","6","color","switch","stay","64","false","89","",""
"","","call-function","285","342187","0.0-206.0","sub-07_ses-01_1","","","","set_stims","","","","","","","","","","","","","","","",""
"-1","-1","poldrack-single-stim","286","342306","0.0-207.0","sub-07_ses-01_1","","100","0","cue","","<div class = upperbox><div class = ""center-text"" >Couleur</div></div><div class = lowerbox><div class = fixation>+</div></div>","none","100","test","Couleur","orange","3","color","stay","stay","65","","","",""
"1157","71","poldrack-single-stim","287","345126","0.0-208.0","sub-07_ses-01_1","","2816","0","stim","","<div class = upperbox><div class = ""center-text"" >Couleur</div></div><div class = lowerbox><div class = ""stim-text"" style=color:orange;>3</div>","89,71","1000","test","Couleur","orange","3","color","stay","stay","65","true","71","",""
"","","call-function","288","345127","0.0-209.0","sub-07_ses-01_1","","","","set_stims","","","","","","","","","","","","","","","",""
"-1","-1","poldrack-single-stim","289","345247","0.0-210.0","sub-07_ses-01_1","","100","0","cue","","<div class = upperbox><div class = ""center-text"" >Orange-Bleu</div></div><div class = lowerbox><div class = fixation>+</div></div>","none","100","test","Orange-Bleu","orange","4","color","stay","switch","66","","","",""
"1040","89","poldrack-single-stim","290","347656","0.0-211.0","sub-07_ses-01_1","","2408","0","stim","","<div class = upperbox><div class = ""center-text"" >Orange-Bleu</div></div><div class = lowerbox><div class = ""stim-text"" style=color:orange;>4</div>","89,71","1000","test","Orange-Bleu","orange","4","color","stay","switch","66","false","71","",""
"","","call-function","291","347657","0.0-212.0","sub-07_ses-01_1","","","","set_stims","","","","","","","","","","","","","","","",""
"-1","-1","poldrack-single-stim","292","347777","0.0-213.0","sub-07_ses-01_1","","100","0","cue","","<div class = upperbox><div class = ""center-text"" >Orange-Bleu</div></div><div class = lowerbox><div class = fixation>+</div></div>","none","100","test","Orange-Bleu","#1F45FC","7","color","stay","stay","67","","","",""
"1111","89","poldrack-single-stim","293","349797","0.0-214.0","sub-07_ses-01_1","","2000","0","stim","","<div class = upperbox><div class = ""center-text"" >Orange-Bleu</div></div><div class = lowerbox><div class = ""stim-text"" style=color:#1F45FC;>7</div>","89,71","1000","test","Orange-Bleu","#1F45FC","7","color","stay","stay","67","true","89","",""
"","","call-function","294","349797","0.0-215.0","sub-07_ses-01_1","","","","set_stims","","","","","","","","","","","","","","","",""
"-1","-1","poldrack-single-stim","295","350717","0.0-216.0","sub-07_ses-01_1","","900","0","cue","","<div class = upperbox><div class = ""center-text"" >Orange-Bleu</div></div><div class = lowerbox><div class = fixation>+</div></div>","none","900","test","Orange-Bleu","orange","2","color","stay","stay","68","","","",""
"861","71","poldrack-single-stim","296","353277","0.0-217.0","sub-07_ses-01_1","","2544","0","stim","","<div class = upperbox><div class = ""center-text"" >Orange-Bleu</div></div><div class = lowerbox><div class = ""stim-text"" style=color:orange;>2</div>","89,71","1000","test","Orange-Bleu","orange","2","color","stay","stay","68","true","71","",""
"","","call-function","297","353277","0.0-218.0","sub-07_ses-01_1","","","","set_stims","","","","","","","","","","","","","","","",""
"-1","-1","poldrack-single-stim","298","354196","0.0-219.0","sub-07_ses-01_1","","900","0","cue","","<div class = upperbox><div class = ""center-text"" >Amplitude</div></div><div class = lowerbox><div class = fixation>+</div></div>","none","900","test","Amplitude","#1F45FC","4","magnitude","switch","switch","69","","","",""
"894","89","poldrack-single-stim","299","356337","0.0-220.0","sub-07_ses-01_1","","2136","0","stim","","<div class = upperbox><div class = ""center-text"" >Amplitude</div></div><div class = lowerbox><div class = ""stim-text"" style=color:#1F45FC;>4</div>","89,71","1000","test","Amplitude","#1F45FC","4","magnitude","switch","switch","69","true","89","",""
"","","call-function","300","356337","0.0-221.0","sub-07_ses-01_1","","","","set_stims","","","","","","","","","","","","","","","",""
"-1","-1","poldrack-single-stim","301","356456","0.0-222.0","sub-07_ses-01_1","","100","0","cue","","<div class = upperbox><div class = ""center-text"" >Orange-Bleu</div></div><div class = lowerbox><div class = fixation>+</div></div>","none","100","test","Orange-Bleu","orange","3","color","switch","stay","70","","","",""
"1337","71","poldrack-single-stim","302","358476","0.0-223.0","sub-07_ses-01_1","","2000","0","stim","","<div class = upperbox><div class = ""center-text"" >Orange-Bleu</div></div><div class = lowerbox><div class = ""stim-text"" style=color:orange;>3</div>","89,71","1000","test","Orange-Bleu","orange","3","color","switch","stay","70","true","71","",""
"","","call-function","303","358477","0.0-224.0","sub-07_ses-01_1","","","","set_stims","","","","","","","","","","","","","","","",""
"-1","-1","poldrack-single-stim","304","359387","0.0-225.0","sub-07_ses-01_1","","900","0","cue","","<div class = upperbox><div class = ""center-text"" >Orange-Bleu</div></div><div class = lowerbox><div class = fixation>+</div></div>","none","900","test","Orange-Bleu","orange","1","color","stay","stay","71","","","",""
"607","71","poldrack-single-stim","305","361406","0.0-226.0","sub-07_ses-01_1","","2000","0","stim","","<div class = upperbox><div class = ""center-text"" >Orange-Bleu</div></div><div class = lowerbox><div class = ""stim-text"" style=color:orange;>1</div>","89,71","1000","test","Orange-Bleu","orange","1","color","stay","stay","71","true","71","",""
"","","call-function","306","361407","0.0-227.0","sub-07_ses-01_1","","","","set_stims","","","","","","","","","","","","","","","",""
"-1","-1","poldrack-single-stim","307","362326","0.0-228.0","sub-07_ses-01_1","","900","0","cue","","<div class = upperbox><div class = ""center-text"" >Couleur</div></div><div class = lowerbox><div class = fixation>+</div></div>","none","900","test","Couleur","#1F45FC","2","color","stay","switch","72","","","",""
"976","89","poldrack-single-stim","308","364477","0.0-229.0","sub-07_ses-01_1","","2136","0","stim","","<div class = upperbox><div class = ""center-text"" >Couleur</div></div><div class = lowerbox><div class = ""stim-text"" style=color:#1F45FC;>2</div>","89,71","1000","test","Couleur","#1F45FC","2","color","stay","switch","72","true","89","",""
"","","call-function","309","364478","0.0-230.0","sub-07_ses-01_1","","","","set_stims","","","","","","","","","","","","","","","",""
"-1","-1","poldrack-single-stim","310","365396","0.0-231.0","sub-07_ses-01_1","","900","0","cue","","<div class = upperbox><div class = ""center-text"" >Couleur</div></div><div class = lowerbox><div class = fixation>+</div></div>","none","900","test","Couleur","#1F45FC","1","color","stay","stay","73","","","",""
"1012","89","poldrack-single-stim","311","367537","0.0-232.0","sub-07_ses-01_1","","2136","0","stim","","<div class = upperbox><div class = ""center-text"" >Couleur</div></div><div class = lowerbox><div class = ""stim-text"" style=color:#1F45FC;>1</div>","89,71","1000","test","Couleur","#1F45FC","1","color","stay","stay","73","true","89","",""
"","","call-function","312","367537","0.0-233.0","sub-07_ses-01_1","","","","set_stims","","","","","","","","","","","","","","","",""
"-1","-1","poldrack-single-stim","313","367656","0.0-234.0","sub-07_ses-01_1","","100","0","cue","","<div class = upperbox><div class = ""center-text"" >Amplitude</div></div><div class = lowerbox><div class = fixation>+</div></div>","none","100","test","Amplitude","#1F45FC","7","magnitude","switch","stay","74","","","",""
"1028","71","poldrack-single-stim","314","369937","0.0-235.0","sub-07_ses-01_1","","2272","0","stim","","<div class = upperbox><div class = ""center-text"" >Amplitude</div></div><div class = lowerbox><div class = ""stim-text"" style=color:#1F45FC;>7</div>","89,71","1000","test","Amplitude","#1F45FC","7","magnitude","switch","stay","74","true","71","",""
"","","call-function","315","369938","0.0-236.0","sub-07_ses-01_1","","","","set_stims","","","","","","","","","","","","","","","",""
"-1","-1","poldrack-single-stim","316","370057","0.0-237.0","sub-07_ses-01_1","","100","0","cue","","<div class = upperbox><div class = ""center-text"" >Haut-Bas</div></div><div class = lowerbox><div class = fixation>+</div></div>","none","100","test","Haut-Bas","#1F45FC","4","magnitude","stay","switch","75","","","",""
"1220","89","poldrack-single-stim","317","373287","0.0-238.0","sub-07_ses-01_1","","3224","0","stim","","<div class = upperbox><div class = ""center-text"" >Haut-Bas</div></div><div class = lowerbox><div class = ""stim-text"" style=color:#1F45FC;>4</div>","89,71","1000","test","Haut-Bas","#1F45FC","4","magnitude","stay","switch","75","true","89","",""
"","","call-function","318","373287","0.0-239.0","sub-07_ses-01_1","","","","set_stims","","","","","","","","","","","","","","","",""
"-1","-1","poldrack-single-stim","319","373406","0.0-240.0","sub-07_ses-01_1","","100","0","cue","","<div class = upperbox><div class = ""center-text"" >Amplitude</div></div><div class = lowerbox><div class = fixation>+</div></div>","none","100","test","Amplitude","#1F45FC","3","magnitude","stay","switch","76","","","",""
"1136","89","poldrack-single-stim","320","375426","0.0-241.0","sub-07_ses-01_1","","2000","0","stim","","<div class = upperbox><div class = ""center-text"" >Amplitude</div></div><div class = lowerbox><div class = ""stim-text"" style=color:#1F45FC;>3</div>","89,71","1000","test","Amplitude","#1F45FC","3","magnitude","stay","switch","76","true","89","",""
"","","call-function","321","375428","0.0-242.0","sub-07_ses-01_1","","","","set_stims","","","","","","","","","","","","","","","",""
"-1","-1","poldrack-single-stim","322","376347","0.0-243.0","sub-07_ses-01_1","","900","0","cue","","<div class = upperbox><div class = ""center-text"" >Couleur</div></div><div class = lowerbox><div class = fixation>+</div></div>","none","900","test","Couleur","#1F45FC","9","color","switch","switch","77","","","",""
"1007","71","poldrack-single-stim","323","378365","0.0-244.0","sub-07_ses-01_1","","2000","0","stim","","<div class = upperbox><div class = ""center-text"" >Couleur</div></div><div class = lowerbox><div class = ""stim-text"" style=color:#1F45FC;>9</div>","89,71","1000","test","Couleur","#1F45FC","9","color","switch","switch","77","false","89","",""
"","","call-function","324","378366","0.0-245.0","sub-07_ses-01_1","","","","set_stims","","","","","","","","","","","","","","","",""
"-1","-1","poldrack-single-stim","325","378485","0.0-246.0","sub-07_ses-01_1","","100","0","cue","","<div class = upperbox><div class = ""center-text"" >Amplitude</div></div><div class = lowerbox><div class = fixation>+</div></div>","none","100","test","Amplitude","#1F45FC","6","magnitude","switch","switch","78","","","",""
"1065","89","poldrack-single-stim","326","380766","0.0-247.0","sub-07_ses-01_1","","2272","0","stim","","<div class = upperbox><div class = ""center-text"" >Amplitude</div></div><div class = lowerbox><div class = ""stim-text"" style=color:#1F45FC;>6</div>","89,71","1000","test","Amplitude","#1F45FC","6","magnitude","switch","switch","78","false","71","",""
"","","call-function","327","380767","0.0-248.0","sub-07_ses-01_1","","","","set_stims","","","","","","","","","","","","","","","",""
"-1","-1","poldrack-single-stim","328","380886","0.0-249.0","sub-07_ses-01_1","","100","0","cue","","<div class = upperbox><div class = ""center-text"" >Couleur</div></div><div class = lowerbox><div class = fixation>+</div></div>","none","100","test","Couleur","orange","1","color","switch","switch","79","","","",""
"1085","71","poldrack-single-stim","329","383048","0.0-250.0","sub-07_ses-01_1","","2136","0","stim","","<div class = upperbox><div class = ""center-text"" >Couleur</div></div><div class = lowerbox><div class = ""stim-text"" style=color:orange;>1</div>","89,71","1000","test","Couleur","orange","1","color","switch","switch","79","true","71","",""
"-1","-1","poldrack-single-stim","330","393057","0.0-251.0","sub-07_ses-01_1","","10000","1000","rest_block","","<div class = centerbox><div class = center-text>+</div></div>","none","10000","","","","","","","","","","","",""
"-1","-1","poldrack-single-stim","331","395598","0.0-252.0","sub-07_ses-01_1","","1500","500","test_start_block","","<div class = centerbox><div class = center-text>Preparez-vous!</p></div>","none","1500","","","","","","","","","","","",""
"-1","-1","poldrack-single-stim","332","396636","0.0-253.0","sub-07_ses-01_1","","500","0","fixation","","<div class = upperbox><div class = fixation>+</div></div><div class = lowerbox><div class = fixation>+</div></div>","none","500","test","","","","","","","","","","",""
"","","call-function","333","396636","0.0-254.0","sub-07_ses-01_1","","","","set_stims","","","","","","","","","","","","","","","",""
"-1","-1","poldrack-single-stim","334","396757","0.0-255.0","sub-07_ses-01_1","","100","0","cue","","<div class = upperbox><div class = ""center-text"" >Amplitude</div></div><div class = lowerbox><div class = fixation>+</div></div>","none","100","test","Amplitude","orange","8","magnitude","stay","stay","0","","","",""
"1031","71","poldrack-single-stim","335","398777","0.0-256.0","sub-07_ses-01_1","","2000","0","stim","","<div class = upperbox><div class = ""center-text"" >Amplitude</div></div><div class = lowerbox><div class = ""stim-text"" style=color:orange;>8</div>","89,71","1000","test","Amplitude","orange","8","magnitude","stay","stay","0","true","71","",""
"","","call-function","336","398777","0.0-257.0","sub-07_ses-01_1","","","","set_stims","","","","","","","","","","","","","","","",""
"-1","-1","poldrack-single-stim","337","398897","0.0-258.0","sub-07_ses-01_1","","100","0","cue","","<div class = upperbox><div class = ""center-text"" >Couleur</div></div><div class = lowerbox><div class = fixation>+</div></div>","none","100","test","Couleur","#1F45FC","1","color","switch","switch","1","","","",""
"761","89","poldrack-single-stim","338","400916","0.0-259.0","sub-07_ses-01_1","","2000","0","stim","","<div class = upperbox><div class = ""center-text"" >Couleur</div></div><div class = lowerbox><div class = ""stim-text"" style=color:#1F45FC;>1</div>","89,71","1000","test","Couleur","#1F45FC","1","color","switch","switch","1","true","89","",""
"","","call-function","339","400917","0.0-260.0","sub-07_ses-01_1","","","","set_stims","","","","","","","","","","","","","","","",""
"-1","-1","poldrack-single-stim","340","401837","0.0-261.0","sub-07_ses-01_1","","900","0","cue","","<div class = upperbox><div class = ""center-text"" >Haut-Bas</div></div><div class = lowerbox><div class = fixation>+</div></div>","none","900","test","Haut-Bas","orange","4","magnitude","switch","stay","2","","","",""
"707","89","poldrack-single-stim","341","403846","0.0-262.0","sub-07_ses-01_1","","2000","0","stim","","<div class = upperbox><div class = ""center-text"" >Haut-Bas</div></div><div class = lowerbox><div class = ""stim-text"" style=color:orange;>4</div>","89,71","1000","test","Haut-Bas","orange","4","magnitude","switch","stay","2","true","89","",""
"","","call-function","342","403846","0.0-263.0","sub-07_ses-01_1","","","","set_stims","","","","","","","","","","","","","","","",""
"-1","-1","poldrack-single-stim","343","404768","0.0-264.0","sub-07_ses-01_1","","900","0","cue","","<div class = upperbox><div class = ""center-text"" >Couleur</div></div><div class = lowerbox><div class = fixation>+</div></div>","none","900","test","Couleur","orange","1","color","switch","stay","3","","","",""
"646","71","poldrack-single-stim","344","407457","0.0-265.0","sub-07_ses-01_1","","2680","0","stim","","<div class = upperbox><div class = ""center-text"" >Couleur</div></div><div class = lowerbox><div class = ""stim-text"" style=color:orange;>1</div>","89,71","1000","test","Couleur","orange","1","color","switch","stay","3","true","71","",""
"","","call-function","345","407458","0.0-266.0","sub-07_ses-01_1","","","","set_stims","","","","","","","","","","","","","","","",""
"-1","-1","poldrack-single-stim","346","408378","0.0-267.0","sub-07_ses-01_1","","900","0","cue","","<div class = upperbox><div class = ""center-text"" >Amplitude</div></div><div class = lowerbox><div class = fixation>+</div></div>","none","900","test","Amplitude","#1F45FC","4","magnitude","switch","switch","4","","","",""
"542","89","poldrack-single-stim","347","410396","0.0-268.0","sub-07_ses-01_1","","2000","0","stim","","<div class = upperbox><div class = ""center-text"" >Amplitude</div></div><div class = lowerbox><div class = ""stim-text"" style=color:#1F45FC;>4</div>","89,71","1000","test","Amplitude","#1F45FC","4","magnitude","switch","switch","4","true","89","",""
"","","call-function","348","410397","0.0-269.0","sub-07_ses-01_1","","","","set_stims","","","","","","","","","","","","","","","",""
"-1","-1","poldrack-single-stim","349","411317","0.0-270.0","sub-07_ses-01_1","","900","0","cue","","<div class = upperbox><div class = ""center-text"" >Amplitude</div></div><div class = lowerbox><div class = fixation>+</div></div>","none","900","test","Amplitude","orange","9","magnitude","stay","stay","5","","","",""
"662","71","poldrack-single-stim","350","413597","0.0-271.0","sub-07_ses-01_1","","2272","0","stim","","<div class = upperbox><div class = ""center-text"" >Amplitude</div></div><div class = lowerbox><div class = ""stim-text"" style=color:orange;>9</div>","89,71","1000","test","Amplitude","orange","9","magnitude","stay","stay","5","true","71","",""
"","","call-function","351","413598","0.0-272.0","sub-07_ses-01_1","","","","set_stims","","","","","","","","","","","","","","","",""
"-1","-1","poldrack-single-stim","352","414508","0.0-273.0","sub-07_ses-01_1","","900","0","cue","","<div class = upperbox><div class = ""center-text"" >Haut-Bas</div></div><div class = lowerbox><div class = fixation>+</div></div>","none","900","test","Haut-Bas","orange","3","magnitude","stay","switch","6","","","",""
"704","89","poldrack-single-stim","353","416526","0.0-274.0","sub-07_ses-01_1","","2000","0","stim","","<div class = upperbox><div class = ""center-text"" >Haut-Bas</div></div><div class = lowerbox><div class = ""stim-text"" style=color:orange;>3</div>","89,71","1000","test","Haut-Bas","orange","3","magnitude","stay","switch","6","true","89","",""
"","","call-function","354","416527","0.0-275.0","sub-07_ses-01_1","","","","set_stims","","","","","","","","","","","","","","","",""
"-1","-1","poldrack-single-stim","355","417447","0.0-276.0","sub-07_ses-01_1","","900","0","cue","","<div class = upperbox><div class = ""center-text"" >Amplitude</div></div><div class = lowerbox><div class = fixation>+</div></div>","none","900","test","Amplitude","orange","1","magnitude","stay","switch","7","","","",""
"691","89","poldrack-single-stim","356","419727","0.0-277.0","sub-07_ses-01_1","","2272","0","stim","","<div class = upperbox><div class = ""center-text"" >Amplitude</div></div><div class = lowerbox><div class = ""stim-text"" style=color:orange;>1</div>","89,71","1000","test","Amplitude","orange","1","magnitude","stay","switch","7","true","89","",""
"","","call-function","357","419728","0.0-278.0","sub-07_ses-01_1","","","","set_stims","","","","","","","","","","","","","","","",""
"-1","-1","poldrack-single-stim","358","419847","0.0-279.0","sub-07_ses-01_1","","100","0","cue","","<div class = upperbox><div class = ""center-text"" >Orange-Bleu</div></div><div class = lowerbox><div class = fixation>+</div></div>","none","100","test","Orange-Bleu","#1F45FC","3","color","switch","switch","8","","","",""
"967","71","poldrack-single-stim","359","422806","0.0-280.0","sub-07_ses-01_1","","2952","0","stim","","<div class = upperbox><div class = ""center-text"" >Orange-Bleu</div></div><div class = lowerbox><div class = ""stim-text"" style=color:#1F45FC;>3</div>","89,71","1000","test","Orange-Bleu","#1F45FC","3","color","switch","switch","8","false","89","",""
"","","call-function","360","422807","0.0-281.0","sub-07_ses-01_1","","","","set_stims","","","","","","","","","","","","","","","",""
"-1","-1","poldrack-single-stim","361","423717","0.0-282.0","sub-07_ses-01_1","","900","0","cue","","<div class = upperbox><div class = ""center-text"" >Haut-Bas</div></div><div class = lowerbox><div class = fixation>+</div></div>","none","900","test","Haut-Bas","orange","1","magnitude","switch","stay","9","","","",""
"613","89","poldrack-single-stim","362","425735","0.0-283.0","sub-07_ses-01_1","","2000","0","stim","","<div class = upperbox><div class = ""center-text"" >Haut-Bas</div></div><div class = lowerbox><div class = ""stim-text"" style=color:orange;>1</div>","89,71","1000","test","Haut-Bas","orange","1","magnitude","switch","stay","9","true","89","",""
"","","call-function","363","425736","0.0-284.0","sub-07_ses-01_1","","","","set_stims","","","","","","","","","","","","","","","",""
"-1","-1","poldrack-single-stim","364","426657","0.0-285.0","sub-07_ses-01_1","","900","0","cue","","<div class = upperbox><div class = ""center-text"" >Couleur</div></div><div class = lowerbox><div class = fixation>+</div></div>","none","900","test","Couleur","orange","7","color","switch","stay","10","","","",""
"784","71","poldrack-single-stim","365","428677","0.0-286.0","sub-07_ses-01_1","","2000","0","stim","","<div class = upperbox><div class = ""center-text"" >Couleur</div></div><div class = lowerbox><div class = ""stim-text"" style=color:orange;>7</div>","89,71","1000","test","Couleur","orange","7","color","switch","stay","10","true","71","",""
"","","call-function","366","428678","0.0-287.0","sub-07_ses-01_1","","","","set_stims","","","","","","","","","","","","","","","",""
"-1","-1","poldrack-single-stim","367","428796","0.0-288.0","sub-07_ses-01_1","","100","0","cue","","<div class = upperbox><div class = ""center-text"" >Orange-Bleu</div></div><div class = lowerbox><div class = fixation>+</div></div>","none","100","test","Orange-Bleu","#1F45FC","3","color","stay","switch","11","","","",""
"1046","89","poldrack-single-stim","368","430817","0.0-289.0","sub-07_ses-01_1","","2000","0","stim","","<div class = upperbox><div class = ""center-text"" >Orange-Bleu</div></div><div class = lowerbox><div class = ""stim-text"" style=color:#1F45FC;>3</div>","89,71","1000","test","Orange-Bleu","#1F45FC","3","color","stay","switch","11","true","89","",""
"","","call-function","369","430818","0.0-290.0","sub-07_ses-01_1","","","","set_stims","","","","","","","","","","","","","","","",""
"-1","-1","poldrack-single-stim","370","430936","0.0-291.0","sub-07_ses-01_1","","100","0","cue","","<div class = upperbox><div class = ""center-text"" >Haut-Bas</div></div><div class = lowerbox><div class = fixation>+</div></div>","none","100","test","Haut-Bas","#1F45FC","7","magnitude","switch","switch","12","","","",""
"1194","71","poldrack-single-stim","371","432957","0.0-292.0","sub-07_ses-01_1","","2000","0","stim","","<div class = upperbox><div class = ""center-text"" >Haut-Bas</div></div><div class = lowerbox><div class = ""stim-text"" style=color:#1F45FC;>7</div>","89,71","1000","test","Haut-Bas","#1F45FC","7","magnitude","switch","switch","12","true","71","",""
"","","call-function","372","432958","0.0-293.0","sub-07_ses-01_1","","","","set_stims","","","","","","","","","","","","","","","",""
"-1","-1","poldrack-single-stim","373","433076","0.0-294.0","sub-07_ses-01_1","","100","0","cue","","<div class = upperbox><div class = ""center-text"" >Couleur</div></div><div class = lowerbox><div class = fixation>+</div></div>","none","100","test","Couleur","#1F45FC","2","color","switch","stay","13","","","",""
"1245","89","poldrack-single-stim","374","435216","0.0-295.0","sub-07_ses-01_1","","2136","0","stim","","<div class = upperbox><div class = ""center-text"" >Couleur</div></div><div class = lowerbox><div class = ""stim-text"" style=color:#1F45FC;>2</div>","89,71","1000","test","Couleur","#1F45FC","2","color","switch","stay","13","true","89","",""
"","","call-function","375","435217","0.0-296.0","sub-07_ses-01_1","","","","set_stims","","","","","","","","","","","","","","","",""
