"rt","key_press","trial_type","trial_index","time_elapsed","internal_node_id","subject","text","block_duration","timing_post_trial","trial_id","stimulus","possible_responses","stim_duration","correct","correct_response","feedback_duration","condition","stim_color","stim_word","trial_num","exp_stage","exp_id"
"817605","13","text","0","817608","0.0-0.0","sub-11_sess-02_1","","","","","","","","","","","","","","","",""
"1989","89","poldrack-text","1","820623","0.0-1.0","sub-11_sess-02_1","<div class = centerbox><div style = 'font-size: 50px' class = center-text>Veuillez appuyer avec votre index</p></div>","1989","500","fmri_response_test","","","","","","","","","","","",""
"634","71","poldrack-text","2","821772","0.0-2.0","sub-11_sess-02_1","<div class = centerbox><div style = 'font-size: 50px' class = center-text>Veuillez appuyer avec votre majeur</p></div>","634","500","fmri_response_test","","","","","","","","","","","",""
"469","82","poldrack-text","3","822751","0.0-3.0","sub-11_sess-02_1","<div class = centerbox><div style = 'font-size: 50px' class = center-text>Veuillez appuyer avec votre annulaire</p></div>","469","500","fmri_response_test","","","","","","","","","","","",""
"2746","32","poldrack-single-stim","4","826013","0.0-4.0","sub-11_sess-02_1","","2746","500","instructions","<div class = centerbox><div class = center-text><font size = +4>Repondre a la <strong>coleur de l'encre</strong> du mot!<br><br><span style = ""color:red;padding-left:30px"">MOT</span>: Index<br><span style = ""color:#1F45FC;padding-left:65px"">MOT</span>: Majeur<br><span style = ""color:#4FE829;"">MOT</span>: Annulaire<br><br>Nous allons commencer par un peu de pratique</div></div>","32","2746","","","","","","","","",""
"1267","71","poldrack-categorize","5","828559","0.0-5.0-0.0-0.0","sub-11_sess-02_1","","1500","0","stim","<div class = stroopbox><div class = stroop-stim style = ""color:#1F45FC"">BLEU</div></div>","89,71,82","1500","true","71","500","congruent","blue","blue","1","practice",""
"-1","-1","poldrack-single-stim","6","828816","0.0-5.0-1.0","sub-11_sess-02_1","","250","0","fixation","<div class = centerbox><div class = fixation>+</div></div>","none","250","","","","","","","","",""
"742","89","poldrack-categorize","7","830860","0.0-5.0-2.0-0.0","sub-11_sess-02_1","","1500","0","stim","<div class = stroopbox><div class = stroop-stim style = ""color:red"">ROUGE</div></div>","89,71,82","1500","true","89","500","congruent","red","red","2","practice",""
"-1","-1","poldrack-single-stim","8","831121","0.0-5.0-3.0","sub-11_sess-02_1","","250","0","fixation","<div class = centerbox><div class = fixation>+</div></div>","none","250","","","","","","","","",""
"545","82","poldrack-categorize","9","833160","0.0-5.0-4.0-0.0","sub-11_sess-02_1","","1500","0","stim","<div class = stroopbox><div class = stroop-stim style = ""color:#4FE829"">VERT</div></div>","89,71,82","1500","true","82","500","congruent","green","green","3","practice",""
"-1","-1","poldrack-single-stim","10","833421","0.0-5.0-5.0","sub-11_sess-02_1","","250","0","fixation","<div class = centerbox><div class = fixation>+</div></div>","none","250","","","","","","","","",""
"1059","71","poldrack-categorize","11","835450","0.0-5.0-6.0-0.0","sub-11_sess-02_1","","1500","0","stim","<div class = stroopbox><div class = stroop-stim style = ""color:#4FE829"">BLEU</div></div>","89,71,82","1500","false","82","500","incongruent","green","blue","4","practice",""
"-1","-1","poldrack-single-stim","12","835709","0.0-5.0-7.0","sub-11_sess-02_1","","250","0","fixation","<div class = centerbox><div class = fixation>+</div></div>","none","250","","","","","","","","",""
"877","89","poldrack-categorize","13","837750","0.0-5.0-8.0-0.0","sub-11_sess-02_1","","1500","0","stim","<div class = stroopbox><div class = stroop-stim style = ""color:red"">VERT</div></div>","89,71,82","1500","true","89","500","incongruent","red","green","5","practice",""
"-1","-1","poldrack-single-stim","14","838009","0.0-5.0-9.0","sub-11_sess-02_1","","250","0","fixation","<div class = centerbox><div class = fixation>+</div></div>","none","250","","","","","","","","",""
"1041","82","poldrack-categorize","15","840041","0.0-5.0-10.0-0.0","sub-11_sess-02_1","","1500","0","stim","<div class = stroopbox><div class = stroop-stim style = ""color:#4FE829"">ROUGE</div></div>","89,71,82","1500","true","82","500","incongruent","green","red","6","practice",""
"-1","-1","poldrack-single-stim","16","840300","0.0-5.0-11.0","sub-11_sess-02_1","","250","0","fixation","<div class = centerbox><div class = fixation>+</div></div>","none","250","","","","","","","","",""
"657","89","poldrack-categorize","17","842320","0.0-5.0-12.0-0.0","sub-11_sess-02_1","","1500","0","stim","<div class = stroopbox><div class = stroop-stim style = ""color:red"">BLEU</div></div>","89,71,82","1500","true","89","500","incongruent","red","blue","7","practice",""
"-1","-1","poldrack-single-stim","18","842580","0.0-5.0-13.0","sub-11_sess-02_1","","250","0","fixation","<div class = centerbox><div class = fixation>+</div></div>","none","250","","","","","","","","",""
"918","71","poldrack-categorize","19","844620","0.0-5.0-14.0-0.0","sub-11_sess-02_1","","1500","0","stim","<div class = stroopbox><div class = stroop-stim style = ""color:#1F45FC"">ROUGE</div></div>","89,71,82","1500","true","71","500","incongruent","blue","red","8","practice",""
"-1","-1","poldrack-single-stim","20","844881","0.0-5.0-15.0","sub-11_sess-02_1","","250","0","fixation","<div class = centerbox><div class = fixation>+</div></div>","none","250","","","","","","","","",""
"981","71","poldrack-categorize","21","846919","0.0-5.0-16.0-0.0","sub-11_sess-02_1","","1500","0","stim","<div class = stroopbox><div class = stroop-stim style = ""color:#1F45FC"">VERT</div></div>","89,71,82","1500","true","71","500","incongruent","blue","green","9","practice",""
"-1","-1","poldrack-single-stim","22","847180","0.0-5.0-17.0","sub-11_sess-02_1","","250","0","fixation","<div class = centerbox><div class = fixation>+</div></div>","none","250","","","","","","","","",""
"1768","32","poldrack-text","23","848953","0.0-6.0","sub-11_sess-02_1","<div class = centerbox><div  class = center-text>Scanner Setup</div></div>","1768","0","fmri_scanner_wait","","","","","","","","","","","",""
"62241","84","poldrack-text","24","911197","0.0-7.0","sub-11_sess-02_1","<div class = centerbox><div style='color:red'; class = center-text>+</div></div>","62241","0","fmri_trigger_wait","","","","","","","","","","","",""
"-1","-1","poldrack-single-stim","25","912220","0.0-8.0","sub-11_sess-02_1","","1000","0","fmri_buffer","","none","1000","","","","","","","","",""
"-1","-1","poldrack-single-stim","26","913741","0.0-9.0","sub-11_sess-02_1","","1500","500","test_start_block","<div class = centerbox><div class = center-text>Preparez-vous!</p></div>","none","1500","","","","","","","","",""
"-1","-1","poldrack-single-stim","27","914761","0.0-10.0","sub-11_sess-02_1","","500","0","fixation","<div class = centerbox><div class = fixation>+</div></div>","none","500","","","","","","","","",""
"690","89","poldrack-single-stim","28","916779","0.0-11.0-0.0","sub-11_sess-02_1","","2000","0","stim","<div class = stroopbox><div class = stroop-stim style = ""color:red"">VERT</div></div>","89,71,82","1500","true","89","","incongruent","red","green","0","test",""
"630","71","poldrack-single-stim","29","918799","0.0-11.0-1.0","sub-11_sess-02_1","","2000","0","stim","<div class = stroopbox><div class = stroop-stim style = ""color:#1F45FC"">BLEU</div></div>","89,71,82","1500","true","71","","congruent","blue","blue","1","test",""
"585","89","poldrack-single-stim","30","921079","0.0-11.0-2.0","sub-11_sess-02_1","","2272","0","stim","<div class = stroopbox><div class = stroop-stim style = ""color:red"">VERT</div></div>","89,71,82","1500","true","89","","incongruent","red","green","2","test",""
"581","89","poldrack-single-stim","31","923098","0.0-11.0-3.0","sub-11_sess-02_1","","2000","0","stim","<div class = stroopbox><div class = stroop-stim style = ""color:red"">BLEU</div></div>","89,71,82","1500","true","89","","incongruent","red","blue","3","test",""
"396","89","poldrack-single-stim","32","925240","0.0-11.0-4.0","sub-11_sess-02_1","","2136","0","stim","<div class = stroopbox><div class = stroop-stim style = ""color:red"">ROUGE</div></div>","89,71,82","1500","true","89","","congruent","red","red","4","test",""
"562","89","poldrack-single-stim","33","927259","0.0-11.0-5.0","sub-11_sess-02_1","","2000","0","stim","<div class = stroopbox><div class = stroop-stim style = ""color:red"">ROUGE</div></div>","89,71,82","1500","true","89","","congruent","red","red","5","test",""
"419","89","poldrack-single-stim","34","929400","0.0-11.0-6.0","sub-11_sess-02_1","","2136","0","stim","<div class = stroopbox><div class = stroop-stim style = ""color:red"">ROUGE</div></div>","89,71,82","1500","true","89","","congruent","red","red","6","test",""
"630","71","poldrack-single-stim","35","931408","0.0-11.0-7.0","sub-11_sess-02_1","","2000","0","stim","<div class = stroopbox><div class = stroop-stim style = ""color:#1F45FC"">BLEU</div></div>","89,71,82","1500","true","71","","congruent","blue","blue","7","test",""
"502","82","poldrack-single-stim","36","933420","0.0-11.0-8.0","sub-11_sess-02_1","","2000","0","stim","<div class = stroopbox><div class = stroop-stim style = ""color:#4FE829"">VERT</div></div>","89,71,82","1500","true","82","","congruent","green","green","8","test",""
"703","89","poldrack-single-stim","37","935440","0.0-11.0-9.0","sub-11_sess-02_1","","2000","0","stim","<div class = stroopbox><div class = stroop-stim style = ""color:red"">BLEU</div></div>","89,71,82","1500","true","89","","incongruent","red","blue","9","test",""
"519","89","poldrack-single-stim","38","937719","0.0-11.0-10.0","sub-11_sess-02_1","","2272","0","stim","<div class = stroopbox><div class = stroop-stim style = ""color:red"">BLEU</div></div>","89,71,82","1500","true","89","","incongruent","red","blue","10","test",""
"843","82","poldrack-single-stim","39","939739","0.0-11.0-11.0","sub-11_sess-02_1","","2000","0","stim","<div class = stroopbox><div class = stroop-stim style = ""color:#4FE829"">ROUGE</div></div>","89,71,82","1500","true","82","","incongruent","green","red","11","test",""
"933","71","poldrack-single-stim","40","941881","0.0-11.0-12.0","sub-11_sess-02_1","","2136","0","stim","<div class = stroopbox><div class = stroop-stim style = ""color:#1F45FC"">VERT</div></div>","89,71,82","1500","true","71","","incongruent","blue","green","12","test",""
"696","82","poldrack-single-stim","41","944300","0.0-11.0-13.0","sub-11_sess-02_1","","2408","0","stim","<div class = stroopbox><div class = stroop-stim style = ""color:#4FE829"">VERT</div></div>","89,71,82","1500","true","82","","congruent","green","green","13","test",""
"950","71","poldrack-single-stim","42","946580","0.0-11.0-14.0","sub-11_sess-02_1","","2272","0","stim","<div class = stroopbox><div class = stroop-stim style = ""color:#1F45FC"">ROUGE</div></div>","89,71,82","1500","true","71","","incongruent","blue","red","14","test",""
"636","82","poldrack-single-stim","43","949279","0.0-11.0-15.0","sub-11_sess-02_1","","2680","0","stim","<div class = stroopbox><div class = stroop-stim style = ""color:#4FE829"">VERT</div></div>","89,71,82","1500","true","82","","congruent","green","green","15","test",""
"701","89","poldrack-single-stim","44","951290","0.0-11.0-16.0","sub-11_sess-02_1","","2000","0","stim","<div class = stroopbox><div class = stroop-stim style = ""color:red"">ROUGE</div></div>","89,71,82","1500","true","89","","congruent","red","red","16","test",""
"653","71","poldrack-single-stim","45","953708","0.0-11.0-17.0","sub-11_sess-02_1","","2408","0","stim","<div class = stroopbox><div class = stroop-stim style = ""color:#1F45FC"">BLEU</div></div>","89,71,82","1500","true","71","","congruent","blue","blue","17","test",""
"480","71","poldrack-single-stim","46","955849","0.0-11.0-18.0","sub-11_sess-02_1","","2136","0","stim","<div class = stroopbox><div class = stroop-stim style = ""color:#1F45FC"">BLEU</div></div>","89,71,82","1500","true","71","","congruent","blue","blue","18","test",""
"612","82","poldrack-single-stim","47","958550","0.0-11.0-19.0","sub-11_sess-02_1","","2680","0","stim","<div class = stroopbox><div class = stroop-stim style = ""color:#4FE829"">BLEU</div></div>","89,71,82","1500","true","82","","incongruent","green","blue","19","test",""
"945","82","poldrack-single-stim","48","960560","0.0-11.0-20.0","sub-11_sess-02_1","","2000","0","stim","<div class = stroopbox><div class = stroop-stim style = ""color:#4FE829"">ROUGE</div></div>","89,71,82","1500","true","82","","incongruent","green","red","20","test",""
"700","71","poldrack-single-stim","49","962709","0.0-11.0-21.0","sub-11_sess-02_1","","2136","0","stim","<div class = stroopbox><div class = stroop-stim style = ""color:#1F45FC"">VERT</div></div>","89,71,82","1500","true","71","","incongruent","blue","green","21","test",""
"494","89","poldrack-single-stim","50","965670","0.0-11.0-22.0","sub-11_sess-02_1","","2952","0","stim","<div class = stroopbox><div class = stroop-stim style = ""color:red"">ROUGE</div></div>","89,71,82","1500","true","89","","congruent","red","red","22","test",""
"862","82","poldrack-single-stim","51","967691","0.0-11.0-23.0","sub-11_sess-02_1","","2000","0","stim","<div class = stroopbox><div class = stroop-stim style = ""color:#4FE829"">BLEU</div></div>","89,71,82","1500","true","82","","incongruent","green","blue","23","test",""
"833","71","poldrack-single-stim","52","969968","0.0-11.0-24.0","sub-11_sess-02_1","","2272","0","stim","<div class = stroopbox><div class = stroop-stim style = ""color:#1F45FC"">ROUGE</div></div>","89,71,82","1500","true","71","","incongruent","blue","red","24","test",""
"680","89","poldrack-single-stim","53","971990","0.0-11.0-25.0","sub-11_sess-02_1","","2000","0","stim","<div class = stroopbox><div class = stroop-stim style = ""color:red"">VERT</div></div>","89,71,82","1500","true","89","","incongruent","red","green","25","test",""
"716","82","poldrack-single-stim","54","974009","0.0-11.0-26.0","sub-11_sess-02_1","","2000","0","stim","<div class = stroopbox><div class = stroop-stim style = ""color:#4FE829"">VERT</div></div>","89,71,82","1500","true","82","","congruent","green","green","26","test",""
"602","82","poldrack-single-stim","55","976030","0.0-11.0-27.0","sub-11_sess-02_1","","2000","0","stim","<div class = stroopbox><div class = stroop-stim style = ""color:#4FE829"">VERT</div></div>","89,71,82","1500","true","82","","congruent","green","green","27","test",""
"613","71","poldrack-single-stim","56","978051","0.0-11.0-28.0","sub-11_sess-02_1","","2000","0","stim","<div class = stroopbox><div class = stroop-stim style = ""color:#1F45FC"">ROUGE</div></div>","89,71,82","1500","true","71","","incongruent","blue","red","28","test",""
"540","89","poldrack-single-stim","57","980208","0.0-11.0-29.0","sub-11_sess-02_1","","2136","0","stim","<div class = stroopbox><div class = stroop-stim style = ""color:red"">ROUGE</div></div>","89,71,82","1500","true","89","","congruent","red","red","29","test",""
"684","82","poldrack-single-stim","58","982229","0.0-11.0-30.0","sub-11_sess-02_1","","2000","0","stim","<div class = stroopbox><div class = stroop-stim style = ""color:#4FE829"">VERT</div></div>","89,71,82","1500","true","82","","congruent","green","green","30","test",""
"689","82","poldrack-single-stim","59","984240","0.0-11.0-31.0","sub-11_sess-02_1","","2000","0","stim","<div class = stroopbox><div class = stroop-stim style = ""color:#4FE829"">BLEU</div></div>","89,71,82","1500","true","82","","incongruent","green","blue","31","test",""
"629","71","poldrack-single-stim","60","986390","0.0-11.0-32.0","sub-11_sess-02_1","","2136","0","stim","<div class = stroopbox><div class = stroop-stim style = ""color:#1F45FC"">BLEU</div></div>","89,71,82","1500","true","71","","congruent","blue","blue","32","test",""
"853","71","poldrack-single-stim","61","988410","0.0-11.0-33.0","sub-11_sess-02_1","","2000","0","stim","<div class = stroopbox><div class = stroop-stim style = ""color:#1F45FC"">ROUGE</div></div>","89,71,82","1500","true","71","","incongruent","blue","red","33","test",""
"531","89","poldrack-single-stim","62","990419","0.0-11.0-34.0","sub-11_sess-02_1","","2000","0","stim","<div class = stroopbox><div class = stroop-stim style = ""color:red"">BLEU</div></div>","89,71,82","1500","true","89","","incongruent","red","blue","34","test",""
"720","82","poldrack-single-stim","63","992602","0.0-11.0-35.0","sub-11_sess-02_1","","2136","0","stim","<div class = stroopbox><div class = stroop-stim style = ""color:#4FE829"">ROUGE</div></div>","89,71,82","1500","true","82","","incongruent","green","red","35","test",""
"718","89","poldrack-single-stim","64","994760","0.0-11.0-36.0","sub-11_sess-02_1","","2136","0","stim","<div class = stroopbox><div class = stroop-stim style = ""color:red"">ROUGE</div></div>","89,71,82","1500","true","89","","congruent","red","red","36","test",""
"643","71","poldrack-single-stim","65","997050","0.0-11.0-37.0","sub-11_sess-02_1","","2272","0","stim","<div class = stroopbox><div class = stroop-stim style = ""color:#1F45FC"">BLEU</div></div>","89,71,82","1500","true","71","","congruent","blue","blue","37","test",""
"594","89","poldrack-single-stim","66","999740","0.0-11.0-38.0","sub-11_sess-02_1","","2680","0","stim","<div class = stroopbox><div class = stroop-stim style = ""color:red"">BLEU</div></div>","89,71,82","1500","true","89","","incongruent","red","blue","38","test",""
"609","71","poldrack-single-stim","67","1001760","0.0-11.0-39.0","sub-11_sess-02_1","","2000","0","stim","<div class = stroopbox><div class = stroop-stim style = ""color:#1F45FC"">BLEU</div></div>","89,71,82","1500","true","71","","congruent","blue","blue","39","test",""
"541","82","poldrack-single-stim","68","1003780","0.0-11.0-40.0","sub-11_sess-02_1","","2000","0","stim","<div class = stroopbox><div class = stroop-stim style = ""color:#4FE829"">VERT</div></div>","89,71,82","1500","true","82","","congruent","green","green","40","test",""
"575","82","poldrack-single-stim","69","1006060","0.0-11.0-41.0","sub-11_sess-02_1","","2272","0","stim","<div class = stroopbox><div class = stroop-stim style = ""color:#4FE829"">ROUGE</div></div>","89,71,82","1500","true","82","","incongruent","green","red","41","test",""
"712","71","poldrack-single-stim","70","1008079","0.0-11.0-42.0","sub-11_sess-02_1","","2000","0","stim","<div class = stroopbox><div class = stroop-stim style = ""color:#1F45FC"">VERT</div></div>","89,71,82","1500","true","71","","incongruent","blue","green","42","test",""
"649","89","poldrack-single-stim","71","1010099","0.0-11.0-43.0","sub-11_sess-02_1","","2000","0","stim","<div class = stroopbox><div class = stroop-stim style = ""color:red"">ROUGE</div></div>","89,71,82","1500","true","89","","congruent","red","red","43","test",""
"673","82","poldrack-single-stim","72","1012109","0.0-11.0-44.0","sub-11_sess-02_1","","2000","0","stim","<div class = stroopbox><div class = stroop-stim style = ""color:#4FE829"">BLEU</div></div>","89,71,82","1500","true","82","","incongruent","green","blue","44","test",""
"853","71","poldrack-single-stim","73","1014129","0.0-11.0-45.0","sub-11_sess-02_1","","2000","0","stim","<div class = stroopbox><div class = stroop-stim style = ""color:#1F45FC"">ROUGE</div></div>","89,71,82","1500","true","71","","incongruent","blue","red","45","test",""
"680","89","poldrack-single-stim","74","1016140","0.0-11.0-46.0","sub-11_sess-02_1","","2000","0","stim","<div class = stroopbox><div class = stroop-stim style = ""color:red"">VERT</div></div>","89,71,82","1500","true","89","","incongruent","red","green","46","test",""
"757","82","poldrack-single-stim","75","1018159","0.0-11.0-47.0","sub-11_sess-02_1","","2000","0","stim","<div class = stroopbox><div class = stroop-stim style = ""color:#4FE829"">ROUGE</div></div>","89,71,82","1500","true","82","","incongruent","green","red","47","test",""
"768","71","poldrack-single-stim","76","1020440","0.0-11.0-48.0","sub-11_sess-02_1","","2272","0","stim","<div class = stroopbox><div class = stroop-stim style = ""color:#1F45FC"">BLEU</div></div>","89,71,82","1500","true","71","","congruent","blue","blue","48","test",""
"763","82","poldrack-single-stim","77","1022459","0.0-11.0-49.0","sub-11_sess-02_1","","2000","0","stim","<div class = stroopbox><div class = stroop-stim style = ""color:#4FE829"">BLEU</div></div>","89,71,82","1500","true","82","","incongruent","green","blue","49","test",""
"504","82","poldrack-single-stim","78","1024880","0.0-11.0-50.0","sub-11_sess-02_1","","2408","0","stim","<div class = stroopbox><div class = stroop-stim style = ""color:#4FE829"">VERT</div></div>","89,71,82","1500","true","82","","congruent","green","green","50","test",""
"592","71","poldrack-single-stim","79","1026900","0.0-11.0-51.0","sub-11_sess-02_1","","2000","0","stim","<div class = stroopbox><div class = stroop-stim style = ""color:#1F45FC"">BLEU</div></div>","89,71,82","1500","true","71","","congruent","blue","blue","51","test",""
"521","82","poldrack-single-stim","80","1029040","0.0-11.0-52.0","sub-11_sess-02_1","","2136","0","stim","<div class = stroopbox><div class = stroop-stim style = ""color:#4FE829"">VERT</div></div>","89,71,82","1500","true","82","","congruent","green","green","52","test",""
"563","71","poldrack-single-stim","81","1031058","0.0-11.0-53.0","sub-11_sess-02_1","","2000","0","stim","<div class = stroopbox><div class = stroop-stim style = ""color:#1F45FC"">BLEU</div></div>","89,71,82","1500","true","71","","congruent","blue","blue","53","test",""
"535","71","poldrack-single-stim","82","1033079","0.0-11.0-54.0","sub-11_sess-02_1","","2000","0","stim","<div class = stroopbox><div class = stroop-stim style = ""color:#1F45FC"">BLEU</div></div>","89,71,82","1500","true","71","","congruent","blue","blue","54","test",""
"574","71","poldrack-single-stim","83","1035100","0.0-11.0-55.0","sub-11_sess-02_1","","2000","0","stim","<div class = stroopbox><div class = stroop-stim style = ""color:#1F45FC"">VERT</div></div>","89,71,82","1500","true","71","","incongruent","blue","green","55","test",""
"398","71","poldrack-single-stim","84","1037380","0.0-11.0-56.0","sub-11_sess-02_1","","2272","0","stim","<div class = stroopbox><div class = stroop-stim style = ""color:#1F45FC"">BLEU</div></div>","89,71,82","1500","true","71","","congruent","blue","blue","56","test",""
"850","89","poldrack-single-stim","85","1039390","0.0-11.0-57.0","sub-11_sess-02_1","","2000","0","stim","<div class = stroopbox><div class = stroop-stim style = ""color:red"">VERT</div></div>","89,71,82","1500","true","89","","incongruent","red","green","57","test",""
"675","71","poldrack-single-stim","86","1041679","0.0-11.0-58.0","sub-11_sess-02_1","","2272","0","stim","<div class = stroopbox><div class = stroop-stim style = ""color:#1F45FC"">VERT</div></div>","89,71,82","1500","true","71","","incongruent","blue","green","58","test",""
"753","71","poldrack-single-stim","87","1043959","0.0-11.0-59.0","sub-11_sess-02_1","","2272","0","stim","<div class = stroopbox><div class = stroop-stim style = ""color:#1F45FC"">ROUGE</div></div>","89,71,82","1500","true","71","","incongruent","blue","red","59","test",""
"602","89","poldrack-single-stim","88","1045978","0.0-11.0-60.0","sub-11_sess-02_1","","2000","0","stim","<div class = stroopbox><div class = stroop-stim style = ""color:red"">BLEU</div></div>","89,71,82","1500","true","89","","incongruent","red","blue","60","test",""
"637","71","poldrack-single-stim","89","1048679","0.0-11.0-61.0","sub-11_sess-02_1","","2680","0","stim","<div class = stroopbox><div class = stroop-stim style = ""color:#1F45FC"">BLEU</div></div>","89,71,82","1500","true","71","","congruent","blue","blue","61","test",""
"579","82","poldrack-single-stim","90","1050698","0.0-11.0-62.0","sub-11_sess-02_1","","2000","0","stim","<div class = stroopbox><div class = stroop-stim style = ""color:#4FE829"">BLEU</div></div>","89,71,82","1500","true","82","","incongruent","green","blue","62","test",""
"701","89","poldrack-single-stim","91","1052979","0.0-11.0-63.0","sub-11_sess-02_1","","2272","0","stim","<div class = stroopbox><div class = stroop-stim style = ""color:red"">ROUGE</div></div>","89,71,82","1500","true","89","","congruent","red","red","63","test",""
"570","71","poldrack-single-stim","92","1054990","0.0-11.0-64.0","sub-11_sess-02_1","","2000","0","stim","<div class = stroopbox><div class = stroop-stim style = ""color:#1F45FC"">BLEU</div></div>","89,71,82","1500","true","71","","congruent","blue","blue","64","test",""
"589","89","poldrack-single-stim","93","1057007","0.0-11.0-65.0","sub-11_sess-02_1","","2000","0","stim","<div class = stroopbox><div class = stroop-stim style = ""color:red"">ROUGE</div></div>","89,71,82","1500","true","89","","congruent","red","red","65","test",""
"884","71","poldrack-single-stim","94","1059299","0.0-11.0-66.0","sub-11_sess-02_1","","2272","0","stim","<div class = stroopbox><div class = stroop-stim style = ""color:#1F45FC"">ROUGE</div></div>","89,71,82","1500","true","71","","incongruent","blue","red","66","test",""
"542","82","poldrack-single-stim","95","1061440","0.0-11.0-67.0","sub-11_sess-02_1","","2136","0","stim","<div class = stroopbox><div class = stroop-stim style = ""color:#4FE829"">VERT</div></div>","89,71,82","1500","true","82","","congruent","green","green","67","test",""
"454","82","poldrack-single-stim","96","1063999","0.0-11.0-68.0","sub-11_sess-02_1","","2544","0","stim","<div class = stroopbox><div class = stroop-stim style = ""color:#4FE829"">VERT</div></div>","89,71,82","1500","true","82","","congruent","green","green","68","test",""
"641","71","poldrack-single-stim","97","1066409","0.0-11.0-69.0","sub-11_sess-02_1","","2408","0","stim","<div class = stroopbox><div class = stroop-stim style = ""color:#1F45FC"">ROUGE</div></div>","89,71,82","1500","true","71","","incongruent","blue","red","69","test",""
"546","89","poldrack-single-stim","98","1068428","0.0-11.0-70.0","sub-11_sess-02_1","","2000","0","stim","<div class = stroopbox><div class = stroop-stim style = ""color:red"">BLEU</div></div>","89,71,82","1500","true","89","","incongruent","red","blue","70","test",""
"935","82","poldrack-single-stim","99","1070440","0.0-11.0-71.0","sub-11_sess-02_1","","2000","0","stim","<div class = stroopbox><div class = stroop-stim style = ""color:#4FE829"">ROUGE</div></div>","89,71,82","1500","true","82","","incongruent","green","red","71","test",""
"544","82","poldrack-single-stim","100","1072459","0.0-11.0-72.0","sub-11_sess-02_1","","2000","0","stim","<div class = stroopbox><div class = stroop-stim style = ""color:#4FE829"">ROUGE</div></div>","89,71,82","1500","true","82","","incongruent","green","red","72","test",""
"723","89","poldrack-single-stim","101","1075019","0.0-11.0-73.0","sub-11_sess-02_1","","2544","0","stim","<div class = stroopbox><div class = stroop-stim style = ""color:red"">ROUGE</div></div>","89,71,82","1500","true","89","","congruent","red","red","73","test",""
"760","82","poldrack-single-stim","102","1077158","0.0-11.0-74.0","sub-11_sess-02_1","","2136","0","stim","<div class = stroopbox><div class = stroop-stim style = ""color:#4FE829"">VERT</div></div>","89,71,82","1500","true","82","","congruent","green","green","74","test",""
"714","89","poldrack-single-stim","103","1079169","0.0-11.0-75.0","sub-11_sess-02_1","","2000","0","stim","<div class = stroopbox><div class = stroop-stim style = ""color:red"">ROUGE</div></div>","89,71,82","1500","true","89","","congruent","red","red","75","test",""
"590","82","poldrack-single-stim","104","1081179","0.0-11.0-76.0","sub-11_sess-02_1","","2000","0","stim","<div class = stroopbox><div class = stroop-stim style = ""color:#4FE829"">VERT</div></div>","89,71,82","1500","true","82","","congruent","green","green","76","test",""
"519","82","poldrack-single-stim","105","1083470","0.0-11.0-77.0","sub-11_sess-02_1","","2272","0","stim","<div class = stroopbox><div class = stroop-stim style = ""color:#4FE829"">VERT</div></div>","89,71,82","1500","true","82","","congruent","green","green","77","test",""
"809","82","poldrack-single-stim","106","1085479","0.0-11.0-78.0","sub-11_sess-02_1","","2000","0","stim","<div class = stroopbox><div class = stroop-stim style = ""color:#4FE829"">BLEU</div></div>","89,71,82","1500","true","82","","incongruent","green","blue","78","test",""
"397","82","poldrack-single-stim","107","1087490","0.0-11.0-79.0","sub-11_sess-02_1","","2000","0","stim","<div class = stroopbox><div class = stroop-stim style = ""color:#4FE829"">VERT</div></div>","89,71,82","1500","true","82","","congruent","green","green","79","test",""
"683","71","poldrack-single-stim","108","1089640","0.0-11.0-80.0","sub-11_sess-02_1","","2136","0","stim","<div class = stroopbox><div class = stroop-stim style = ""color:#1F45FC"">VERT</div></div>","89,71,82","1500","true","71","","incongruent","blue","green","80","test",""
"627","89","poldrack-single-stim","109","1091660","0.0-11.0-81.0","sub-11_sess-02_1","","2000","0","stim","<div class = stroopbox><div class = stroop-stim style = ""color:red"">BLEU</div></div>","89,71,82","1500","true","89","","incongruent","red","blue","81","test",""
"631","82","poldrack-single-stim","110","1093939","0.0-11.0-82.0","sub-11_sess-02_1","","2272","0","stim","<div class = stroopbox><div class = stroop-stim style = ""color:#4FE829"">ROUGE</div></div>","89,71,82","1500","true","82","","incongruent","green","red","82","test",""
"584","71","poldrack-single-stim","111","1096079","0.0-11.0-83.0","sub-11_sess-02_1","","2136","0","stim","<div class = stroopbox><div class = stroop-stim style = ""color:#1F45FC"">BLEU</div></div>","89,71,82","1500","true","71","","congruent","blue","blue","83","test",""
"696","89","poldrack-single-stim","112","1098510","0.0-11.0-84.0","sub-11_sess-02_1","","2408","0","stim","<div class = stroopbox><div class = stroop-stim style = ""color:red"">VERT</div></div>","89,71,82","1500","true","89","","incongruent","red","green","84","test",""
"839","89","poldrack-single-stim","113","1100529","0.0-11.0-85.0","sub-11_sess-02_1","","2000","0","stim","<div class = stroopbox><div class = stroop-stim style = ""color:red"">ROUGE</div></div>","89,71,82","1500","true","89","","congruent","red","red","85","test",""
"547","71","poldrack-single-stim","114","1102549","0.0-11.0-86.0","sub-11_sess-02_1","","2000","0","stim","<div class = stroopbox><div class = stroop-stim style = ""color:#1F45FC"">BLEU</div></div>","89,71,82","1500","true","71","","congruent","blue","blue","86","test",""
"620","71","poldrack-single-stim","115","1105369","0.0-11.0-87.0","sub-11_sess-02_1","","2816","0","stim","<div class = stroopbox><div class = stroop-stim style = ""color:#1F45FC"">VERT</div></div>","89,71,82","1500","true","71","","incongruent","blue","green","87","test",""
"827","82","poldrack-single-stim","116","1107380","0.0-11.0-88.0","sub-11_sess-02_1","","2000","0","stim","<div class = stroopbox><div class = stroop-stim style = ""color:#4FE829"">BLEU</div></div>","89,71,82","1500","true","82","","incongruent","green","blue","88","test",""
"788","89","poldrack-single-stim","117","1109399","0.0-11.0-89.0","sub-11_sess-02_1","","2000","0","stim","<div class = stroopbox><div class = stroop-stim style = ""color:red"">VERT</div></div>","89,71,82","1500","true","89","","incongruent","red","green","89","test",""
"616","89","poldrack-single-stim","118","1111549","0.0-11.0-90.0","sub-11_sess-02_1","","2136","0","stim","<div class = stroopbox><div class = stroop-stim style = ""color:red"">ROUGE</div></div>","89,71,82","1500","true","89","","congruent","red","red","90","test",""
"530","89","poldrack-single-stim","119","1113568","0.0-11.0-91.0","sub-11_sess-02_1","","2000","0","stim","<div class = stroopbox><div class = stroop-stim style = ""color:red"">ROUGE</div></div>","89,71,82","1500","true","89","","congruent","red","red","91","test",""
"928","71","poldrack-single-stim","120","1115589","0.0-11.0-92.0","sub-11_sess-02_1","","2000","0","stim","<div class = stroopbox><div class = stroop-stim style = ""color:#1F45FC"">VERT</div></div>","89,71,82","1500","true","71","","incongruent","blue","green","92","test",""
"638","89","poldrack-single-stim","121","1117600","0.0-11.0-93.0","sub-11_sess-02_1","","2000","0","stim","<div class = stroopbox><div class = stroop-stim style = ""color:red"">ROUGE</div></div>","89,71,82","1500","true","89","","congruent","red","red","93","test",""
"643","89","poldrack-single-stim","122","1119611","0.0-11.0-94.0","sub-11_sess-02_1","","2000","0","stim","<div class = stroopbox><div class = stroop-stim style = ""color:red"">VERT</div></div>","89,71,82","1500","true","89","","incongruent","red","green","94","test",""
"625","82","poldrack-single-stim","123","1121619","0.0-11.0-95.0","sub-11_sess-02_1","","2000","0","stim","<div class = stroopbox><div class = stroop-stim style = ""color:#4FE829"">VERT</div></div>","89,71,82","1500","true","82","","congruent","green","green","95","test",""
"9189","32","poldrack-single-stim","124","1130809","0.0-12.0","sub-11_sess-02_1","","9189","0","end","<div class = centerbox><div class = center-text><i>Fin</i></div></div>","32","9189","","","","","","","","","stroop"
"1870","13","text","125","1132679","0.0-13.0","sub-11_sess-02_1","","","","","","","","","","","","","","","",""
