"rt","key_press","trial_type","trial_index","time_elapsed","internal_node_id","subject","text","block_duration","timing_post_trial","trial_id","responses","stimulus","possible_responses","stim_duration","exp_stage","cue","stim_color","stim_number","task","task_switch","cue_switch","trial_num","correct","correct_response","feedback_duration","exp_id"
"2557","13","text","0","2561","0.0-0.0","sub-11_1","","","","","","","","","","","","","","","","","","","",""
"1177","89","poldrack-text","1","4753","0.0-1.0","sub-11_1","<div class = centerbox><div style = 'font-size: 50px' class = center-text>Veuillez appuyer avec votre index</p></div>","1177","500","fmri_response_test","","","","","","","","","","","","","","","",""
"315","71","poldrack-text","2","5580","0.0-2.0","sub-11_1","<div class = centerbox><div style = 'font-size: 50px' class = center-text>Veuillez appuyer avec votre majeur</p></div>","315","500","fmri_response_test","","","","","","","","","","","","","","","",""
"4957","","survey-text","3","11064","0.0-3.0","sub-11_1","","","","task_setup","{""Q0"":""2"",""Q1"":""2""}","","","","","","","","","","","","","","",""
"3043","32","poldrack-single-stim","4","15126","0.0-4.0","sub-11_1","","3043","0","instructions","","<div class = centerbox><div class = center-text style=""font-size:40px""><strong>Couleur</strong> or <strong>Orange-Bleu</strong>: Majeur si orange et Index si bleu.<br><br><strong>Amplitude</strong> ou <strong>Haut-Bas</strong>: Majeur si >5 et Index si <5.</div></div>","32","3043","","","","","","","","","","","",""
"","","call-function","5","15127","0.0-5.0-0.0","sub-11_1","","","","set_stims","","","","","","","","","","","","","","","",""
"-1","-1","poldrack-single-stim","6","15641","0.0-5.0-1.0","sub-11_1","","500","0","fixation","","<div class = upperbox><div class = fixation>+</div></div><div class = lowerbox><div class = fixation>+</div></div>","none","500","practice","","","","","","","","","","",""
"-1","-1","poldrack-single-stim","7","16550","0.0-5.0-2.0","sub-11_1","","900","0","cue","","<div class = upperbox><div class = ""center-text"" >Haut-Bas</div></div><div class = lowerbox><div class = fixation>+</div></div>","none","900","practice","Haut-Bas","#1F45FC","9","magnitude","stay","switch","0","","","",""
"1221","71","poldrack-categorize","8","19077","0.0-5.0-3.0","sub-11_1","","2000","0","stim","","<div class = upperbox><div class = ""center-text"" >Haut-Bas</div></div><div class = lowerbox><div class = ""stim-text"" style=color:#1F45FC;>9</div>","89,71","1000","practice","Haut-Bas","#1F45FC","9","magnitude","stay","switch","0","true","71","500",""
"-1","-1","poldrack-single-stim","9","19587","0.0-5.0-4.0","sub-11_1","","500","0","gap",""," ","none","500","practice","","","","","","","","","","",""
"","","call-function","10","19588","0.0-5.0-5.0","sub-11_1","","","","set_stims","","","","","","","","","","","","","","","",""
"-1","-1","poldrack-single-stim","11","20096","0.0-5.0-6.0","sub-11_1","","500","0","fixation","","<div class = upperbox><div class = fixation>+</div></div><div class = lowerbox><div class = fixation>+</div></div>","none","500","practice","","","","","","","","","","",""
"-1","-1","poldrack-single-stim","12","20204","0.0-5.0-7.0","sub-11_1","","100","0","cue","","<div class = upperbox><div class = ""center-text"" >Orange-Bleu</div></div><div class = lowerbox><div class = fixation>+</div></div>","none","100","practice","Orange-Bleu","#1F45FC","1","color","switch","switch","1","","","",""
"1047","89","poldrack-categorize","13","22726","0.0-5.0-8.0","sub-11_1","","2000","0","stim","","<div class = upperbox><div class = ""center-text"" >Orange-Bleu</div></div><div class = lowerbox><div class = ""stim-text"" style=color:#1F45FC;>1</div>","89,71","1000","practice","Orange-Bleu","#1F45FC","1","color","switch","switch","1","true","89","500",""
"-1","-1","poldrack-single-stim","14","23238","0.0-5.0-9.0","sub-11_1","","500","0","gap",""," ","none","500","practice","","","","","","","","","","",""
"","","call-function","15","23238","0.0-5.0-10.0","sub-11_1","","","","set_stims","","","","","","","","","","","","","","","",""
"-1","-1","poldrack-single-stim","16","23746","0.0-5.0-11.0","sub-11_1","","500","0","fixation","","<div class = upperbox><div class = fixation>+</div></div><div class = lowerbox><div class = fixation>+</div></div>","none","500","practice","","","","","","","","","","",""
"-1","-1","poldrack-single-stim","17","24654","0.0-5.0-12.0","sub-11_1","","900","0","cue","","<div class = upperbox><div class = ""center-text"" >Amplitude</div></div><div class = lowerbox><div class = fixation>+</div></div>","none","900","practice","Amplitude","orange","4","magnitude","switch","switch","2","","","",""
"610","89","poldrack-categorize","18","27183","0.0-5.0-13.0","sub-11_1","","2000","0","stim","","<div class = upperbox><div class = ""center-text"" >Amplitude</div></div><div class = lowerbox><div class = ""stim-text"" style=color:orange;>4</div>","89,71","1000","practice","Amplitude","orange","4","magnitude","switch","switch","2","true","89","500",""
"-1","-1","poldrack-single-stim","19","27689","0.0-5.0-14.0","sub-11_1","","500","0","gap",""," ","none","500","practice","","","","","","","","","","",""
"","","call-function","20","27690","0.0-5.0-15.0","sub-11_1","","","","set_stims","","","","","","","","","","","","","","","",""
"-1","-1","poldrack-single-stim","21","28200","0.0-5.0-16.0","sub-11_1","","500","0","fixation","","<div class = upperbox><div class = fixation>+</div></div><div class = lowerbox><div class = fixation>+</div></div>","none","500","practice","","","","","","","","","","",""
"-1","-1","poldrack-single-stim","22","29109","0.0-5.0-17.0","sub-11_1","","900","0","cue","","<div class = upperbox><div class = ""center-text"" >Orange-Bleu</div></div><div class = lowerbox><div class = fixation>+</div></div>","none","900","practice","Orange-Bleu","#1F45FC","1","color","switch","stay","3","","","",""
"550","89","poldrack-categorize","23","31633","0.0-5.0-18.0","sub-11_1","","2000","0","stim","","<div class = upperbox><div class = ""center-text"" >Orange-Bleu</div></div><div class = lowerbox><div class = ""stim-text"" style=color:#1F45FC;>1</div>","89,71","1000","practice","Orange-Bleu","#1F45FC","1","color","switch","stay","3","true","89","500",""
"-1","-1","poldrack-single-stim","24","32139","0.0-5.0-19.0","sub-11_1","","500","0","gap",""," ","none","500","practice","","","","","","","","","","",""
"","","call-function","25","32140","0.0-5.0-20.0","sub-11_1","","","","set_stims","","","","","","","","","","","","","","","",""
"-1","-1","poldrack-single-stim","26","32648","0.0-5.0-21.0","sub-11_1","","500","0","fixation","","<div class = upperbox><div class = fixation>+</div></div><div class = lowerbox><div class = fixation>+</div></div>","none","500","practice","","","","","","","","","","",""
"-1","-1","poldrack-single-stim","27","32758","0.0-5.0-22.0","sub-11_1","","100","0","cue","","<div class = upperbox><div class = ""center-text"" >Couleur</div></div><div class = lowerbox><div class = fixation>+</div></div>","none","100","practice","Couleur","orange","9","color","stay","switch","4","","","",""
"924","71","poldrack-categorize","28","35289","0.0-5.0-23.0","sub-11_1","","2000","0","stim","","<div class = upperbox><div class = ""center-text"" >Couleur</div></div><div class = lowerbox><div class = ""stim-text"" style=color:orange;>9</div>","89,71","1000","practice","Couleur","orange","9","color","stay","switch","4","true","71","500",""
"-1","-1","poldrack-single-stim","29","35795","0.0-5.0-24.0","sub-11_1","","500","0","gap",""," ","none","500","practice","","","","","","","","","","",""
"","","call-function","30","35795","0.0-5.0-25.0","sub-11_1","","","","set_stims","","","","","","","","","","","","","","","",""
"-1","-1","poldrack-single-stim","31","36303","0.0-5.0-26.0","sub-11_1","","500","0","fixation","","<div class = upperbox><div class = fixation>+</div></div><div class = lowerbox><div class = fixation>+</div></div>","none","500","practice","","","","","","","","","","",""
"-1","-1","poldrack-single-stim","32","37209","0.0-5.0-27.0","sub-11_1","","900","0","cue","","<div class = upperbox><div class = ""center-text"" >Haut-Bas</div></div><div class = lowerbox><div class = fixation>+</div></div>","none","900","practice","Haut-Bas","#1F45FC","1","magnitude","switch","switch","5","","","",""
"489","89","poldrack-categorize","33","39715","0.0-5.0-28.0","sub-11_1","","2000","0","stim","","<div class = upperbox><div class = ""center-text"" >Haut-Bas</div></div><div class = lowerbox><div class = ""stim-text"" style=color:#1F45FC;>1</div>","89,71","1000","practice","Haut-Bas","#1F45FC","1","magnitude","switch","switch","5","true","89","500",""
"-1","-1","poldrack-single-stim","34","40223","0.0-5.0-29.0","sub-11_1","","500","0","gap",""," ","none","500","practice","","","","","","","","","","",""
"","","call-function","35","40223","0.0-5.0-30.0","sub-11_1","","","","set_stims","","","","","","","","","","","","","","","",""
"-1","-1","poldrack-single-stim","36","40733","0.0-5.0-31.0","sub-11_1","","500","0","fixation","","<div class = upperbox><div class = fixation>+</div></div><div class = lowerbox><div class = fixation>+</div></div>","none","500","practice","","","","","","","","","","",""
"-1","-1","poldrack-single-stim","37","40843","0.0-5.0-32.0","sub-11_1","","100","0","cue","","<div class = upperbox><div class = ""center-text"" >Haut-Bas</div></div><div class = lowerbox><div class = fixation>+</div></div>","none","100","practice","Haut-Bas","orange","2","magnitude","stay","stay","6","","","",""
"750","89","poldrack-categorize","38","43362","0.0-5.0-33.0","sub-11_1","","2000","0","stim","","<div class = upperbox><div class = ""center-text"" >Haut-Bas</div></div><div class = lowerbox><div class = ""stim-text"" style=color:orange;>2</div>","89,71","1000","practice","Haut-Bas","orange","2","magnitude","stay","stay","6","true","89","500",""
"-1","-1","poldrack-single-stim","39","43871","0.0-5.0-34.0","sub-11_1","","500","0","gap",""," ","none","500","practice","","","","","","","","","","",""
"","","call-function","40","43872","0.0-5.0-35.0","sub-11_1","","","","set_stims","","","","","","","","","","","","","","","",""
"-1","-1","poldrack-single-stim","41","44379","0.0-5.0-36.0","sub-11_1","","500","0","fixation","","<div class = upperbox><div class = fixation>+</div></div><div class = lowerbox><div class = fixation>+</div></div>","none","500","practice","","","","","","","","","","",""
"-1","-1","poldrack-single-stim","42","44488","0.0-5.0-37.0","sub-11_1","","100","0","cue","","<div class = upperbox><div class = ""center-text"" >Couleur</div></div><div class = lowerbox><div class = fixation>+</div></div>","none","100","practice","Couleur","#1F45FC","1","color","switch","stay","7","","","",""
"945","89","poldrack-categorize","43","47015","0.0-5.0-38.0","sub-11_1","","2000","0","stim","","<div class = upperbox><div class = ""center-text"" >Couleur</div></div><div class = lowerbox><div class = ""stim-text"" style=color:#1F45FC;>1</div>","89,71","1000","practice","Couleur","#1F45FC","1","color","switch","stay","7","true","89","500",""
"-1","-1","poldrack-single-stim","44","47524","0.0-5.0-39.0","sub-11_1","","500","0","gap",""," ","none","500","practice","","","","","","","","","","",""
"","","call-function","45","47524","0.0-5.0-40.0","sub-11_1","","","","set_stims","","","","","","","","","","","","","","","",""
"-1","-1","poldrack-single-stim","46","48030","0.0-5.0-41.0","sub-11_1","","500","0","fixation","","<div class = upperbox><div class = fixation>+</div></div><div class = lowerbox><div class = fixation>+</div></div>","none","500","practice","","","","","","","","","","",""
"-1","-1","poldrack-single-stim","47","48137","0.0-5.0-42.0","sub-11_1","","100","0","cue","","<div class = upperbox><div class = ""center-text"" >Haut-Bas</div></div><div class = lowerbox><div class = fixation>+</div></div>","none","100","practice","Haut-Bas","orange","8","magnitude","switch","stay","8","","","",""
"1048","71","poldrack-categorize","48","50652","0.0-5.0-43.0","sub-11_1","","2000","0","stim","","<div class = upperbox><div class = ""center-text"" >Haut-Bas</div></div><div class = lowerbox><div class = ""stim-text"" style=color:orange;>8</div>","89,71","1000","practice","Haut-Bas","orange","8","magnitude","switch","stay","8","true","71","500",""
"-1","-1","poldrack-single-stim","49","51159","0.0-5.0-44.0","sub-11_1","","500","0","gap",""," ","none","500","practice","","","","","","","","","","",""
"","","call-function","50","51160","0.0-5.0-45.0","sub-11_1","","","","set_stims","","","","","","","","","","","","","","","",""
"-1","-1","poldrack-single-stim","51","51669","0.0-5.0-46.0","sub-11_1","","500","0","fixation","","<div class = upperbox><div class = fixation>+</div></div><div class = lowerbox><div class = fixation>+</div></div>","none","500","practice","","","","","","","","","","",""
"-1","-1","poldrack-single-stim","52","52574","0.0-5.0-47.0","sub-11_1","","900","0","cue","","<div class = upperbox><div class = ""center-text"" >Couleur</div></div><div class = lowerbox><div class = fixation>+</div></div>","none","900","practice","Couleur","#1F45FC","9","color","switch","stay","9","","","",""
"495","89","poldrack-categorize","53","55095","0.0-5.0-48.0","sub-11_1","","2000","0","stim","","<div class = upperbox><div class = ""center-text"" >Couleur</div></div><div class = lowerbox><div class = ""stim-text"" style=color:#1F45FC;>9</div>","89,71","1000","practice","Couleur","#1F45FC","9","color","switch","stay","9","true","89","500",""
"-1","-1","poldrack-single-stim","54","55603","0.0-5.0-49.0","sub-11_1","","500","0","gap",""," ","none","500","practice","","","","","","","","","","",""
"","","call-function","55","55603","0.0-5.0-50.0","sub-11_1","","","","set_stims","","","","","","","","","","","","","","","",""
"-1","-1","poldrack-single-stim","56","56111","0.0-5.0-51.0","sub-11_1","","500","0","fixation","","<div class = upperbox><div class = fixation>+</div></div><div class = lowerbox><div class = fixation>+</div></div>","none","500","practice","","","","","","","","","","",""
"-1","-1","poldrack-single-stim","57","57018","0.0-5.0-52.0","sub-11_1","","900","0","cue","","<div class = upperbox><div class = ""center-text"" >Couleur</div></div><div class = lowerbox><div class = fixation>+</div></div>","none","900","practice","Couleur","#1F45FC","8","color","stay","stay","10","","","",""
"559","89","poldrack-categorize","58","59530","0.0-5.0-53.0","sub-11_1","","2000","0","stim","","<div class = upperbox><div class = ""center-text"" >Couleur</div></div><div class = lowerbox><div class = ""stim-text"" style=color:#1F45FC;>8</div>","89,71","1000","practice","Couleur","#1F45FC","8","color","stay","stay","10","true","89","500",""
"-1","-1","poldrack-single-stim","59","60037","0.0-5.0-54.0","sub-11_1","","500","0","gap",""," ","none","500","practice","","","","","","","","","","",""
"","","call-function","60","60038","0.0-5.0-55.0","sub-11_1","","","","set_stims","","","","","","","","","","","","","","","",""
"-1","-1","poldrack-single-stim","61","60550","0.0-5.0-56.0","sub-11_1","","500","0","fixation","","<div class = upperbox><div class = fixation>+</div></div><div class = lowerbox><div class = fixation>+</div></div>","none","500","practice","","","","","","","","","","",""
"-1","-1","poldrack-single-stim","62","60659","0.0-5.0-57.0","sub-11_1","","100","0","cue","","<div class = upperbox><div class = ""center-text"" >Orange-Bleu</div></div><div class = lowerbox><div class = fixation>+</div></div>","none","100","practice","Orange-Bleu","#1F45FC","2","color","stay","switch","11","","","",""
"805","89","poldrack-categorize","63","63173","0.0-5.0-58.0","sub-11_1","","2000","0","stim","","<div class = upperbox><div class = ""center-text"" >Orange-Bleu</div></div><div class = lowerbox><div class = ""stim-text"" style=color:#1F45FC;>2</div>","89,71","1000","practice","Orange-Bleu","#1F45FC","2","color","stay","switch","11","true","89","500",""
"-1","-1","poldrack-single-stim","64","63766","0.0-5.0-59.0","sub-11_1","","500","0","gap",""," ","none","500","practice","","","","","","","","","","",""
"","","call-function","65","63767","0.0-5.0-60.0","sub-11_1","","","","set_stims","","","","","","","","","","","","","","","",""
"-1","-1","poldrack-single-stim","66","64283","0.0-5.0-61.0","sub-11_1","","500","0","fixation","","<div class = upperbox><div class = fixation>+</div></div><div class = lowerbox><div class = fixation>+</div></div>","none","500","practice","","","","","","","","","","",""
"-1","-1","poldrack-single-stim","67","65190","0.0-5.0-62.0","sub-11_1","","900","0","cue","","<div class = upperbox><div class = ""center-text"" >Orange-Bleu</div></div><div class = lowerbox><div class = fixation>+</div></div>","none","900","practice","Orange-Bleu","orange","3","color","stay","stay","12","","","",""
"839","71","poldrack-categorize","68","67708","0.0-5.0-63.0","sub-11_1","","2000","0","stim","","<div class = upperbox><div class = ""center-text"" >Orange-Bleu</div></div><div class = lowerbox><div class = ""stim-text"" style=color:orange;>3</div>","89,71","1000","practice","Orange-Bleu","orange","3","color","stay","stay","12","true","71","500",""
"-1","-1","poldrack-single-stim","69","68219","0.0-5.0-64.0","sub-11_1","","500","0","gap",""," ","none","500","practice","","","","","","","","","","",""
"","","call-function","70","68219","0.0-5.0-65.0","sub-11_1","","","","set_stims","","","","","","","","","","","","","","","",""
"-1","-1","poldrack-single-stim","71","68728","0.0-5.0-66.0","sub-11_1","","500","0","fixation","","<div class = upperbox><div class = fixation>+</div></div><div class = lowerbox><div class = fixation>+</div></div>","none","500","practice","","","","","","","","","","",""
"-1","-1","poldrack-single-stim","72","68835","0.0-5.0-67.0","sub-11_1","","100","0","cue","","<div class = upperbox><div class = ""center-text"" >Orange-Bleu</div></div><div class = lowerbox><div class = fixation>+</div></div>","none","100","practice","Orange-Bleu","#1F45FC","1","color","stay","stay","13","","","",""
"871","89","poldrack-categorize","73","71352","0.0-5.0-68.0","sub-11_1","","2000","0","stim","","<div class = upperbox><div class = ""center-text"" >Orange-Bleu</div></div><div class = lowerbox><div class = ""stim-text"" style=color:#1F45FC;>1</div>","89,71","1000","practice","Orange-Bleu","#1F45FC","1","color","stay","stay","13","true","89","500",""
"-1","-1","poldrack-single-stim","74","71865","0.0-5.0-69.0","sub-11_1","","500","0","gap",""," ","none","500","practice","","","","","","","","","","",""
"","","call-function","75","71865","0.0-5.0-70.0","sub-11_1","","","","set_stims","","","","","","","","","","","","","","","",""
"-1","-1","poldrack-single-stim","76","72371","0.0-5.0-71.0","sub-11_1","","500","0","fixation","","<div class = upperbox><div class = fixation>+</div></div><div class = lowerbox><div class = fixation>+</div></div>","none","500","practice","","","","","","","","","","",""
"-1","-1","poldrack-single-stim","77","73284","0.0-5.0-72.0","sub-11_1","","900","0","cue","","<div class = upperbox><div class = ""center-text"" >Couleur</div></div><div class = lowerbox><div class = fixation>+</div></div>","none","900","practice","Couleur","orange","4","color","stay","switch","14","","","",""
"929","71","poldrack-categorize","78","75794","0.0-5.0-73.0","sub-11_1","","2000","0","stim","","<div class = upperbox><div class = ""center-text"" >Couleur</div></div><div class = lowerbox><div class = ""stim-text"" style=color:orange;>4</div>","89,71","1000","practice","Couleur","orange","4","color","stay","switch","14","true","71","500",""
"-1","-1","poldrack-single-stim","79","76312","0.0-5.0-74.0","sub-11_1","","500","0","gap",""," ","none","500","practice","","","","","","","","","","",""
"","","call-function","80","76312","0.0-5.0-75.0","sub-11_1","","","","set_stims","","","","","","","","","","","","","","","",""
"-1","-1","poldrack-single-stim","81","76822","0.0-5.0-76.0","sub-11_1","","500","0","fixation","","<div class = upperbox><div class = fixation>+</div></div><div class = lowerbox><div class = fixation>+</div></div>","none","500","practice","","","","","","","","","","",""
"-1","-1","poldrack-single-stim","82","76927","0.0-5.0-77.0","sub-11_1","","100","0","cue","","<div class = upperbox><div class = ""center-text"" >Haut-Bas</div></div><div class = lowerbox><div class = fixation>+</div></div>","none","100","practice","Haut-Bas","#1F45FC","2","magnitude","switch","switch","15","","","",""
"951","89","poldrack-categorize","83","79453","0.0-5.0-78.0","sub-11_1","","2000","0","stim","","<div class = upperbox><div class = ""center-text"" >Haut-Bas</div></div><div class = lowerbox><div class = ""stim-text"" style=color:#1F45FC;>2</div>","89,71","1000","practice","Haut-Bas","#1F45FC","2","magnitude","switch","switch","15","true","89","500",""
"-1","-1","poldrack-single-stim","84","79962","0.0-5.0-79.0","sub-11_1","","500","0","gap",""," ","none","500","practice","","","","","","","","","","",""
"1688","32","poldrack-text","85","81665","0.0-6.0","sub-11_1","<div class = centerbox><div  class = center-text>Scanner Setup</div></div>","1688","0","fmri_scanner_wait","","","","","","","","","","","","","","","",""
"51199","84","poldrack-text","86","132868","0.0-7.0","sub-11_1","<div class = centerbox><div style='color:red'; class = center-text>+</div></div>","51199","0","fmri_trigger_wait","","","","","","","","","","","","","","","",""
"-1","-1","poldrack-single-stim","87","133872","0.0-8.0","sub-11_1","","1000","0","fmri_buffer","","","none","1000","","","","","","","","","","","",""
"-1","-1","poldrack-single-stim","88","135383","0.0-9.0","sub-11_1","","1500","500","test_start_block","","<div class = centerbox><div class = center-text>Preparez-vous!</p></div>","none","1500","","","","","","","","","","","",""
"-1","-1","poldrack-single-stim","89","136403","0.0-10.0","sub-11_1","","500","0","fixation","","<div class = upperbox><div class = fixation>+</div></div><div class = lowerbox><div class = fixation>+</div></div>","none","500","test","","","","","","","","","","",""
"","","call-function","90","136404","0.0-11.0","sub-11_1","","","","set_stims","","","","","","","","","","","","","","","",""
"-1","-1","poldrack-single-stim","91","137313","0.0-12.0","sub-11_1","","900","0","cue","","<div class = upperbox><div class = ""center-text"" >Haut-Bas</div></div><div class = lowerbox><div class = fixation>+</div></div>","none","900","test","Haut-Bas","#1F45FC","9","magnitude","stay","stay","0","","","",""
"682","71","poldrack-single-stim","92","140542","0.0-13.0","sub-11_1","","3224","0","stim","","<div class = upperbox><div class = ""center-text"" >Haut-Bas</div></div><div class = lowerbox><div class = ""stim-text"" style=color:#1F45FC;>9</div>","89,71","1000","test","Haut-Bas","#1F45FC","9","magnitude","stay","stay","0","true","71","",""
"","","call-function","93","140544","0.0-14.0","sub-11_1","","","","set_stims","","","","","","","","","","","","","","","",""
"-1","-1","poldrack-single-stim","94","140650","0.0-15.0","sub-11_1","","100","0","cue","","<div class = upperbox><div class = ""center-text"" >Orange-Bleu</div></div><div class = lowerbox><div class = fixation>+</div></div>","none","100","test","Orange-Bleu","#1F45FC","1","color","switch","switch","1","","","",""
"904","89","poldrack-single-stim","95","143067","0.0-16.0","sub-11_1","","2408","0","stim","","<div class = upperbox><div class = ""center-text"" >Orange-Bleu</div></div><div class = lowerbox><div class = ""stim-text"" style=color:#1F45FC;>1</div>","89,71","1000","test","Orange-Bleu","#1F45FC","1","color","switch","switch","1","true","89","",""
"","","call-function","96","143069","0.0-17.0","sub-11_1","","","","set_stims","","","","","","","","","","","","","","","",""
"-1","-1","poldrack-single-stim","97","143978","0.0-18.0","sub-11_1","","900","0","cue","","<div class = upperbox><div class = ""center-text"" >Amplitude</div></div><div class = lowerbox><div class = fixation>+</div></div>","none","900","test","Amplitude","orange","4","magnitude","switch","stay","2","","","",""
"521","89","poldrack-single-stim","98","146802","0.0-19.0","sub-11_1","","2816","0","stim","","<div class = upperbox><div class = ""center-text"" >Amplitude</div></div><div class = lowerbox><div class = ""stim-text"" style=color:orange;>4</div>","89,71","1000","test","Amplitude","orange","4","magnitude","switch","stay","2","true","89","",""
"","","call-function","99","146803","0.0-20.0","sub-11_1","","","","set_stims","","","","","","","","","","","","","","","",""
"-1","-1","poldrack-single-stim","100","146910","0.0-21.0","sub-11_1","","100","0","cue","","<div class = upperbox><div class = ""center-text"" >Orange-Bleu</div></div><div class = lowerbox><div class = fixation>+</div></div>","none","100","test","Orange-Bleu","#1F45FC","1","color","switch","switch","3","","","",""
"900","89","poldrack-single-stim","101","149334","0.0-22.0","sub-11_1","","2408","0","stim","","<div class = upperbox><div class = ""center-text"" >Orange-Bleu</div></div><div class = lowerbox><div class = ""stim-text"" style=color:#1F45FC;>1</div>","89,71","1000","test","Orange-Bleu","#1F45FC","1","color","switch","switch","3","true","89","",""
"","","call-function","102","149336","0.0-23.0","sub-11_1","","","","set_stims","","","","","","","","","","","","","","","",""
"-1","-1","poldrack-single-stim","103","149444","0.0-24.0","sub-11_1","","100","0","cue","","<div class = upperbox><div class = ""center-text"" >Haut-Bas</div></div><div class = lowerbox><div class = fixation>+</div></div>","none","100","test","Haut-Bas","orange","9","magnitude","switch","switch","4","","","",""
"866","71","poldrack-single-stim","104","151584","0.0-25.0","sub-11_1","","2136","0","stim","","<div class = upperbox><div class = ""center-text"" >Haut-Bas</div></div><div class = lowerbox><div class = ""stim-text"" style=color:orange;>9</div>","89,71","1000","test","Haut-Bas","orange","9","magnitude","switch","switch","4","true","71","",""
"","","call-function","105","151585","0.0-26.0","sub-11_1","","","","set_stims","","","","","","","","","","","","","","","",""
"-1","-1","poldrack-single-stim","106","152494","0.0-27.0","sub-11_1","","900","0","cue","","<div class = upperbox><div class = ""center-text"" >Haut-Bas</div></div><div class = lowerbox><div class = fixation>+</div></div>","none","900","test","Haut-Bas","#1F45FC","1","magnitude","stay","stay","5","","","",""
"511","89","poldrack-single-stim","107","154634","0.0-28.0","sub-11_1","","2136","0","stim","","<div class = upperbox><div class = ""center-text"" >Haut-Bas</div></div><div class = lowerbox><div class = ""stim-text"" style=color:#1F45FC;>1</div>","89,71","1000","test","Haut-Bas","#1F45FC","1","magnitude","stay","stay","5","true","89","",""
"","","call-function","108","154635","0.0-29.0","sub-11_1","","","","set_stims","","","","","","","","","","","","","","","",""
"-1","-1","poldrack-single-stim","109","155538","0.0-30.0","sub-11_1","","900","0","cue","","<div class = upperbox><div class = ""center-text"" >Amplitude</div></div><div class = lowerbox><div class = fixation>+</div></div>","none","900","test","Amplitude","orange","2","magnitude","stay","switch","6","","","",""
"769","89","poldrack-single-stim","110","157541","0.0-31.0","sub-11_1","","2000","0","stim","","<div class = upperbox><div class = ""center-text"" >Amplitude</div></div><div class = lowerbox><div class = ""stim-text"" style=color:orange;>2</div>","89,71","1000","test","Amplitude","orange","2","magnitude","stay","switch","6","true","89","",""
"","","call-function","111","157541","0.0-32.0","sub-11_1","","","","set_stims","","","","","","","","","","","","","","","",""
"-1","-1","poldrack-single-stim","112","158453","0.0-33.0","sub-11_1","","900","0","cue","","<div class = upperbox><div class = ""center-text"" >Haut-Bas</div></div><div class = lowerbox><div class = fixation>+</div></div>","none","900","test","Haut-Bas","#1F45FC","1","magnitude","stay","switch","7","","","",""
"626","89","poldrack-single-stim","113","160460","0.0-34.0","sub-11_1","","2000","0","stim","","<div class = upperbox><div class = ""center-text"" >Haut-Bas</div></div><div class = lowerbox><div class = ""stim-text"" style=color:#1F45FC;>1</div>","89,71","1000","test","Haut-Bas","#1F45FC","1","magnitude","stay","switch","7","true","89","",""
"","","call-function","114","160460","0.0-35.0","sub-11_1","","","","set_stims","","","","","","","","","","","","","","","",""
"-1","-1","poldrack-single-stim","115","161369","0.0-36.0","sub-11_1","","900","0","cue","","<div class = upperbox><div class = ""center-text"" >Orange-Bleu</div></div><div class = lowerbox><div class = fixation>+</div></div>","none","900","test","Orange-Bleu","orange","8","color","switch","switch","8","","","",""
"459","71","poldrack-single-stim","116","163650","0.0-37.0","sub-11_1","","2272","0","stim","","<div class = upperbox><div class = ""center-text"" >Orange-Bleu</div></div><div class = lowerbox><div class = ""stim-text"" style=color:orange;>8</div>","89,71","1000","test","Orange-Bleu","orange","8","color","switch","switch","8","true","71","",""
"","","call-function","117","163651","0.0-38.0","sub-11_1","","","","set_stims","","","","","","","","","","","","","","","",""
"-1","-1","poldrack-single-stim","118","164563","0.0-39.0","sub-11_1","","900","0","cue","","<div class = upperbox><div class = ""center-text"" >Haut-Bas</div></div><div class = lowerbox><div class = fixation>+</div></div>","none","900","test","Haut-Bas","#1F45FC","9","magnitude","switch","switch","9","","","",""
"506","71","poldrack-single-stim","119","166985","0.0-40.0","sub-11_1","","2408","0","stim","","<div class = upperbox><div class = ""center-text"" >Haut-Bas</div></div><div class = lowerbox><div class = ""stim-text"" style=color:#1F45FC;>9</div>","89,71","1000","test","Haut-Bas","#1F45FC","9","magnitude","switch","switch","9","true","71","",""
"","","call-function","120","166987","0.0-41.0","sub-11_1","","","","set_stims","","","","","","","","","","","","","","","",""
"-1","-1","poldrack-single-stim","121","167892","0.0-42.0","sub-11_1","","900","0","cue","","<div class = upperbox><div class = ""center-text"" >Couleur</div></div><div class = lowerbox><div class = fixation>+</div></div>","none","900","test","Couleur","#1F45FC","8","color","switch","stay","10","","","",""
"590","89","poldrack-single-stim","122","169908","0.0-43.0","sub-11_1","","2000","0","stim","","<div class = upperbox><div class = ""center-text"" >Couleur</div></div><div class = lowerbox><div class = ""stim-text"" style=color:#1F45FC;>8</div>","89,71","1000","test","Couleur","#1F45FC","8","color","switch","stay","10","true","89","",""
"","","call-function","123","169910","0.0-44.0","sub-11_1","","","","set_stims","","","","","","","","","","","","","","","",""
"-1","-1","poldrack-single-stim","124","170018","0.0-45.0","sub-11_1","","100","0","cue","","<div class = upperbox><div class = ""center-text"" >Orange-Bleu</div></div><div class = lowerbox><div class = fixation>+</div></div>","none","100","test","Orange-Bleu","#1F45FC","2","color","stay","switch","11","","","",""
"1151","89","poldrack-single-stim","125","172158","0.0-46.0","sub-11_1","","2136","0","stim","","<div class = upperbox><div class = ""center-text"" >Orange-Bleu</div></div><div class = lowerbox><div class = ""stim-text"" style=color:#1F45FC;>2</div>","89,71","1000","test","Orange-Bleu","#1F45FC","2","color","stay","switch","11","true","89","",""
"","","call-function","126","172159","0.0-47.0","sub-11_1","","","","set_stims","","","","","","","","","","","","","","","",""
"-1","-1","poldrack-single-stim","127","173063","0.0-48.0","sub-11_1","","900","0","cue","","<div class = upperbox><div class = ""center-text"" >Haut-Bas</div></div><div class = lowerbox><div class = fixation>+</div></div>","none","900","test","Haut-Bas","orange","3","magnitude","switch","stay","12","","","",""
"586","89","poldrack-single-stim","128","175068","0.0-49.0","sub-11_1","","2000","0","stim","","<div class = upperbox><div class = ""center-text"" >Haut-Bas</div></div><div class = lowerbox><div class = ""stim-text"" style=color:orange;>3</div>","89,71","1000","test","Haut-Bas","orange","3","magnitude","switch","stay","12","true","89","",""
"","","call-function","129","175069","0.0-50.0","sub-11_1","","","","set_stims","","","","","","","","","","","","","","","",""
"-1","-1","poldrack-single-stim","130","175177","0.0-51.0","sub-11_1","","100","0","cue","","<div class = upperbox><div class = ""center-text"" >Couleur</div></div><div class = lowerbox><div class = fixation>+</div></div>","none","100","test","Couleur","#1F45FC","1","color","switch","stay","13","","","",""
"894","89","poldrack-single-stim","131","177594","0.0-52.0","sub-11_1","","2408","0","stim","","<div class = upperbox><div class = ""center-text"" >Couleur</div></div><div class = lowerbox><div class = ""stim-text"" style=color:#1F45FC;>1</div>","89,71","1000","test","Couleur","#1F45FC","1","color","switch","stay","13","true","89","",""
"","","call-function","132","177595","0.0-53.0","sub-11_1","","","","set_stims","","","","","","","","","","","","","","","",""
"-1","-1","poldrack-single-stim","133","177703","0.0-54.0","sub-11_1","","100","0","cue","","<div class = upperbox><div class = ""center-text"" >Orange-Bleu</div></div><div class = lowerbox><div class = fixation>+</div></div>","none","100","test","Orange-Bleu","orange","4","color","stay","switch","14","","","",""
"988","71","poldrack-single-stim","134","179984","0.0-55.0","sub-11_1","","2272","0","stim","","<div class = upperbox><div class = ""center-text"" >Orange-Bleu</div></div><div class = lowerbox><div class = ""stim-text"" style=color:orange;>4</div>","89,71","1000","test","Orange-Bleu","orange","4","color","stay","switch","14","true","71","",""
"","","call-function","135","179986","0.0-56.0","sub-11_1","","","","set_stims","","","","","","","","","","","","","","","",""
"-1","-1","poldrack-single-stim","136","180098","0.0-57.0","sub-11_1","","100","0","cue","","<div class = upperbox><div class = ""center-text"" >Amplitude</div></div><div class = lowerbox><div class = fixation>+</div></div>","none","100","test","Amplitude","#1F45FC","2","magnitude","switch","stay","15","","","",""
"981","89","poldrack-single-stim","137","182103","0.0-58.0","sub-11_1","","2000","0","stim","","<div class = upperbox><div class = ""center-text"" >Amplitude</div></div><div class = lowerbox><div class = ""stim-text"" style=color:#1F45FC;>2</div>","89,71","1000","test","Amplitude","#1F45FC","2","magnitude","switch","stay","15","true","89","",""
"","","call-function","138","182104","0.0-59.0","sub-11_1","","","","set_stims","","","","","","","","","","","","","","","",""
"-1","-1","poldrack-single-stim","139","182212","0.0-60.0","sub-11_1","","100","0","cue","","<div class = upperbox><div class = ""center-text"" >Haut-Bas</div></div><div class = lowerbox><div class = fixation>+</div></div>","none","100","test","Haut-Bas","#1F45FC","1","magnitude","stay","switch","16","","","",""
"795","89","poldrack-single-stim","140","184492","0.0-61.0","sub-11_1","","2272","0","stim","","<div class = upperbox><div class = ""center-text"" >Haut-Bas</div></div><div class = lowerbox><div class = ""stim-text"" style=color:#1F45FC;>1</div>","89,71","1000","test","Haut-Bas","#1F45FC","1","magnitude","stay","switch","16","true","89","",""
"","","call-function","141","184492","0.0-62.0","sub-11_1","","","","set_stims","","","","","","","","","","","","","","","",""
"-1","-1","poldrack-single-stim","142","185402","0.0-63.0","sub-11_1","","900","0","cue","","<div class = upperbox><div class = ""center-text"" >Couleur</div></div><div class = lowerbox><div class = fixation>+</div></div>","none","900","test","Couleur","#1F45FC","1","color","switch","stay","17","","","",""
"475","89","poldrack-single-stim","143","187410","0.0-64.0","sub-11_1","","2000","0","stim","","<div class = upperbox><div class = ""center-text"" >Couleur</div></div><div class = lowerbox><div class = ""stim-text"" style=color:#1F45FC;>1</div>","89,71","1000","test","Couleur","#1F45FC","1","color","switch","stay","17","true","89","",""
"","","call-function","144","187411","0.0-65.0","sub-11_1","","","","set_stims","","","","","","","","","","","","","","","",""
"-1","-1","poldrack-single-stim","145","188323","0.0-66.0","sub-11_1","","900","0","cue","","<div class = upperbox><div class = ""center-text"" >Amplitude</div></div><div class = lowerbox><div class = fixation>+</div></div>","none","900","test","Amplitude","#1F45FC","7","magnitude","switch","stay","18","","","",""
"476","71","poldrack-single-stim","146","190340","0.0-67.0","sub-11_1","","2000","0","stim","","<div class = upperbox><div class = ""center-text"" >Amplitude</div></div><div class = lowerbox><div class = ""stim-text"" style=color:#1F45FC;>7</div>","89,71","1000","test","Amplitude","#1F45FC","7","magnitude","switch","stay","18","true","71","",""
"","","call-function","147","190341","0.0-68.0","sub-11_1","","","","set_stims","","","","","","","","","","","","","","","",""
"-1","-1","poldrack-single-stim","148","191247","0.0-69.0","sub-11_1","","900","0","cue","","<div class = upperbox><div class = ""center-text"" >Amplitude</div></div><div class = lowerbox><div class = fixation>+</div></div>","none","900","test","Amplitude","#1F45FC","7","magnitude","stay","stay","19","","","",""
"480","71","poldrack-single-stim","149","193527","0.0-70.0","sub-11_1","","2272","0","stim","","<div class = upperbox><div class = ""center-text"" >Amplitude</div></div><div class = lowerbox><div class = ""stim-text"" style=color:#1F45FC;>7</div>","89,71","1000","test","Amplitude","#1F45FC","7","magnitude","stay","stay","19","true","71","",""
"","","call-function","150","193528","0.0-71.0","sub-11_1","","","","set_stims","","","","","","","","","","","","","","","",""
"-1","-1","poldrack-single-stim","151","194436","0.0-72.0","sub-11_1","","900","0","cue","","<div class = upperbox><div class = ""center-text"" >Couleur</div></div><div class = lowerbox><div class = fixation>+</div></div>","none","900","test","Couleur","#1F45FC","3","color","switch","stay","20","","","",""
"527","89","poldrack-single-stim","152","196574","0.0-73.0","sub-11_1","","2136","0","stim","","<div class = upperbox><div class = ""center-text"" >Couleur</div></div><div class = lowerbox><div class = ""stim-text"" style=color:#1F45FC;>3</div>","89,71","1000","test","Couleur","#1F45FC","3","color","switch","stay","20","true","89","",""
"","","call-function","153","196575","0.0-74.0","sub-11_1","","","","set_stims","","","","","","","","","","","","","","","",""
"-1","-1","poldrack-single-stim","154","196682","0.0-75.0","sub-11_1","","100","0","cue","","<div class = upperbox><div class = ""center-text"" >Haut-Bas</div></div><div class = lowerbox><div class = fixation>+</div></div>","none","100","test","Haut-Bas","#1F45FC","9","magnitude","switch","switch","21","","","",""
"956","71","poldrack-single-stim","155","198698","0.0-76.0","sub-11_1","","2000","0","stim","","<div class = upperbox><div class = ""center-text"" >Haut-Bas</div></div><div class = lowerbox><div class = ""stim-text"" style=color:#1F45FC;>9</div>","89,71","1000","test","Haut-Bas","#1F45FC","9","magnitude","switch","switch","21","true","71","",""
"","","call-function","156","198698","0.0-77.0","sub-11_1","","","","set_stims","","","","","","","","","","","","","","","",""
"-1","-1","poldrack-single-stim","157","198806","0.0-78.0","sub-11_1","","100","0","cue","","<div class = upperbox><div class = ""center-text"" >Haut-Bas</div></div><div class = lowerbox><div class = fixation>+</div></div>","none","100","test","Haut-Bas","#1F45FC","8","magnitude","stay","stay","22","","","",""
"755","71","poldrack-single-stim","158","200814","0.0-79.0","sub-11_1","","2000","0","stim","","<div class = upperbox><div class = ""center-text"" >Haut-Bas</div></div><div class = lowerbox><div class = ""stim-text"" style=color:#1F45FC;>8</div>","89,71","1000","test","Haut-Bas","#1F45FC","8","magnitude","stay","stay","22","true","71","",""
"","","call-function","159","200815","0.0-80.0","sub-11_1","","","","set_stims","","","","","","","","","","","","","","","",""
"-1","-1","poldrack-single-stim","160","201720","0.0-81.0","sub-11_1","","900","0","cue","","<div class = upperbox><div class = ""center-text"" >Couleur</div></div><div class = lowerbox><div class = fixation>+</div></div>","none","900","test","Couleur","#1F45FC","8","color","switch","switch","23","","","",""
"697","89","poldrack-single-stim","161","203750","0.0-82.0","sub-11_1","","2000","0","stim","","<div class = upperbox><div class = ""center-text"" >Couleur</div></div><div class = lowerbox><div class = ""stim-text"" style=color:#1F45FC;>8</div>","89,71","1000","test","Couleur","#1F45FC","8","color","switch","switch","23","true","89","",""
"","","call-function","162","203753","0.0-83.0","sub-11_1","","","","set_stims","","","","","","","","","","","","","","","",""
"-1","-1","poldrack-single-stim","163","203880","0.0-84.0","sub-11_1","","100","0","cue","","<div class = upperbox><div class = ""center-text"" >Orange-Bleu</div></div><div class = lowerbox><div class = fixation>+</div></div>","none","100","test","Orange-Bleu","orange","8","color","stay","switch","24","","","",""
"664","71","poldrack-single-stim","164","205893","0.0-85.0","sub-11_1","","2000","0","stim","","<div class = upperbox><div class = ""center-text"" >Orange-Bleu</div></div><div class = lowerbox><div class = ""stim-text"" style=color:orange;>8</div>","89,71","1000","test","Orange-Bleu","orange","8","color","stay","switch","24","true","71","",""
"","","call-function","165","205894","0.0-86.0","sub-11_1","","","","set_stims","","","","","","","","","","","","","","","",""
"-1","-1","poldrack-single-stim","166","206802","0.0-87.0","sub-11_1","","900","0","cue","","<div class = upperbox><div class = ""center-text"" >Orange-Bleu</div></div><div class = lowerbox><div class = fixation>+</div></div>","none","900","test","Orange-Bleu","orange","7","color","stay","stay","25","","","",""
"448","71","poldrack-single-stim","167","208810","0.0-88.0","sub-11_1","","2000","0","stim","","<div class = upperbox><div class = ""center-text"" >Orange-Bleu</div></div><div class = lowerbox><div class = ""stim-text"" style=color:orange;>7</div>","89,71","1000","test","Orange-Bleu","orange","7","color","stay","stay","25","true","71","",""
"","","call-function","168","208811","0.0-89.0","sub-11_1","","","","set_stims","","","","","","","","","","","","","","","",""
"-1","-1","poldrack-single-stim","169","209721","0.0-90.0","sub-11_1","","900","0","cue","","<div class = upperbox><div class = ""center-text"" >Amplitude</div></div><div class = lowerbox><div class = fixation>+</div></div>","none","900","test","Amplitude","orange","1","magnitude","switch","stay","26","","","",""
"543","89","poldrack-single-stim","170","211866","0.0-91.0","sub-11_1","","2136","0","stim","","<div class = upperbox><div class = ""center-text"" >Amplitude</div></div><div class = lowerbox><div class = ""stim-text"" style=color:orange;>1</div>","89,71","1000","test","Amplitude","orange","1","magnitude","switch","stay","26","true","89","",""
"","","call-function","171","211868","0.0-92.0","sub-11_1","","","","set_stims","","","","","","","","","","","","","","","",""
"-1","-1","poldrack-single-stim","172","212773","0.0-93.0","sub-11_1","","900","0","cue","","<div class = upperbox><div class = ""center-text"" >Amplitude</div></div><div class = lowerbox><div class = fixation>+</div></div>","none","900","test","Amplitude","orange","3","magnitude","stay","stay","27","","","",""
"623","89","poldrack-single-stim","173","214777","0.0-94.0","sub-11_1","","2000","0","stim","","<div class = upperbox><div class = ""center-text"" >Amplitude</div></div><div class = lowerbox><div class = ""stim-text"" style=color:orange;>3</div>","89,71","1000","test","Amplitude","orange","3","magnitude","stay","stay","27","true","89","",""
"","","call-function","174","214779","0.0-95.0","sub-11_1","","","","set_stims","","","","","","","","","","","","","","","",""
"-1","-1","poldrack-single-stim","175","214886","0.0-96.0","sub-11_1","","100","0","cue","","<div class = upperbox><div class = ""center-text"" >Orange-Bleu</div></div><div class = lowerbox><div class = fixation>+</div></div>","none","100","test","Orange-Bleu","orange","2","color","switch","switch","28","","","",""
"818","71","poldrack-single-stim","176","216892","0.0-97.0","sub-11_1","","2000","0","stim","","<div class = upperbox><div class = ""center-text"" >Orange-Bleu</div></div><div class = lowerbox><div class = ""stim-text"" style=color:orange;>2</div>","89,71","1000","test","Orange-Bleu","orange","2","color","switch","switch","28","true","71","",""
"","","call-function","177","216893","0.0-98.0","sub-11_1","","","","set_stims","","","","","","","","","","","","","","","",""
"-1","-1","poldrack-single-stim","178","217000","0.0-99.0","sub-11_1","","100","0","cue","","<div class = upperbox><div class = ""center-text"" >Couleur</div></div><div class = lowerbox><div class = fixation>+</div></div>","none","100","test","Couleur","#1F45FC","2","color","stay","switch","29","","","",""
"714","89","poldrack-single-stim","179","219139","0.0-100.0","sub-11_1","","2136","0","stim","","<div class = upperbox><div class = ""center-text"" >Couleur</div></div><div class = lowerbox><div class = ""stim-text"" style=color:#1F45FC;>2</div>","89,71","1000","test","Couleur","#1F45FC","2","color","stay","switch","29","true","89","",""
"","","call-function","180","219141","0.0-101.0","sub-11_1","","","","set_stims","","","","","","","","","","","","","","","",""
"-1","-1","poldrack-single-stim","181","220048","0.0-102.0","sub-11_1","","900","0","cue","","<div class = upperbox><div class = ""center-text"" >Orange-Bleu</div></div><div class = lowerbox><div class = fixation>+</div></div>","none","900","test","Orange-Bleu","orange","7","color","stay","switch","30","","","",""
"674","71","poldrack-single-stim","182","222059","0.0-103.0","sub-11_1","","2000","0","stim","","<div class = upperbox><div class = ""center-text"" >Orange-Bleu</div></div><div class = lowerbox><div class = ""stim-text"" style=color:orange;>7</div>","89,71","1000","test","Orange-Bleu","orange","7","color","stay","switch","30","true","71","",""
"","","call-function","183","222060","0.0-104.0","sub-11_1","","","","set_stims","","","","","","","","","","","","","","","",""
"-1","-1","poldrack-single-stim","184","222970","0.0-105.0","sub-11_1","","900","0","cue","","<div class = upperbox><div class = ""center-text"" >Amplitude</div></div><div class = lowerbox><div class = fixation>+</div></div>","none","900","test","Amplitude","orange","1","magnitude","switch","stay","31","","","",""
"408","89","poldrack-single-stim","185","225125","0.0-106.0","sub-11_1","","2136","0","stim","","<div class = upperbox><div class = ""center-text"" >Amplitude</div></div><div class = lowerbox><div class = ""stim-text"" style=color:orange;>1</div>","89,71","1000","test","Amplitude","orange","1","magnitude","switch","stay","31","true","89","",""
"","","call-function","186","225126","0.0-107.0","sub-11_1","","","","set_stims","","","","","","","","","","","","","","","",""
"-1","-1","poldrack-single-stim","187","226036","0.0-108.0","sub-11_1","","900","0","cue","","<div class = upperbox><div class = ""center-text"" >Couleur</div></div><div class = lowerbox><div class = fixation>+</div></div>","none","900","test","Couleur","#1F45FC","8","color","switch","stay","32","","","",""
"481","89","poldrack-single-stim","188","228737","0.0-109.0","sub-11_1","","2680","0","stim","","<div class = upperbox><div class = ""center-text"" >Couleur</div></div><div class = lowerbox><div class = ""stim-text"" style=color:#1F45FC;>8</div>","89,71","1000","test","Couleur","#1F45FC","8","color","switch","stay","32","true","89","",""
"","","call-function","189","228739","0.0-110.0","sub-11_1","","","","set_stims","","","","","","","","","","","","","","","",""
"-1","-1","poldrack-single-stim","190","228843","0.0-111.0","sub-11_1","","100","0","cue","","<div class = upperbox><div class = ""center-text"" >Couleur</div></div><div class = lowerbox><div class = fixation>+</div></div>","none","100","test","Couleur","orange","8","color","stay","stay","33","","","",""
"698","71","poldrack-single-stim","191","231120","0.0-112.0","sub-11_1","","2272","0","stim","","<div class = upperbox><div class = ""center-text"" >Couleur</div></div><div class = lowerbox><div class = ""stim-text"" style=color:orange;>8</div>","89,71","1000","test","Couleur","orange","8","color","stay","stay","33","true","71","",""
"","","call-function","192","231122","0.0-113.0","sub-11_1","","","","set_stims","","","","","","","","","","","","","","","",""
"-1","-1","poldrack-single-stim","193","232031","0.0-114.0","sub-11_1","","900","0","cue","","<div class = upperbox><div class = ""center-text"" >Couleur</div></div><div class = lowerbox><div class = fixation>+</div></div>","none","900","test","Couleur","orange","4","color","stay","stay","34","","","",""
"711","71","poldrack-single-stim","194","234176","0.0-115.0","sub-11_1","","2136","0","stim","","<div class = upperbox><div class = ""center-text"" >Couleur</div></div><div class = lowerbox><div class = ""stim-text"" style=color:orange;>4</div>","89,71","1000","test","Couleur","orange","4","color","stay","stay","34","true","71","",""
"","","call-function","195","234177","0.0-116.0","sub-11_1","","","","set_stims","","","","","","","","","","","","","","","",""
"-1","-1","poldrack-single-stim","196","235085","0.0-117.0","sub-11_1","","900","0","cue","","<div class = upperbox><div class = ""center-text"" >Amplitude</div></div><div class = lowerbox><div class = fixation>+</div></div>","none","900","test","Amplitude","orange","1","magnitude","switch","switch","35","","","",""
"824","89","poldrack-single-stim","197","237102","0.0-118.0","sub-11_1","","2000","0","stim","","<div class = upperbox><div class = ""center-text"" >Amplitude</div></div><div class = lowerbox><div class = ""stim-text"" style=color:orange;>1</div>","89,71","1000","test","Amplitude","orange","1","magnitude","switch","switch","35","true","89","",""
"","","call-function","198","237102","0.0-119.0","sub-11_1","","","","set_stims","","","","","","","","","","","","","","","",""
"-1","-1","poldrack-single-stim","199","238012","0.0-120.0","sub-11_1","","900","0","cue","","<div class = upperbox><div class = ""center-text"" >Couleur</div></div><div class = lowerbox><div class = fixation>+</div></div>","none","900","test","Couleur","orange","6","color","switch","stay","36","","","",""
"507","71","poldrack-single-stim","200","240166","0.0-121.0","sub-11_1","","2136","0","stim","","<div class = upperbox><div class = ""center-text"" >Couleur</div></div><div class = lowerbox><div class = ""stim-text"" style=color:orange;>6</div>","89,71","1000","test","Couleur","orange","6","color","switch","stay","36","true","71","",""
"","","call-function","201","240168","0.0-122.0","sub-11_1","","","","set_stims","","","","","","","","","","","","","","","",""
"-1","-1","poldrack-single-stim","202","240275","0.0-123.0","sub-11_1","","100","0","cue","","<div class = upperbox><div class = ""center-text"" >Amplitude</div></div><div class = lowerbox><div class = fixation>+</div></div>","none","100","test","Amplitude","orange","6","magnitude","switch","stay","37","","","",""
"1045","71","poldrack-single-stim","203","242965","0.0-124.0","sub-11_1","","2680","0","stim","","<div class = upperbox><div class = ""center-text"" >Amplitude</div></div><div class = lowerbox><div class = ""stim-text"" style=color:orange;>6</div>","89,71","1000","test","Amplitude","orange","6","magnitude","switch","stay","37","true","71","",""
"","","call-function","204","242966","0.0-125.0","sub-11_1","","","","set_stims","","","","","","","","","","","","","","","",""
"-1","-1","poldrack-single-stim","205","243073","0.0-126.0","sub-11_1","","100","0","cue","","<div class = upperbox><div class = ""center-text"" >Orange-Bleu</div></div><div class = lowerbox><div class = fixation>+</div></div>","none","100","test","Orange-Bleu","#1F45FC","4","color","switch","switch","38","","","",""
"769","89","poldrack-single-stim","206","245358","0.0-127.0","sub-11_1","","2272","0","stim","","<div class = upperbox><div class = ""center-text"" >Orange-Bleu</div></div><div class = lowerbox><div class = ""stim-text"" style=color:#1F45FC;>4</div>","89,71","1000","test","Orange-Bleu","#1F45FC","4","color","switch","switch","38","true","89","",""
"","","call-function","207","245358","0.0-128.0","sub-11_1","","","","set_stims","","","","","","","","","","","","","","","",""
"-1","-1","poldrack-single-stim","208","246271","0.0-129.0","sub-11_1","","900","0","cue","","<div class = upperbox><div class = ""center-text"" >Couleur</div></div><div class = lowerbox><div class = fixation>+</div></div>","none","900","test","Couleur","#1F45FC","9","color","stay","switch","39","","","",""
"484","89","poldrack-single-stim","209","248277","0.0-130.0","sub-11_1","","2000","0","stim","","<div class = upperbox><div class = ""center-text"" >Couleur</div></div><div class = lowerbox><div class = ""stim-text"" style=color:#1F45FC;>9</div>","89,71","1000","test","Couleur","#1F45FC","9","color","stay","switch","39","true","89","",""
"","","call-function","210","248278","0.0-131.0","sub-11_1","","","","set_stims","","","","","","","","","","","","","","","",""
"-1","-1","poldrack-single-stim","211","248385","0.0-132.0","sub-11_1","","100","0","cue","","<div class = upperbox><div class = ""center-text"" >Haut-Bas</div></div><div class = lowerbox><div class = fixation>+</div></div>","none","100","test","Haut-Bas","orange","1","magnitude","switch","switch","40","","","",""
"1074","89","poldrack-single-stim","212","250398","0.0-133.0","sub-11_1","","2000","0","stim","","<div class = upperbox><div class = ""center-text"" >Haut-Bas</div></div><div class = lowerbox><div class = ""stim-text"" style=color:orange;>1</div>","89,71","1000","test","Haut-Bas","orange","1","magnitude","switch","switch","40","true","89","",""
"","","call-function","213","250399","0.0-134.0","sub-11_1","","","","set_stims","","","","","","","","","","","","","","","",""
"-1","-1","poldrack-single-stim","214","250506","0.0-135.0","sub-11_1","","100","0","cue","","<div class = upperbox><div class = ""center-text"" >Haut-Bas</div></div><div class = lowerbox><div class = fixation>+</div></div>","none","100","test","Haut-Bas","#1F45FC","6","magnitude","stay","stay","41","","","",""
"813","71","poldrack-single-stim","215","252651","0.0-136.0","sub-11_1","","2136","0","stim","","<div class = upperbox><div class = ""center-text"" >Haut-Bas</div></div><div class = lowerbox><div class = ""stim-text"" style=color:#1F45FC;>6</div>","89,71","1000","test","Haut-Bas","#1F45FC","6","magnitude","stay","stay","41","true","71","",""
"","","call-function","216","252652","0.0-137.0","sub-11_1","","","","set_stims","","","","","","","","","","","","","","","",""
"-1","-1","poldrack-single-stim","217","253558","0.0-138.0","sub-11_1","","900","0","cue","","<div class = upperbox><div class = ""center-text"" >Haut-Bas</div></div><div class = lowerbox><div class = fixation>+</div></div>","none","900","test","Haut-Bas","#1F45FC","8","magnitude","stay","stay","42","","","",""
"497","71","poldrack-single-stim","218","255560","0.0-139.0","sub-11_1","","2000","0","stim","","<div class = upperbox><div class = ""center-text"" >Haut-Bas</div></div><div class = lowerbox><div class = ""stim-text"" style=color:#1F45FC;>8</div>","89,71","1000","test","Haut-Bas","#1F45FC","8","magnitude","stay","stay","42","true","71","",""
"","","call-function","219","255561","0.0-140.0","sub-11_1","","","","set_stims","","","","","","","","","","","","","","","",""
"-1","-1","poldrack-single-stim","220","256468","0.0-141.0","sub-11_1","","900","0","cue","","<div class = upperbox><div class = ""center-text"" >Haut-Bas</div></div><div class = lowerbox><div class = fixation>+</div></div>","none","900","test","Haut-Bas","#1F45FC","8","magnitude","stay","stay","43","","","",""
"456","71","poldrack-single-stim","221","258471","0.0-142.0","sub-11_1","","2000","0","stim","","<div class = upperbox><div class = ""center-text"" >Haut-Bas</div></div><div class = lowerbox><div class = ""stim-text"" style=color:#1F45FC;>8</div>","89,71","1000","test","Haut-Bas","#1F45FC","8","magnitude","stay","stay","43","true","71","",""
"","","call-function","222","258472","0.0-143.0","sub-11_1","","","","set_stims","","","","","","","","","","","","","","","",""
"-1","-1","poldrack-single-stim","223","258578","0.0-144.0","sub-11_1","","100","0","cue","","<div class = upperbox><div class = ""center-text"" >Amplitude</div></div><div class = lowerbox><div class = fixation>+</div></div>","none","100","test","Amplitude","orange","4","magnitude","stay","switch","44","","","",""
"755","89","poldrack-single-stim","224","260584","0.0-145.0","sub-11_1","","2000","0","stim","","<div class = upperbox><div class = ""center-text"" >Amplitude</div></div><div class = lowerbox><div class = ""stim-text"" style=color:orange;>4</div>","89,71","1000","test","Amplitude","orange","4","magnitude","stay","switch","44","true","89","",""
"","","call-function","225","260585","0.0-146.0","sub-11_1","","","","set_stims","","","","","","","","","","","","","","","",""
"-1","-1","poldrack-single-stim","226","261492","0.0-147.0","sub-11_1","","900","0","cue","","<div class = upperbox><div class = ""center-text"" >Couleur</div></div><div class = lowerbox><div class = fixation>+</div></div>","none","900","test","Couleur","orange","3","color","switch","stay","45","","","",""
"605","71","poldrack-single-stim","227","263786","0.0-148.0","sub-11_1","","2272","0","stim","","<div class = upperbox><div class = ""center-text"" >Couleur</div></div><div class = lowerbox><div class = ""stim-text"" style=color:orange;>3</div>","89,71","1000","test","Couleur","orange","3","color","switch","stay","45","true","71","",""
"","","call-function","228","263787","0.0-149.0","sub-11_1","","","","set_stims","","","","","","","","","","","","","","","",""
"-1","-1","poldrack-single-stim","229","263889","0.0-150.0","sub-11_1","","100","0","cue","","<div class = upperbox><div class = ""center-text"" >Haut-Bas</div></div><div class = lowerbox><div class = fixation>+</div></div>","none","100","test","Haut-Bas","orange","2","magnitude","switch","switch","46","","","",""
"935","89","poldrack-single-stim","230","266307","0.0-151.0","sub-11_1","","2408","0","stim","","<div class = upperbox><div class = ""center-text"" >Haut-Bas</div></div><div class = lowerbox><div class = ""stim-text"" style=color:orange;>2</div>","89,71","1000","test","Haut-Bas","orange","2","magnitude","switch","switch","46","true","89","",""
"","","call-function","231","266307","0.0-152.0","sub-11_1","","","","set_stims","","","","","","","","","","","","","","","",""
"-1","-1","poldrack-single-stim","232","266416","0.0-153.0","sub-11_1","","100","0","cue","","<div class = upperbox><div class = ""center-text"" >Haut-Bas</div></div><div class = lowerbox><div class = fixation>+</div></div>","none","100","test","Haut-Bas","orange","1","magnitude","stay","stay","47","","","",""
"542","89","poldrack-single-stim","233","268433","0.0-154.0","sub-11_1","","2000","0","stim","","<div class = upperbox><div class = ""center-text"" >Haut-Bas</div></div><div class = lowerbox><div class = ""stim-text"" style=color:orange;>1</div>","89,71","1000","test","Haut-Bas","orange","1","magnitude","stay","stay","47","true","89","",""
"","","call-function","234","268434","0.0-155.0","sub-11_1","","","","set_stims","","","","","","","","","","","","","","","",""
"-1","-1","poldrack-single-stim","235","268541","0.0-156.0","sub-11_1","","100","0","cue","","<div class = upperbox><div class = ""center-text"" >Haut-Bas</div></div><div class = lowerbox><div class = fixation>+</div></div>","none","100","test","Haut-Bas","orange","8","magnitude","stay","stay","48","","","",""
"621","71","poldrack-single-stim","236","270545","0.0-157.0","sub-11_1","","2000","0","stim","","<div class = upperbox><div class = ""center-text"" >Haut-Bas</div></div><div class = lowerbox><div class = ""stim-text"" style=color:orange;>8</div>","89,71","1000","test","Haut-Bas","orange","8","magnitude","stay","stay","48","true","71","",""
"","","call-function","237","270546","0.0-158.0","sub-11_1","","","","set_stims","","","","","","","","","","","","","","","",""
"-1","-1","poldrack-single-stim","238","270655","0.0-159.0","sub-11_1","","100","0","cue","","<div class = upperbox><div class = ""center-text"" >Orange-Bleu</div></div><div class = lowerbox><div class = fixation>+</div></div>","none","100","test","Orange-Bleu","#1F45FC","6","color","switch","switch","49","","","",""
"868","89","poldrack-single-stim","239","272658","0.0-160.0","sub-11_1","","2000","0","stim","","<div class = upperbox><div class = ""center-text"" >Orange-Bleu</div></div><div class = lowerbox><div class = ""stim-text"" style=color:#1F45FC;>6</div>","89,71","1000","test","Orange-Bleu","#1F45FC","6","color","switch","switch","49","true","89","",""
"","","call-function","240","272659","0.0-161.0","sub-11_1","","","","set_stims","","","","","","","","","","","","","","","",""
"-1","-1","poldrack-single-stim","241","273572","0.0-162.0","sub-11_1","","900","0","cue","","<div class = upperbox><div class = ""center-text"" >Amplitude</div></div><div class = lowerbox><div class = fixation>+</div></div>","none","900","test","Amplitude","#1F45FC","4","magnitude","switch","stay","50","","","",""
"492","89","poldrack-single-stim","242","275851","0.0-163.0","sub-11_1","","2272","0","stim","","<div class = upperbox><div class = ""center-text"" >Amplitude</div></div><div class = lowerbox><div class = ""stim-text"" style=color:#1F45FC;>4</div>","89,71","1000","test","Amplitude","#1F45FC","4","magnitude","switch","stay","50","true","89","",""
"","","call-function","243","275852","0.0-164.0","sub-11_1","","","","set_stims","","","","","","","","","","","","","","","",""
"-1","-1","poldrack-single-stim","244","275960","0.0-165.0","sub-11_1","","100","0","cue","","<div class = upperbox><div class = ""center-text"" >Amplitude</div></div><div class = lowerbox><div class = fixation>+</div></div>","none","100","test","Amplitude","orange","8","magnitude","stay","stay","51","","","",""
"688","71","poldrack-single-stim","245","278103","0.0-166.0","sub-11_1","","2136","0","stim","","<div class = upperbox><div class = ""center-text"" >Amplitude</div></div><div class = lowerbox><div class = ""stim-text"" style=color:orange;>8</div>","89,71","1000","test","Amplitude","orange","8","magnitude","stay","stay","51","true","71","",""
"","","call-function","246","278104","0.0-167.0","sub-11_1","","","","set_stims","","","","","","","","","","","","","","","",""
"-1","-1","poldrack-single-stim","247","279016","0.0-168.0","sub-11_1","","900","0","cue","","<div class = upperbox><div class = ""center-text"" >Couleur</div></div><div class = lowerbox><div class = fixation>+</div></div>","none","900","test","Couleur","orange","4","color","switch","switch","52","","","",""
"577","71","poldrack-single-stim","248","281024","0.0-169.0","sub-11_1","","2000","0","stim","","<div class = upperbox><div class = ""center-text"" >Couleur</div></div><div class = lowerbox><div class = ""stim-text"" style=color:orange;>4</div>","89,71","1000","test","Couleur","orange","4","color","switch","switch","52","true","71","",""
"","","call-function","249","281025","0.0-170.0","sub-11_1","","","","set_stims","","","","","","","","","","","","","","","",""
"-1","-1","poldrack-single-stim","250","281132","0.0-171.0","sub-11_1","","100","0","cue","","<div class = upperbox><div class = ""center-text"" >Orange-Bleu</div></div><div class = lowerbox><div class = fixation>+</div></div>","none","100","test","Orange-Bleu","#1F45FC","8","color","stay","switch","53","","","",""
"579","89","poldrack-single-stim","251","283688","0.0-172.0","sub-11_1","","2544","0","stim","","<div class = upperbox><div class = ""center-text"" >Orange-Bleu</div></div><div class = lowerbox><div class = ""stim-text"" style=color:#1F45FC;>8</div>","89,71","1000","test","Orange-Bleu","#1F45FC","8","color","stay","switch","53","true","89","",""
"","","call-function","252","283688","0.0-173.0","sub-11_1","","","","set_stims","","","","","","","","","","","","","","","",""
"-1","-1","poldrack-single-stim","253","284596","0.0-174.0","sub-11_1","","900","0","cue","","<div class = upperbox><div class = ""center-text"" >Amplitude</div></div><div class = lowerbox><div class = fixation>+</div></div>","none","900","test","Amplitude","orange","7","magnitude","switch","stay","54","","","",""
"469","71","poldrack-single-stim","254","286875","0.0-175.0","sub-11_1","","2272","0","stim","","<div class = upperbox><div class = ""center-text"" >Amplitude</div></div><div class = lowerbox><div class = ""stim-text"" style=color:orange;>7</div>","89,71","1000","test","Amplitude","orange","7","magnitude","switch","stay","54","true","71","",""
"","","call-function","255","286876","0.0-176.0","sub-11_1","","","","set_stims","","","","","","","","","","","","","","","",""
"-1","-1","poldrack-single-stim","256","287778","0.0-177.0","sub-11_1","","900","0","cue","","<div class = upperbox><div class = ""center-text"" >Amplitude</div></div><div class = lowerbox><div class = fixation>+</div></div>","none","900","test","Amplitude","orange","7","magnitude","stay","stay","55","","","",""
"399","71","poldrack-single-stim","257","290057","0.0-178.0","sub-11_1","","2272","0","stim","","<div class = upperbox><div class = ""center-text"" >Amplitude</div></div><div class = lowerbox><div class = ""stim-text"" style=color:orange;>7</div>","89,71","1000","test","Amplitude","orange","7","magnitude","stay","stay","55","true","71","",""
"","","call-function","258","290057","0.0-179.0","sub-11_1","","","","set_stims","","","","","","","","","","","","","","","",""
"-1","-1","poldrack-single-stim","259","290967","0.0-180.0","sub-11_1","","900","0","cue","","<div class = upperbox><div class = ""center-text"" >Haut-Bas</div></div><div class = lowerbox><div class = fixation>+</div></div>","none","900","test","Haut-Bas","orange","9","magnitude","stay","switch","56","","","",""
"435","71","poldrack-single-stim","260","292977","0.0-181.0","sub-11_1","","2000","0","stim","","<div class = upperbox><div class = ""center-text"" >Haut-Bas</div></div><div class = lowerbox><div class = ""stim-text"" style=color:orange;>9</div>","89,71","1000","test","Haut-Bas","orange","9","magnitude","stay","switch","56","true","71","",""
"","","call-function","261","292978","0.0-182.0","sub-11_1","","","","set_stims","","","","","","","","","","","","","","","",""
"-1","-1","poldrack-single-stim","262","293895","0.0-183.0","sub-11_1","","900","0","cue","","<div class = upperbox><div class = ""center-text"" >Haut-Bas</div></div><div class = lowerbox><div class = fixation>+</div></div>","none","900","test","Haut-Bas","#1F45FC","7","magnitude","stay","stay","57","","","",""
"473","71","poldrack-single-stim","263","295901","0.0-184.0","sub-11_1","","2000","0","stim","","<div class = upperbox><div class = ""center-text"" >Haut-Bas</div></div><div class = lowerbox><div class = ""stim-text"" style=color:#1F45FC;>7</div>","89,71","1000","test","Haut-Bas","#1F45FC","7","magnitude","stay","stay","57","true","71","",""
"","","call-function","264","295901","0.0-185.0","sub-11_1","","","","set_stims","","","","","","","","","","","","","","","",""
"-1","-1","poldrack-single-stim","265","296811","0.0-186.0","sub-11_1","","900","0","cue","","<div class = upperbox><div class = ""center-text"" >Couleur</div></div><div class = lowerbox><div class = fixation>+</div></div>","none","900","test","Couleur","orange","6","color","switch","switch","58","","","",""
"519","71","poldrack-single-stim","266","298954","0.0-187.0","sub-11_1","","2136","0","stim","","<div class = upperbox><div class = ""center-text"" >Couleur</div></div><div class = lowerbox><div class = ""stim-text"" style=color:orange;>6</div>","89,71","1000","test","Couleur","orange","6","color","switch","switch","58","true","71","",""
"","","call-function","267","298955","0.0-188.0","sub-11_1","","","","set_stims","","","","","","","","","","","","","","","",""
"-1","-1","poldrack-single-stim","268","299870","0.0-189.0","sub-11_1","","900","0","cue","","<div class = upperbox><div class = ""center-text"" >Haut-Bas</div></div><div class = lowerbox><div class = fixation>+</div></div>","none","900","test","Haut-Bas","orange","7","magnitude","switch","stay","59","","","",""
"622","71","poldrack-single-stim","269","301873","0.0-190.0","sub-11_1","","2000","0","stim","","<div class = upperbox><div class = ""center-text"" >Haut-Bas</div></div><div class = lowerbox><div class = ""stim-text"" style=color:orange;>7</div>","89,71","1000","test","Haut-Bas","orange","7","magnitude","switch","stay","59","true","71","",""
"","","call-function","270","301875","0.0-191.0","sub-11_1","","","","set_stims","","","","","","","","","","","","","","","",""
"-1","-1","poldrack-single-stim","271","302786","0.0-192.0","sub-11_1","","900","0","cue","","<div class = upperbox><div class = ""center-text"" >Amplitude</div></div><div class = lowerbox><div class = fixation>+</div></div>","none","900","test","Amplitude","orange","7","magnitude","stay","switch","60","","","",""
"410","71","poldrack-single-stim","272","304941","0.0-193.0","sub-11_1","","2136","0","stim","","<div class = upperbox><div class = ""center-text"" >Amplitude</div></div><div class = lowerbox><div class = ""stim-text"" style=color:orange;>7</div>","89,71","1000","test","Amplitude","orange","7","magnitude","stay","switch","60","true","71","",""
"","","call-function","273","304942","0.0-194.0","sub-11_1","","","","set_stims","","","","","","","","","","","","","","","",""
"-1","-1","poldrack-single-stim","274","305849","0.0-195.0","sub-11_1","","900","0","cue","","<div class = upperbox><div class = ""center-text"" >Orange-Bleu</div></div><div class = lowerbox><div class = fixation>+</div></div>","none","900","test","Orange-Bleu","#1F45FC","2","color","switch","stay","61","","","",""
"435","89","poldrack-single-stim","275","308128","0.0-196.0","sub-11_1","","2272","0","stim","","<div class = upperbox><div class = ""center-text"" >Orange-Bleu</div></div><div class = lowerbox><div class = ""stim-text"" style=color:#1F45FC;>2</div>","89,71","1000","test","Orange-Bleu","#1F45FC","2","color","switch","stay","61","true","89","",""
"","","call-function","276","308128","0.0-197.0","sub-11_1","","","","set_stims","","","","","","","","","","","","","","","",""
"-1","-1","poldrack-single-stim","277","309030","0.0-198.0","sub-11_1","","900","0","cue","","<div class = upperbox><div class = ""center-text"" >Haut-Bas</div></div><div class = lowerbox><div class = fixation>+</div></div>","none","900","test","Haut-Bas","#1F45FC","9","magnitude","switch","stay","62","","","",""
"494","71","poldrack-single-stim","278","311168","0.0-199.0","sub-11_1","","2136","0","stim","","<div class = upperbox><div class = ""center-text"" >Haut-Bas</div></div><div class = lowerbox><div class = ""stim-text"" style=color:#1F45FC;>9</div>","89,71","1000","test","Haut-Bas","#1F45FC","9","magnitude","switch","stay","62","true","71","",""
"","","call-function","279","311170","0.0-200.0","sub-11_1","","","","set_stims","","","","","","","","","","","","","","","",""
"-1","-1","poldrack-single-stim","280","311273","0.0-201.0","sub-11_1","","100","0","cue","","<div class = upperbox><div class = ""center-text"" >Haut-Bas</div></div><div class = lowerbox><div class = fixation>+</div></div>","none","100","test","Haut-Bas","#1F45FC","2","magnitude","stay","stay","63","","","",""
"691","89","poldrack-single-stim","281","313551","0.0-202.0","sub-11_1","","2272","0","stim","","<div class = upperbox><div class = ""center-text"" >Haut-Bas</div></div><div class = lowerbox><div class = ""stim-text"" style=color:#1F45FC;>2</div>","89,71","1000","test","Haut-Bas","#1F45FC","2","magnitude","stay","stay","63","true","89","",""
"","","call-function","282","313552","0.0-203.0","sub-11_1","","","","set_stims","","","","","","","","","","","","","","","",""
"-1","-1","poldrack-single-stim","283","313658","0.0-204.0","sub-11_1","","100","0","cue","","<div class = upperbox><div class = ""center-text"" >Orange-Bleu</div></div><div class = lowerbox><div class = fixation>+</div></div>","none","100","test","Orange-Bleu","#1F45FC","8","color","switch","switch","64","","","",""
"774","71","poldrack-single-stim","284","315675","0.0-205.0","sub-11_1","","2000","0","stim","","<div class = upperbox><div class = ""center-text"" >Orange-Bleu</div></div><div class = lowerbox><div class = ""stim-text"" style=color:#1F45FC;>8</div>","89,71","1000","test","Orange-Bleu","#1F45FC","8","color","switch","switch","64","false","89","",""
"","","call-function","285","315676","0.0-206.0","sub-11_1","","","","set_stims","","","","","","","","","","","","","","","",""
"-1","-1","poldrack-single-stim","286","316582","0.0-207.0","sub-11_1","","900","0","cue","","<div class = upperbox><div class = ""center-text"" >Orange-Bleu</div></div><div class = lowerbox><div class = fixation>+</div></div>","none","900","test","Orange-Bleu","orange","4","color","stay","stay","65","","","",""
"371","71","poldrack-single-stim","287","319405","0.0-208.0","sub-11_1","","2816","0","stim","","<div class = upperbox><div class = ""center-text"" >Orange-Bleu</div></div><div class = lowerbox><div class = ""stim-text"" style=color:orange;>4</div>","89,71","1000","test","Orange-Bleu","orange","4","color","stay","stay","65","true","71","",""
"","","call-function","288","319407","0.0-209.0","sub-11_1","","","","set_stims","","","","","","","","","","","","","","","",""
"-1","-1","poldrack-single-stim","289","320313","0.0-210.0","sub-11_1","","900","0","cue","","<div class = upperbox><div class = ""center-text"" >Couleur</div></div><div class = lowerbox><div class = fixation>+</div></div>","none","900","test","Couleur","#1F45FC","9","color","stay","switch","66","","","",""
"564","89","poldrack-single-stim","290","322728","0.0-211.0","sub-11_1","","2408","0","stim","","<div class = upperbox><div class = ""center-text"" >Couleur</div></div><div class = lowerbox><div class = ""stim-text"" style=color:#1F45FC;>9</div>","89,71","1000","test","Couleur","#1F45FC","9","color","stay","switch","66","true","89","",""
"","","call-function","291","322729","0.0-212.0","sub-11_1","","","","set_stims","","","","","","","","","","","","","","","",""
"-1","-1","poldrack-single-stim","292","322834","0.0-213.0","sub-11_1","","100","0","cue","","<div class = upperbox><div class = ""center-text"" >Couleur</div></div><div class = lowerbox><div class = fixation>+</div></div>","none","100","test","Couleur","#1F45FC","2","color","stay","stay","67","","","",""
"659","89","poldrack-single-stim","293","324846","0.0-214.0","sub-11_1","","2000","0","stim","","<div class = upperbox><div class = ""center-text"" >Couleur</div></div><div class = lowerbox><div class = ""stim-text"" style=color:#1F45FC;>2</div>","89,71","1000","test","Couleur","#1F45FC","2","color","stay","stay","67","true","89","",""
"","","call-function","294","324847","0.0-215.0","sub-11_1","","","","set_stims","","","","","","","","","","","","","","","",""
"-1","-1","poldrack-single-stim","295","325756","0.0-216.0","sub-11_1","","900","0","cue","","<div class = upperbox><div class = ""center-text"" >Couleur</div></div><div class = lowerbox><div class = fixation>+</div></div>","none","900","test","Couleur","orange","1","color","stay","stay","68","","","",""
"349","71","poldrack-single-stim","296","328311","0.0-217.0","sub-11_1","","2544","0","stim","","<div class = upperbox><div class = ""center-text"" >Couleur</div></div><div class = lowerbox><div class = ""stim-text"" style=color:orange;>1</div>","89,71","1000","test","Couleur","orange","1","color","stay","stay","68","true","71","",""
"","","call-function","297","328312","0.0-218.0","sub-11_1","","","","set_stims","","","","","","","","","","","","","","","",""
"-1","-1","poldrack-single-stim","298","329225","0.0-219.0","sub-11_1","","900","0","cue","","<div class = upperbox><div class = ""center-text"" >Haut-Bas</div></div><div class = lowerbox><div class = fixation>+</div></div>","none","900","test","Haut-Bas","#1F45FC","7","magnitude","switch","stay","69","","","",""
"550","71","poldrack-single-stim","299","331364","0.0-220.0","sub-11_1","","2136","0","stim","","<div class = upperbox><div class = ""center-text"" >Haut-Bas</div></div><div class = lowerbox><div class = ""stim-text"" style=color:#1F45FC;>7</div>","89,71","1000","test","Haut-Bas","#1F45FC","7","magnitude","switch","stay","69","true","71","",""
"","","call-function","300","331365","0.0-221.0","sub-11_1","","","","set_stims","","","","","","","","","","","","","","","",""
"-1","-1","poldrack-single-stim","301","331472","0.0-222.0","sub-11_1","","100","0","cue","","<div class = upperbox><div class = ""center-text"" >Couleur</div></div><div class = lowerbox><div class = fixation>+</div></div>","none","100","test","Couleur","#1F45FC","8","color","switch","stay","70","","","",""
"1178","89","poldrack-single-stim","302","333476","0.0-223.0","sub-11_1","","2000","0","stim","","<div class = upperbox><div class = ""center-text"" >Couleur</div></div><div class = lowerbox><div class = ""stim-text"" style=color:#1F45FC;>8</div>","89,71","1000","test","Couleur","#1F45FC","8","color","switch","stay","70","true","89","",""
"","","call-function","303","333476","0.0-224.0","sub-11_1","","","","set_stims","","","","","","","","","","","","","","","",""
"-1","-1","poldrack-single-stim","304","334385","0.0-225.0","sub-11_1","","900","0","cue","","<div class = upperbox><div class = ""center-text"" >Couleur</div></div><div class = lowerbox><div class = fixation>+</div></div>","none","900","test","Couleur","#1F45FC","7","color","stay","stay","71","","","",""
"472","89","poldrack-single-stim","305","336390","0.0-226.0","sub-11_1","","2000","0","stim","","<div class = upperbox><div class = ""center-text"" >Couleur</div></div><div class = lowerbox><div class = ""stim-text"" style=color:#1F45FC;>7</div>","89,71","1000","test","Couleur","#1F45FC","7","color","stay","stay","71","true","89","",""
"","","call-function","306","336390","0.0-227.0","sub-11_1","","","","set_stims","","","","","","","","","","","","","","","",""
"-1","-1","poldrack-single-stim","307","336497","0.0-228.0","sub-11_1","","100","0","cue","","<div class = upperbox><div class = ""center-text"" >Orange-Bleu</div></div><div class = lowerbox><div class = fixation>+</div></div>","none","100","test","Orange-Bleu","#1F45FC","7","color","stay","switch","72","","","",""
"550","89","poldrack-single-stim","308","338637","0.0-229.0","sub-11_1","","2136","0","stim","","<div class = upperbox><div class = ""center-text"" >Orange-Bleu</div></div><div class = lowerbox><div class = ""stim-text"" style=color:#1F45FC;>7</div>","89,71","1000","test","Orange-Bleu","#1F45FC","7","color","stay","switch","72","true","89","",""
"","","call-function","309","338638","0.0-230.0","sub-11_1","","","","set_stims","","","","","","","","","","","","","","","",""
"-1","-1","poldrack-single-stim","310","339547","0.0-231.0","sub-11_1","","900","0","cue","","<div class = upperbox><div class = ""center-text"" >Orange-Bleu</div></div><div class = lowerbox><div class = fixation>+</div></div>","none","900","test","Orange-Bleu","#1F45FC","7","color","stay","stay","73","","","",""
"482","89","poldrack-single-stim","311","341691","0.0-232.0","sub-11_1","","2136","0","stim","","<div class = upperbox><div class = ""center-text"" >Orange-Bleu</div></div><div class = lowerbox><div class = ""stim-text"" style=color:#1F45FC;>7</div>","89,71","1000","test","Orange-Bleu","#1F45FC","7","color","stay","stay","73","true","89","",""
"","","call-function","312","341691","0.0-233.0","sub-11_1","","","","set_stims","","","","","","","","","","","","","","","",""
"-1","-1","poldrack-single-stim","313","341800","0.0-234.0","sub-11_1","","100","0","cue","","<div class = upperbox><div class = ""center-text"" >Haut-Bas</div></div><div class = lowerbox><div class = fixation>+</div></div>","none","100","test","Haut-Bas","orange","8","magnitude","switch","switch","74","","","",""
"833","71","poldrack-single-stim","314","344077","0.0-235.0","sub-11_1","","2272","0","stim","","<div class = upperbox><div class = ""center-text"" >Haut-Bas</div></div><div class = lowerbox><div class = ""stim-text"" style=color:orange;>8</div>","89,71","1000","test","Haut-Bas","orange","8","magnitude","switch","switch","74","true","71","",""
"","","call-function","315","344078","0.0-236.0","sub-11_1","","","","set_stims","","","","","","","","","","","","","","","",""
"-1","-1","poldrack-single-stim","316","344185","0.0-237.0","sub-11_1","","100","0","cue","","<div class = upperbox><div class = ""center-text"" >Amplitude</div></div><div class = lowerbox><div class = fixation>+</div></div>","none","100","test","Amplitude","#1F45FC","6","magnitude","stay","switch","75","","","",""
"707","71","poldrack-single-stim","317","347423","0.0-238.0","sub-11_1","","3224","0","stim","","<div class = upperbox><div class = ""center-text"" >Amplitude</div></div><div class = lowerbox><div class = ""stim-text"" style=color:#1F45FC;>6</div>","89,71","1000","test","Amplitude","#1F45FC","6","magnitude","stay","switch","75","true","71","",""
"","","call-function","318","347423","0.0-239.0","sub-11_1","","","","set_stims","","","","","","","","","","","","","","","",""
"-1","-1","poldrack-single-stim","319","347530","0.0-240.0","sub-11_1","","100","0","cue","","<div class = upperbox><div class = ""center-text"" >Haut-Bas</div></div><div class = lowerbox><div class = fixation>+</div></div>","none","100","test","Haut-Bas","orange","8","magnitude","stay","switch","76","","","",""
"648","71","poldrack-single-stim","320","349532","0.0-241.0","sub-11_1","","2000","0","stim","","<div class = upperbox><div class = ""center-text"" >Haut-Bas</div></div><div class = lowerbox><div class = ""stim-text"" style=color:orange;>8</div>","89,71","1000","test","Haut-Bas","orange","8","magnitude","stay","switch","76","true","71","",""
"","","call-function","321","349533","0.0-242.0","sub-11_1","","","","set_stims","","","","","","","","","","","","","","","",""
"-1","-1","poldrack-single-stim","322","349641","0.0-243.0","sub-11_1","","100","0","cue","","<div class = upperbox><div class = ""center-text"" >Couleur</div></div><div class = lowerbox><div class = fixation>+</div></div>","none","100","test","Couleur","#1F45FC","8","color","switch","switch","77","","","",""
"704","89","poldrack-single-stim","323","351643","0.0-244.0","sub-11_1","","2000","0","stim","","<div class = upperbox><div class = ""center-text"" >Couleur</div></div><div class = lowerbox><div class = ""stim-text"" style=color:#1F45FC;>8</div>","89,71","1000","test","Couleur","#1F45FC","8","color","switch","switch","77","true","89","",""
"","","call-function","324","351645","0.0-245.0","sub-11_1","","","","set_stims","","","","","","","","","","","","","","","",""
"-1","-1","poldrack-single-stim","325","352548","0.0-246.0","sub-11_1","","900","0","cue","","<div class = upperbox><div class = ""center-text"" >Amplitude</div></div><div class = lowerbox><div class = fixation>+</div></div>","none","900","test","Amplitude","orange","4","magnitude","switch","stay","78","","","",""
"586","89","poldrack-single-stim","326","354823","0.0-247.0","sub-11_1","","2272","0","stim","","<div class = upperbox><div class = ""center-text"" >Amplitude</div></div><div class = lowerbox><div class = ""stim-text"" style=color:orange;>4</div>","89,71","1000","test","Amplitude","orange","4","magnitude","switch","stay","78","true","89","",""
"","","call-function","327","354824","0.0-248.0","sub-11_1","","","","set_stims","","","","","","","","","","","","","","","",""
"-1","-1","poldrack-single-stim","328","355753","0.0-249.0","sub-11_1","","900","0","cue","","<div class = upperbox><div class = ""center-text"" >Couleur</div></div><div class = lowerbox><div class = fixation>+</div></div>","none","900","test","Couleur","#1F45FC","3","color","switch","switch","79","","","",""
"363","89","poldrack-single-stim","329","357905","0.0-250.0","sub-11_1","","2136","0","stim","","<div class = upperbox><div class = ""center-text"" >Couleur</div></div><div class = lowerbox><div class = ""stim-text"" style=color:#1F45FC;>3</div>","89,71","1000","test","Couleur","#1F45FC","3","color","switch","switch","79","true","89","",""
"-1","-1","poldrack-single-stim","330","367924","0.0-251.0","sub-11_1","","10000","1000","rest_block","","<div class = centerbox><div class = center-text>+</div></div>","none","10000","","","","","","","","","","","",""
"-1","-1","poldrack-single-stim","331","370449","0.0-252.0","sub-11_1","","1500","500","test_start_block","","<div class = centerbox><div class = center-text>Preparez-vous!</p></div>","none","1500","","","","","","","","","","","",""
"-1","-1","poldrack-single-stim","332","371476","0.0-253.0","sub-11_1","","500","0","fixation","","<div class = upperbox><div class = fixation>+</div></div><div class = lowerbox><div class = fixation>+</div></div>","none","500","test","","","","","","","","","","",""
"","","call-function","333","371476","0.0-254.0","sub-11_1","","","","set_stims","","","","","","","","","","","","","","","",""
"-1","-1","poldrack-single-stim","334","372399","0.0-255.0","sub-11_1","","900","0","cue","","<div class = upperbox><div class = ""center-text"" >Amplitude</div></div><div class = lowerbox><div class = fixation>+</div></div>","none","900","test","Amplitude","#1F45FC","9","magnitude","stay","stay","0","","","",""
"729","71","poldrack-single-stim","335","374413","0.0-256.0","sub-11_1","","2000","0","stim","","<div class = upperbox><div class = ""center-text"" >Amplitude</div></div><div class = lowerbox><div class = ""stim-text"" style=color:#1F45FC;>9</div>","89,71","1000","test","Amplitude","#1F45FC","9","magnitude","stay","stay","0","true","71","",""
"","","call-function","336","374414","0.0-257.0","sub-11_1","","","","set_stims","","","","","","","","","","","","","","","",""
"-1","-1","poldrack-single-stim","337","374523","0.0-258.0","sub-11_1","","100","0","cue","","<div class = upperbox><div class = ""center-text"" >Orange-Bleu</div></div><div class = lowerbox><div class = fixation>+</div></div>","none","100","test","Orange-Bleu","#1F45FC","1","color","switch","switch","1","","","",""
"898","89","poldrack-single-stim","338","376536","0.0-259.0","sub-11_1","","2000","0","stim","","<div class = upperbox><div class = ""center-text"" >Orange-Bleu</div></div><div class = lowerbox><div class = ""stim-text"" style=color:#1F45FC;>1</div>","89,71","1000","test","Orange-Bleu","#1F45FC","1","color","switch","switch","1","true","89","",""
"","","call-function","339","376536","0.0-260.0","sub-11_1","","","","set_stims","","","","","","","","","","","","","","","",""
"-1","-1","poldrack-single-stim","340","377443","0.0-261.0","sub-11_1","","900","0","cue","","<div class = upperbox><div class = ""center-text"" >Haut-Bas</div></div><div class = lowerbox><div class = fixation>+</div></div>","none","900","test","Haut-Bas","orange","4","magnitude","switch","stay","2","","","",""
"522","89","poldrack-single-stim","341","379458","0.0-262.0","sub-11_1","","2000","0","stim","","<div class = upperbox><div class = ""center-text"" >Haut-Bas</div></div><div class = lowerbox><div class = ""stim-text"" style=color:orange;>4</div>","89,71","1000","test","Haut-Bas","orange","4","magnitude","switch","stay","2","true","89","",""
"","","call-function","342","379459","0.0-263.0","sub-11_1","","","","set_stims","","","","","","","","","","","","","","","",""
"-1","-1","poldrack-single-stim","343","379565","0.0-264.0","sub-11_1","","100","0","cue","","<div class = upperbox><div class = ""center-text"" >Couleur</div></div><div class = lowerbox><div class = fixation>+</div></div>","none","100","test","Couleur","#1F45FC","1","color","switch","switch","3","","","",""
"540","89","poldrack-single-stim","344","382264","0.0-265.0","sub-11_1","","2680","0","stim","","<div class = upperbox><div class = ""center-text"" >Couleur</div></div><div class = lowerbox><div class = ""stim-text"" style=color:#1F45FC;>1</div>","89,71","1000","test","Couleur","#1F45FC","1","color","switch","switch","3","true","89","",""
"","","call-function","345","382264","0.0-266.0","sub-11_1","","","","set_stims","","","","","","","","","","","","","","","",""
"-1","-1","poldrack-single-stim","346","382372","0.0-267.0","sub-11_1","","100","0","cue","","<div class = upperbox><div class = ""center-text"" >Amplitude</div></div><div class = lowerbox><div class = fixation>+</div></div>","none","100","test","Amplitude","orange","9","magnitude","switch","switch","4","","","",""
"651","71","poldrack-single-stim","347","384381","0.0-268.0","sub-11_1","","2000","0","stim","","<div class = upperbox><div class = ""center-text"" >Amplitude</div></div><div class = lowerbox><div class = ""stim-text"" style=color:orange;>9</div>","89,71","1000","test","Amplitude","orange","9","magnitude","switch","switch","4","true","71","",""
"","","call-function","348","384382","0.0-269.0","sub-11_1","","","","set_stims","","","","","","","","","","","","","","","",""
"-1","-1","poldrack-single-stim","349","385288","0.0-270.0","sub-11_1","","900","0","cue","","<div class = upperbox><div class = ""center-text"" >Amplitude</div></div><div class = lowerbox><div class = fixation>+</div></div>","none","900","test","Amplitude","#1F45FC","1","magnitude","stay","stay","5","","","",""
"501","89","poldrack-single-stim","350","387567","0.0-271.0","sub-11_1","","2272","0","stim","","<div class = upperbox><div class = ""center-text"" >Amplitude</div></div><div class = lowerbox><div class = ""stim-text"" style=color:#1F45FC;>1</div>","89,71","1000","test","Amplitude","#1F45FC","1","magnitude","stay","stay","5","true","89","",""
"","","call-function","351","387567","0.0-272.0","sub-11_1","","","","set_stims","","","","","","","","","","","","","","","",""
"-1","-1","poldrack-single-stim","352","388480","0.0-273.0","sub-11_1","","900","0","cue","","<div class = upperbox><div class = ""center-text"" >Haut-Bas</div></div><div class = lowerbox><div class = fixation>+</div></div>","none","900","test","Haut-Bas","orange","2","magnitude","stay","switch","6","","","",""
"453","89","poldrack-single-stim","353","390496","0.0-274.0","sub-11_1","","2000","0","stim","","<div class = upperbox><div class = ""center-text"" >Haut-Bas</div></div><div class = lowerbox><div class = ""stim-text"" style=color:orange;>2</div>","89,71","1000","test","Haut-Bas","orange","2","magnitude","stay","switch","6","true","89","",""
"","","call-function","354","390496","0.0-275.0","sub-11_1","","","","set_stims","","","","","","","","","","","","","","","",""
"-1","-1","poldrack-single-stim","355","391418","0.0-276.0","sub-11_1","","900","0","cue","","<div class = upperbox><div class = ""center-text"" >Amplitude</div></div><div class = lowerbox><div class = fixation>+</div></div>","none","900","test","Amplitude","#1F45FC","1","magnitude","stay","switch","7","","","",""
"420","89","poldrack-single-stim","356","393704","0.0-277.0","sub-11_1","","2272","0","stim","","<div class = upperbox><div class = ""center-text"" >Amplitude</div></div><div class = lowerbox><div class = ""stim-text"" style=color:#1F45FC;>1</div>","89,71","1000","test","Amplitude","#1F45FC","1","magnitude","stay","switch","7","true","89","",""
"","","call-function","357","393705","0.0-278.0","sub-11_1","","","","set_stims","","","","","","","","","","","","","","","",""
"-1","-1","poldrack-single-stim","358","394613","0.0-279.0","sub-11_1","","900","0","cue","","<div class = upperbox><div class = ""center-text"" >Orange-Bleu</div></div><div class = lowerbox><div class = fixation>+</div></div>","none","900","test","Orange-Bleu","orange","8","color","switch","switch","8","","","",""
"475","71","poldrack-single-stim","359","397569","0.0-280.0","sub-11_1","","2952","0","stim","","<div class = upperbox><div class = ""center-text"" >Orange-Bleu</div></div><div class = lowerbox><div class = ""stim-text"" style=color:orange;>8</div>","89,71","1000","test","Orange-Bleu","orange","8","color","switch","switch","8","true","71","",""
"","","call-function","360","397570","0.0-281.0","sub-11_1","","","","set_stims","","","","","","","","","","","","","","","",""
"-1","-1","poldrack-single-stim","361","398476","0.0-282.0","sub-11_1","","900","0","cue","","<div class = upperbox><div class = ""center-text"" >Amplitude</div></div><div class = lowerbox><div class = fixation>+</div></div>","none","900","test","Amplitude","#1F45FC","9","magnitude","switch","switch","9","","","",""
"927","71","poldrack-single-stim","362","400482","0.0-283.0","sub-11_1","","2000","0","stim","","<div class = upperbox><div class = ""center-text"" >Amplitude</div></div><div class = lowerbox><div class = ""stim-text"" style=color:#1F45FC;>9</div>","89,71","1000","test","Amplitude","#1F45FC","9","magnitude","switch","switch","9","true","71","",""
"","","call-function","363","400484","0.0-284.0","sub-11_1","","","","set_stims","","","","","","","","","","","","","","","",""
"-1","-1","poldrack-single-stim","364","401394","0.0-285.0","sub-11_1","","900","0","cue","","<div class = upperbox><div class = ""center-text"" >Orange-Bleu</div></div><div class = lowerbox><div class = fixation>+</div></div>","none","900","test","Orange-Bleu","#1F45FC","8","color","switch","stay","10","","","",""
"413","89","poldrack-single-stim","365","403400","0.0-286.0","sub-11_1","","2000","0","stim","","<div class = upperbox><div class = ""center-text"" >Orange-Bleu</div></div><div class = lowerbox><div class = ""stim-text"" style=color:#1F45FC;>8</div>","89,71","1000","test","Orange-Bleu","#1F45FC","8","color","switch","stay","10","true","89","",""
"","","call-function","366","403401","0.0-287.0","sub-11_1","","","","set_stims","","","","","","","","","","","","","","","",""
"-1","-1","poldrack-single-stim","367","403508","0.0-288.0","sub-11_1","","100","0","cue","","<div class = upperbox><div class = ""center-text"" >Couleur</div></div><div class = lowerbox><div class = fixation>+</div></div>","none","100","test","Couleur","#1F45FC","2","color","stay","switch","11","","","",""
"949","89","poldrack-single-stim","368","405523","0.0-289.0","sub-11_1","","2000","0","stim","","<div class = upperbox><div class = ""center-text"" >Couleur</div></div><div class = lowerbox><div class = ""stim-text"" style=color:#1F45FC;>2</div>","89,71","1000","test","Couleur","#1F45FC","2","color","stay","switch","11","true","89","",""
"","","call-function","369","405524","0.0-290.0","sub-11_1","","","","set_stims","","","","","","","","","","","","","","","",""
"-1","-1","poldrack-single-stim","370","406434","0.0-291.0","sub-11_1","","900","0","cue","","<div class = upperbox><div class = ""center-text"" >Amplitude</div></div><div class = lowerbox><div class = fixation>+</div></div>","none","900","test","Amplitude","orange","3","magnitude","switch","stay","12","","","",""
"953","89","poldrack-single-stim","371","408448","0.0-292.0","sub-11_1","","2000","0","stim","","<div class = upperbox><div class = ""center-text"" >Amplitude</div></div><div class = lowerbox><div class = ""stim-text"" style=color:orange;>3</div>","89,71","1000","test","Amplitude","orange","3","magnitude","switch","stay","12","true","89","",""
"","","call-function","372","408449","0.0-293.0","sub-11_1","","","","set_stims","","","","","","","","","","","","","","","",""
"-1","-1","poldrack-single-stim","373","408557","0.0-294.0","sub-11_1","","100","0","cue","","<div class = upperbox><div class = ""center-text"" >Couleur</div></div><div class = lowerbox><div class = fixation>+</div></div>","none","100","test","Couleur","#1F45FC","1","color","switch","stay","13","","","",""
"567","89","poldrack-single-stim","374","410705","0.0-295.0","sub-11_1","","2136","0","stim","","<div class = upperbox><div class = ""center-text"" >Couleur</div></div><div class = lowerbox><div class = ""stim-text"" style=color:#1F45FC;>1</div>","89,71","1000","test","Couleur","#1F45FC","1","color","switch","stay","13","true","89","",""
"","","call-function","375","410706","0.0-296.0","sub-11_1","","","","set_stims","","","","","","","","","","","","","","","",""
"-1","-1","poldrack-single-stim","376","410812","0.0-297.0","sub-11_1","","100","0","cue","","<div class = upperbox><div class = ""center-text"" >Orange-Bleu</div></div><div class = lowerbox><div class = fixation>+</div></div>","none","100","test","Orange-Bleu","orange","4","color","stay","switch","14","","","",""
"1150","71","poldrack-single-stim","377","412815","0.0-298.0","sub-11_1","","2000","0","stim","","<div class = upperbox><div class = ""center-text"" >Orange-Bleu</div></div><div class = lowerbox><div class = ""stim-text"" style=color:orange;>4</div>","89,71","1000","test","Orange-Bleu","orange","4","color","stay","switch","14","true","71","",""
"","","call-function","378","412816","0.0-299.0","sub-11_1","","","","set_stims","","","","","","","","","","","","","","","",""
"-1","-1","poldrack-single-stim","379","412933","0.0-300.0","sub-11_1","","100","0","cue","","<div class = upperbox><div class = ""center-text"" >Amplitude</div></div><div class = lowerbox><div class = fixation>+</div></div>","none","100","test","Amplitude","#1F45FC","2","magnitude","switch","stay","15","","","",""
"706","89","poldrack-single-stim","380","414948","0.0-301.0","sub-11_1","","2000","0","stim","","<div class = upperbox><div class = ""center-text"" >Amplitude</div></div><div class = lowerbox><div class = ""stim-text"" style=color:#1F45FC;>2</div>","89,71","1000","test","Amplitude","#1F45FC","2","magnitude","switch","stay","15","true","89","",""
"","","call-function","381","414949","0.0-302.0","sub-11_1","","","","set_stims","","","","","","","","","","","","","","","",""
"-1","-1","poldrack-single-stim","382","415055","0.0-303.0","sub-11_1","","100","0","cue","","<div class = upperbox><div class = ""center-text"" >Haut-Bas</div></div><div class = lowerbox><div class = fixation>+</div></div>","none","100","test","Haut-Bas","#1F45FC","1","magnitude","stay","switch","16","","","",""
"861","89","poldrack-single-stim","383","417059","0.0-304.0","sub-11_1","","2000","0","stim","","<div class = upperbox><div class = ""center-text"" >Haut-Bas</div></div><div class = lowerbox><div class = ""stim-text"" style=color:#1F45FC;>1</div>","89,71","1000","test","Haut-Bas","#1F45FC","1","magnitude","stay","switch","16","true","89","",""
"","","call-function","384","417060","0.0-305.0","sub-11_1","","","","set_stims","","","","","","","","","","","","","","","",""
"-1","-1","poldrack-single-stim","385","417966","0.0-306.0","sub-11_1","","900","0","cue","","<div class = upperbox><div class = ""center-text"" >Couleur</div></div><div class = lowerbox><div class = fixation>+</div></div>","none","900","test","Couleur","#1F45FC","1","color","switch","stay","17","","","",""
