"rt","key_press","trial_type","trial_index","time_elapsed","internal_node_id","subject","text","block_duration","timing_post_trial","trial_id","responses","stimulus","possible_responses","stim_duration","exp_stage","condition","trial_num","correct_response","correct","exp_id"
"2299","13","text","0","2301","0.0-0.0","sub-06_sess-03_1","","","","","","","","","","","","","",""
"1352","89","poldrack-text","1","4669","0.0-1.0","sub-06_sess-03_1","<div class = centerbox><div style = 'font-size: 50px' class = center-text>Veuillez appuyer avec votre index</p></div>","1352","500","fmri_response_test","","","","","","","","","",""
"559","71","poldrack-text","2","5736","0.0-2.0","sub-06_sess-03_1","<div class = centerbox><div style = 'font-size: 50px' class = center-text>Veuillez appuyer avec votre majeur</p></div>","559","500","fmri_response_test","","","","","","","","","",""
"10258","","survey-text","3","16520","0.0-3.0","sub-06_sess-03_1","","","","task_setup","{""Q0"":""6"",""Q1"":""5""}","","","","","","","","",""
"5997","32","poldrack-single-stim","4","23536","0.0-4.0","sub-06_sess-03_1","","5997","500","instructions","","<div class = centerbox><p style = ""font-size:40px"" class = center-block-text>Paire cible (appuyez sur l'index):</p><p class = center-block-text><img src = ""/static/experiments/dot_pattern_expectancy/images/cue6.png"" ></img>&nbsp&nbsp&nbsp...suivi par...&nbsp&nbsp&nbsp<img src = ""/static/experiments/dot_pattern_expectancy/images/probe5.png"" ></img><br></br></p><p style = ""font-size:40px"" class = center-block-text>Sinon appuyez sur le majeur</div>","32","5997","","","","","",""
"-1","-1","poldrack-single-stim","5","24565","0.0-5.0-0.0","sub-06_sess-03_1","","500","0","cue","","<div class = centerbox><div class = img-container><img src = ""/static/experiments/dot_pattern_expectancy/images/cue5.png""</img></div></div>","none","500","practice","BY","0","","",""
"-1","-1","poldrack-single-stim","6","26583","0.0-5.0-1.0","sub-06_sess-03_1","","2000","0","fixation","","<div class = centerbox><div class = fixation>+</div></div>","none","2000","practice","","","","",""
"781","71","poldrack-single-stim","7","28104","0.0-5.0-2.0","sub-06_sess-03_1","","1500","0","probe","","<div class = centerbox><div class = img-container><img src = ""/static/experiments/dot_pattern_expectancy/images/probe3.png""</img></div></div>","89,71","500","practice","BY","0","71","true",""
"-1","-1","poldrack-single-stim","8","28613","0.0-5.0-3.0","sub-06_sess-03_1","","500","0","feedback","","<div class = centerbox><div style=""color:#4FE829""; class = center-text>Correct!</div></div>","none","500","practice","","1","","",""
"-1","-1","poldrack-single-stim","9","29134","0.0-5.0-4.0","sub-06_sess-03_1","","500","0","cue","","<div class = centerbox><div class = img-container><img src = ""/static/experiments/dot_pattern_expectancy/images/cue6.png""</img></div></div>","none","500","practice","AX","1","","",""
"-1","-1","poldrack-single-stim","10","31150","0.0-5.0-5.0","sub-06_sess-03_1","","2000","0","fixation","","<div class = centerbox><div class = fixation>+</div></div>","none","2000","practice","","","","",""
"479","89","poldrack-single-stim","11","33473","0.0-5.0-6.0","sub-06_sess-03_1","","2300","0","probe","","<div class = centerbox><div class = img-container><img src = ""/static/experiments/dot_pattern_expectancy/images/probe5.png""</img></div></div>","89,71","500","practice","AX","1","89","true",""
"-1","-1","poldrack-single-stim","12","33994","0.0-5.0-7.0","sub-06_sess-03_1","","500","0","feedback","","<div class = centerbox><div style=""color:#4FE829""; class = center-text>Correct!</div></div>","none","500","practice","","2","","",""
"-1","-1","poldrack-single-stim","13","34514","0.0-5.0-8.0","sub-06_sess-03_1","","500","0","cue","","<div class = centerbox><div class = img-container><img src = ""/static/experiments/dot_pattern_expectancy/images/cue6.png""</img></div></div>","none","500","practice","AY","2","","",""
"-1","-1","poldrack-single-stim","14","36523","0.0-5.0-9.0","sub-06_sess-03_1","","2000","0","fixation","","<div class = centerbox><div class = fixation>+</div></div>","none","2000","practice","","","","",""
"669","71","poldrack-single-stim","15","38442","0.0-5.0-10.0","sub-06_sess-03_1","","1900","0","probe","","<div class = centerbox><div class = img-container><img src = ""/static/experiments/dot_pattern_expectancy/images/probe3.png""</img></div></div>","89,71","500","practice","AY","2","71","true",""
"-1","-1","poldrack-single-stim","16","38964","0.0-5.0-11.0","sub-06_sess-03_1","","500","0","feedback","","<div class = centerbox><div style=""color:#4FE829""; class = center-text>Correct!</div></div>","none","500","practice","","3","","",""
"-1","-1","poldrack-single-stim","17","39483","0.0-5.0-12.0","sub-06_sess-03_1","","500","0","cue","","<div class = centerbox><div class = img-container><img src = ""/static/experiments/dot_pattern_expectancy/images/cue6.png""</img></div></div>","none","500","practice","AX","3","","",""
"-1","-1","poldrack-single-stim","18","41505","0.0-5.0-13.0","sub-06_sess-03_1","","2000","0","fixation","","<div class = centerbox><div class = fixation>+</div></div>","none","2000","practice","","","","",""
"677","89","poldrack-single-stim","19","43224","0.0-5.0-14.0","sub-06_sess-03_1","","1700","0","probe","","<div class = centerbox><div class = img-container><img src = ""/static/experiments/dot_pattern_expectancy/images/probe5.png""</img></div></div>","89,71","500","practice","AX","3","89","true",""
"-1","-1","poldrack-single-stim","20","43744","0.0-5.0-15.0","sub-06_sess-03_1","","500","0","feedback","","<div class = centerbox><div style=""color:#4FE829""; class = center-text>Correct!</div></div>","none","500","practice","","4","","",""
"-1","-1","poldrack-single-stim","21","44265","0.0-5.0-16.0","sub-06_sess-03_1","","500","0","cue","","<div class = centerbox><div class = img-container><img src = ""/static/experiments/dot_pattern_expectancy/images/cue3.png""</img></div></div>","none","500","practice","BY","4","","",""
"-1","-1","poldrack-single-stim","22","46284","0.0-5.0-17.0","sub-06_sess-03_1","","2000","0","fixation","","<div class = centerbox><div class = fixation>+</div></div>","none","2000","practice","","","","",""
"431","71","poldrack-single-stim","23","47803","0.0-5.0-18.0","sub-06_sess-03_1","","1500","0","probe","","<div class = centerbox><div class = img-container><img src = ""/static/experiments/dot_pattern_expectancy/images/probe2.png""</img></div></div>","89,71","500","practice","BY","4","71","true",""
"-1","-1","poldrack-single-stim","24","48323","0.0-5.0-19.0","sub-06_sess-03_1","","500","0","feedback","","<div class = centerbox><div style=""color:#4FE829""; class = center-text>Correct!</div></div>","none","500","practice","","5","","",""
"-1","-1","poldrack-single-stim","25","48843","0.0-5.0-20.0","sub-06_sess-03_1","","500","0","cue","","<div class = centerbox><div class = img-container><img src = ""/static/experiments/dot_pattern_expectancy/images/cue4.png""</img></div></div>","none","500","practice","BX","5","","",""
"-1","-1","poldrack-single-stim","26","50864","0.0-5.0-21.0","sub-06_sess-03_1","","2000","0","fixation","","<div class = centerbox><div class = fixation>+</div></div>","none","2000","practice","","","","",""
"411","71","poldrack-single-stim","27","52383","0.0-5.0-22.0","sub-06_sess-03_1","","1500","0","probe","","<div class = centerbox><div class = img-container><img src = ""/static/experiments/dot_pattern_expectancy/images/probe5.png""</img></div></div>","89,71","500","practice","BX","5","71","true",""
"-1","-1","poldrack-single-stim","28","52902","0.0-5.0-23.0","sub-06_sess-03_1","","500","0","feedback","","<div class = centerbox><div style=""color:#4FE829""; class = center-text>Correct!</div></div>","none","500","practice","","6","","",""
"-1","-1","poldrack-single-stim","29","53423","0.0-5.0-24.0","sub-06_sess-03_1","","500","0","cue","","<div class = centerbox><div class = img-container><img src = ""/static/experiments/dot_pattern_expectancy/images/cue6.png""</img></div></div>","none","500","practice","AY","6","","",""
"-1","-1","poldrack-single-stim","30","55444","0.0-5.0-25.0","sub-06_sess-03_1","","2000","0","fixation","","<div class = centerbox><div class = fixation>+</div></div>","none","2000","practice","","","","",""
"1013","71","poldrack-single-stim","31","56963","0.0-5.0-26.0","sub-06_sess-03_1","","1500","0","probe","","<div class = centerbox><div class = img-container><img src = ""/static/experiments/dot_pattern_expectancy/images/probe1.png""</img></div></div>","89,71","500","practice","AY","6","71","true",""
"-1","-1","poldrack-single-stim","32","57483","0.0-5.0-27.0","sub-06_sess-03_1","","500","0","feedback","","<div class = centerbox><div style=""color:#4FE829""; class = center-text>Correct!</div></div>","none","500","practice","","7","","",""
"-1","-1","poldrack-single-stim","33","58003","0.0-5.0-28.0","sub-06_sess-03_1","","500","0","cue","","<div class = centerbox><div class = img-container><img src = ""/static/experiments/dot_pattern_expectancy/images/cue6.png""</img></div></div>","none","500","practice","AX","7","","",""
"-1","-1","poldrack-single-stim","34","60024","0.0-5.0-29.0","sub-06_sess-03_1","","2000","0","fixation","","<div class = centerbox><div class = fixation>+</div></div>","none","2000","practice","","","","",""
"802","89","poldrack-single-stim","35","62542","0.0-5.0-30.0","sub-06_sess-03_1","","2500","0","probe","","<div class = centerbox><div class = img-container><img src = ""/static/experiments/dot_pattern_expectancy/images/probe5.png""</img></div></div>","89,71","500","practice","AX","7","89","true",""
"-1","-1","poldrack-single-stim","36","63063","0.0-5.0-31.0","sub-06_sess-03_1","","500","0","feedback","","<div class = centerbox><div style=""color:#4FE829""; class = center-text>Correct!</div></div>","none","500","practice","","8","","",""
"-1","-1","poldrack-single-stim","37","63583","0.0-5.0-32.0","sub-06_sess-03_1","","500","0","cue","","<div class = centerbox><div class = img-container><img src = ""/static/experiments/dot_pattern_expectancy/images/cue6.png""</img></div></div>","none","500","practice","AX","8","","",""
"-1","-1","poldrack-single-stim","38","65595","0.0-5.0-33.0","sub-06_sess-03_1","","2000","0","fixation","","<div class = centerbox><div class = fixation>+</div></div>","none","2000","practice","","","","",""
"866","89","poldrack-single-stim","39","67713","0.0-5.0-34.0","sub-06_sess-03_1","","2100","0","probe","","<div class = centerbox><div class = img-container><img src = ""/static/experiments/dot_pattern_expectancy/images/probe5.png""</img></div></div>","89,71","500","practice","AX","8","89","true",""
"-1","-1","poldrack-single-stim","40","68235","0.0-5.0-35.0","sub-06_sess-03_1","","500","0","feedback","","<div class = centerbox><div style=""color:#4FE829""; class = center-text>Correct!</div></div>","none","500","practice","","9","","",""
"-1","-1","poldrack-single-stim","41","68755","0.0-5.0-36.0","sub-06_sess-03_1","","500","0","cue","","<div class = centerbox><div class = img-container><img src = ""/static/experiments/dot_pattern_expectancy/images/cue5.png""</img></div></div>","none","500","practice","BX","9","","",""
"-1","-1","poldrack-single-stim","42","70772","0.0-5.0-37.0","sub-06_sess-03_1","","2000","0","fixation","","<div class = centerbox><div class = fixation>+</div></div>","none","2000","practice","","","","",""
"666","71","poldrack-single-stim","43","72282","0.0-5.0-38.0","sub-06_sess-03_1","","1500","0","probe","","<div class = centerbox><div class = img-container><img src = ""/static/experiments/dot_pattern_expectancy/images/probe5.png""</img></div></div>","89,71","500","practice","BX","9","71","true",""
"-1","-1","poldrack-single-stim","44","72805","0.0-5.0-39.0","sub-06_sess-03_1","","500","0","feedback","","<div class = centerbox><div style=""color:#4FE829""; class = center-text>Correct!</div></div>","none","500","practice","","10","","",""
"151950","32","poldrack-text","45","224762","0.0-6.0","sub-06_sess-03_1","<div class = centerbox><div  class = center-text>Scanner Setup</div></div>","151950","0","fmri_scanner_wait","","","","","","","","","",""
"58272","84","poldrack-text","46","283037","0.0-7.0","sub-06_sess-03_1","<div class = centerbox><div style='color:red'; class = center-text>+</div></div>","58272","0","fmri_trigger_wait","","","","","","","","","",""
"-1","-1","poldrack-single-stim","47","284054","0.0-8.0","sub-06_sess-03_1","","1000","0","fmri_buffer","","","none","1000","","","","","",""
"-1","-1","poldrack-single-stim","48","285575","0.0-9.0","sub-06_sess-03_1","","1500","500","test_start_block","","<div class = centerbox><div class = center-text>Preparez-vous!</p></div>","none","1500","","","","","",""
"-1","-1","poldrack-single-stim","49","286614","0.0-10.0","sub-06_sess-03_1","","500","0","cue","","<div class = centerbox><div class = img-container><img src = ""/static/experiments/dot_pattern_expectancy/images/cue4.png""</img></div></div>","none","500","test","BY","0","","",""
"-1","-1","poldrack-single-stim","50","288635","0.0-11.0","sub-06_sess-03_1","","2000","0","fixation","","<div class = centerbox><div class = fixation>+</div></div>","none","2000","test","","","","",""
"589","71","poldrack-single-stim","51","290292","0.0-12.0","sub-06_sess-03_1","","1636","0","probe","","<div class = centerbox><div class = img-container><img src = ""/static/experiments/dot_pattern_expectancy/images/probe2.png""</img></div></div>","89,71","500","test","BY","0","71","true",""
"-1","-1","poldrack-single-stim","52","290814","0.0-13.0","sub-06_sess-03_1","","500","0","cue","","<div class = centerbox><div class = img-container><img src = ""/static/experiments/dot_pattern_expectancy/images/cue6.png""</img></div></div>","none","500","test","AY","1","","",""
"-1","-1","poldrack-single-stim","53","292832","0.0-14.0","sub-06_sess-03_1","","2000","0","fixation","","<div class = centerbox><div class = fixation>+</div></div>","none","2000","test","","","","",""
"574","71","poldrack-single-stim","54","294342","0.0-15.0","sub-06_sess-03_1","","1500","0","probe","","<div class = centerbox><div class = img-container><img src = ""/static/experiments/dot_pattern_expectancy/images/probe3.png""</img></div></div>","89,71","500","test","AY","1","71","true",""
"-1","-1","poldrack-single-stim","55","294863","0.0-16.0","sub-06_sess-03_1","","500","0","cue","","<div class = centerbox><div class = img-container><img src = ""/static/experiments/dot_pattern_expectancy/images/cue6.png""</img></div></div>","none","500","test","AX","2","","",""
"-1","-1","poldrack-single-stim","56","296872","0.0-17.0","sub-06_sess-03_1","","2000","0","fixation","","<div class = centerbox><div class = fixation>+</div></div>","none","2000","test","","","","",""
"381","89","poldrack-single-stim","57","298932","0.0-18.0","sub-06_sess-03_1","","2044","0","probe","","<div class = centerbox><div class = img-container><img src = ""/static/experiments/dot_pattern_expectancy/images/probe5.png""</img></div></div>","89,71","500","test","AX","2","89","true",""
"-1","-1","poldrack-single-stim","58","299453","0.0-19.0","sub-06_sess-03_1","","500","0","cue","","<div class = centerbox><div class = img-container><img src = ""/static/experiments/dot_pattern_expectancy/images/cue4.png""</img></div></div>","none","500","test","BY","3","","",""
"-1","-1","poldrack-single-stim","59","301473","0.0-20.0","sub-06_sess-03_1","","2000","0","fixation","","<div class = centerbox><div class = fixation>+</div></div>","none","2000","test","","","","",""
"354","71","poldrack-single-stim","60","303252","0.0-21.0","sub-06_sess-03_1","","1772","0","probe","","<div class = centerbox><div class = img-container><img src = ""/static/experiments/dot_pattern_expectancy/images/probe1.png""</img></div></div>","89,71","500","test","BY","3","71","true",""
"-1","-1","poldrack-single-stim","61","303773","0.0-22.0","sub-06_sess-03_1","","500","0","cue","","<div class = centerbox><div class = img-container><img src = ""/static/experiments/dot_pattern_expectancy/images/cue3.png""</img></div></div>","none","500","test","BX","4","","",""
"-1","-1","poldrack-single-stim","62","305793","0.0-23.0","sub-06_sess-03_1","","2000","0","fixation","","<div class = centerbox><div class = fixation>+</div></div>","none","2000","test","","","","",""
"520","71","poldrack-single-stim","63","307442","0.0-24.0","sub-06_sess-03_1","","1636","0","probe","","<div class = centerbox><div class = img-container><img src = ""/static/experiments/dot_pattern_expectancy/images/probe5.png""</img></div></div>","89,71","500","test","BX","4","71","true",""
"-1","-1","poldrack-single-stim","64","307962","0.0-25.0","sub-06_sess-03_1","","500","0","cue","","<div class = centerbox><div class = img-container><img src = ""/static/experiments/dot_pattern_expectancy/images/cue6.png""</img></div></div>","none","500","test","AX","5","","",""
"-1","-1","poldrack-single-stim","65","309983","0.0-26.0","sub-06_sess-03_1","","2000","0","fixation","","<div class = centerbox><div class = fixation>+</div></div>","none","2000","test","","","","",""
"476","89","poldrack-single-stim","66","311642","0.0-27.0","sub-06_sess-03_1","","1636","0","probe","","<div class = centerbox><div class = img-container><img src = ""/static/experiments/dot_pattern_expectancy/images/probe5.png""</img></div></div>","89,71","500","test","AX","5","89","true",""
"-1","-1","poldrack-single-stim","67","312163","0.0-28.0","sub-06_sess-03_1","","500","0","cue","","<div class = centerbox><div class = img-container><img src = ""/static/experiments/dot_pattern_expectancy/images/cue6.png""</img></div></div>","none","500","test","AX","6","","",""
"-1","-1","poldrack-single-stim","68","314183","0.0-29.0","sub-06_sess-03_1","","2000","0","fixation","","<div class = centerbox><div class = fixation>+</div></div>","none","2000","test","","","","",""
"427","89","poldrack-single-stim","69","315701","0.0-30.0","sub-06_sess-03_1","","1500","0","probe","","<div class = centerbox><div class = img-container><img src = ""/static/experiments/dot_pattern_expectancy/images/probe5.png""</img></div></div>","89,71","500","test","AX","6","89","true",""
"-1","-1","poldrack-single-stim","70","316222","0.0-31.0","sub-06_sess-03_1","","500","0","cue","","<div class = centerbox><div class = img-container><img src = ""/static/experiments/dot_pattern_expectancy/images/cue6.png""</img></div></div>","none","500","test","AX","7","","",""
"-1","-1","poldrack-single-stim","71","318242","0.0-32.0","sub-06_sess-03_1","","2000","0","fixation","","<div class = centerbox><div class = fixation>+</div></div>","none","2000","test","","","","",""
"516","89","poldrack-single-stim","72","319762","0.0-33.0","sub-06_sess-03_1","","1500","0","probe","","<div class = centerbox><div class = img-container><img src = ""/static/experiments/dot_pattern_expectancy/images/probe5.png""</img></div></div>","89,71","500","test","AX","7","89","true",""
"-1","-1","poldrack-single-stim","73","320283","0.0-34.0","sub-06_sess-03_1","","500","0","cue","","<div class = centerbox><div class = img-container><img src = ""/static/experiments/dot_pattern_expectancy/images/cue6.png""</img></div></div>","none","500","test","AY","8","","",""
"-1","-1","poldrack-single-stim","74","322304","0.0-35.0","sub-06_sess-03_1","","2000","0","fixation","","<div class = centerbox><div class = fixation>+</div></div>","none","2000","test","","","","",""
"725","71","poldrack-single-stim","75","324362","0.0-36.0","sub-06_sess-03_1","","2044","0","probe","","<div class = centerbox><div class = img-container><img src = ""/static/experiments/dot_pattern_expectancy/images/probe4.png""</img></div></div>","89,71","500","test","AY","8","71","true",""
"-1","-1","poldrack-single-stim","76","324883","0.0-37.0","sub-06_sess-03_1","","500","0","cue","","<div class = centerbox><div class = img-container><img src = ""/static/experiments/dot_pattern_expectancy/images/cue6.png""</img></div></div>","none","500","test","AX","9","","",""
"-1","-1","poldrack-single-stim","77","326903","0.0-38.0","sub-06_sess-03_1","","2000","0","fixation","","<div class = centerbox><div class = fixation>+</div></div>","none","2000","test","","","","",""
"599","89","poldrack-single-stim","78","329361","0.0-39.0","sub-06_sess-03_1","","2452","0","probe","","<div class = centerbox><div class = img-container><img src = ""/static/experiments/dot_pattern_expectancy/images/probe5.png""</img></div></div>","89,71","500","test","AX","9","89","true",""
"-1","-1","poldrack-single-stim","79","329882","0.0-40.0","sub-06_sess-03_1","","500","0","cue","","<div class = centerbox><div class = img-container><img src = ""/static/experiments/dot_pattern_expectancy/images/cue6.png""</img></div></div>","none","500","test","AX","10","","",""
"-1","-1","poldrack-single-stim","80","331902","0.0-41.0","sub-06_sess-03_1","","2000","0","fixation","","<div class = centerbox><div class = fixation>+</div></div>","none","2000","test","","","","",""
"441","89","poldrack-single-stim","81","333821","0.0-42.0","sub-06_sess-03_1","","1908","0","probe","","<div class = centerbox><div class = img-container><img src = ""/static/experiments/dot_pattern_expectancy/images/probe5.png""</img></div></div>","89,71","500","test","AX","10","89","true",""
"-1","-1","poldrack-single-stim","82","334343","0.0-43.0","sub-06_sess-03_1","","500","0","cue","","<div class = centerbox><div class = img-container><img src = ""/static/experiments/dot_pattern_expectancy/images/cue6.png""</img></div></div>","none","500","test","AX","11","","",""
"-1","-1","poldrack-single-stim","83","336364","0.0-44.0","sub-06_sess-03_1","","2000","0","fixation","","<div class = centerbox><div class = fixation>+</div></div>","none","2000","test","","","","",""
"349","89","poldrack-single-stim","84","337872","0.0-45.0","sub-06_sess-03_1","","1500","0","probe","","<div class = centerbox><div class = img-container><img src = ""/static/experiments/dot_pattern_expectancy/images/probe5.png""</img></div></div>","89,71","500","test","AX","11","89","true",""
"-1","-1","poldrack-single-stim","85","338383","0.0-46.0","sub-06_sess-03_1","","500","0","cue","","<div class = centerbox><div class = img-container><img src = ""/static/experiments/dot_pattern_expectancy/images/cue6.png""</img></div></div>","none","500","test","AX","12","","",""
"-1","-1","poldrack-single-stim","86","340393","0.0-47.0","sub-06_sess-03_1","","2000","0","fixation","","<div class = centerbox><div class = fixation>+</div></div>","none","2000","test","","","","",""
"431","89","poldrack-single-stim","87","342322","0.0-48.0","sub-06_sess-03_1","","1908","0","probe","","<div class = centerbox><div class = img-container><img src = ""/static/experiments/dot_pattern_expectancy/images/probe5.png""</img></div></div>","89,71","500","test","AX","12","89","true",""
"-1","-1","poldrack-single-stim","88","342844","0.0-49.0","sub-06_sess-03_1","","500","0","cue","","<div class = centerbox><div class = img-container><img src = ""/static/experiments/dot_pattern_expectancy/images/cue2.png""</img></div></div>","none","500","test","BX","13","","",""
"-1","-1","poldrack-single-stim","89","344863","0.0-50.0","sub-06_sess-03_1","","2000","0","fixation","","<div class = centerbox><div class = fixation>+</div></div>","none","2000","test","","","","",""
"359","71","poldrack-single-stim","90","347051","0.0-51.0","sub-06_sess-03_1","","2180","0","probe","","<div class = centerbox><div class = img-container><img src = ""/static/experiments/dot_pattern_expectancy/images/probe5.png""</img></div></div>","89,71","500","test","BX","13","71","true",""
"-1","-1","poldrack-single-stim","91","347572","0.0-52.0","sub-06_sess-03_1","","500","0","cue","","<div class = centerbox><div class = img-container><img src = ""/static/experiments/dot_pattern_expectancy/images/cue6.png""</img></div></div>","none","500","test","AX","14","","",""
"-1","-1","poldrack-single-stim","92","349593","0.0-53.0","sub-06_sess-03_1","","2000","0","fixation","","<div class = centerbox><div class = fixation>+</div></div>","none","2000","test","","","","",""
"409","89","poldrack-single-stim","93","351112","0.0-54.0","sub-06_sess-03_1","","1500","0","probe","","<div class = centerbox><div class = img-container><img src = ""/static/experiments/dot_pattern_expectancy/images/probe5.png""</img></div></div>","89,71","500","test","AX","14","89","true",""
"-1","-1","poldrack-single-stim","94","351630","0.0-55.0","sub-06_sess-03_1","","500","0","cue","","<div class = centerbox><div class = img-container><img src = ""/static/experiments/dot_pattern_expectancy/images/cue2.png""</img></div></div>","none","500","test","BY","15","","",""
"-1","-1","poldrack-single-stim","95","353654","0.0-56.0","sub-06_sess-03_1","","2000","0","fixation","","<div class = centerbox><div class = fixation>+</div></div>","none","2000","test","","","","",""
"361","71","poldrack-single-stim","96","355583","0.0-57.0","sub-06_sess-03_1","","1908","0","probe","","<div class = centerbox><div class = img-container><img src = ""/static/experiments/dot_pattern_expectancy/images/probe3.png""</img></div></div>","89,71","500","test","BY","15","71","true",""
"-1","-1","poldrack-single-stim","97","356093","0.0-58.0","sub-06_sess-03_1","","500","0","cue","","<div class = centerbox><div class = img-container><img src = ""/static/experiments/dot_pattern_expectancy/images/cue1.png""</img></div></div>","none","500","test","BX","16","","",""
"-1","-1","poldrack-single-stim","98","358113","0.0-59.0","sub-06_sess-03_1","","2000","0","fixation","","<div class = centerbox><div class = fixation>+</div></div>","none","2000","test","","","","",""
"479","71","poldrack-single-stim","99","360452","0.0-60.0","sub-06_sess-03_1","","2316","0","probe","","<div class = centerbox><div class = img-container><img src = ""/static/experiments/dot_pattern_expectancy/images/probe5.png""</img></div></div>","89,71","500","test","BX","16","71","true",""
"-1","-1","poldrack-single-stim","100","360972","0.0-61.0","sub-06_sess-03_1","","500","0","cue","","<div class = centerbox><div class = img-container><img src = ""/static/experiments/dot_pattern_expectancy/images/cue6.png""</img></div></div>","none","500","test","AY","17","","",""
"-1","-1","poldrack-single-stim","101","362982","0.0-62.0","sub-06_sess-03_1","","2000","0","fixation","","<div class = centerbox><div class = fixation>+</div></div>","none","2000","test","","","","",""
"563","71","poldrack-single-stim","102","365303","0.0-63.0","sub-06_sess-03_1","","2316","0","probe","","<div class = centerbox><div class = img-container><img src = ""/static/experiments/dot_pattern_expectancy/images/probe4.png""</img></div></div>","89,71","500","test","AY","17","71","true",""
"-1","-1","poldrack-single-stim","103","365822","0.0-64.0","sub-06_sess-03_1","","500","0","cue","","<div class = centerbox><div class = img-container><img src = ""/static/experiments/dot_pattern_expectancy/images/cue2.png""</img></div></div>","none","500","test","BX","18","","",""
"-1","-1","poldrack-single-stim","104","367833","0.0-65.0","sub-06_sess-03_1","","2000","0","fixation","","<div class = centerbox><div class = fixation>+</div></div>","none","2000","test","","","","",""
"595","71","poldrack-single-stim","105","369491","0.0-66.0","sub-06_sess-03_1","","1636","0","probe","","<div class = centerbox><div class = img-container><img src = ""/static/experiments/dot_pattern_expectancy/images/probe5.png""</img></div></div>","89,71","500","test","BX","18","71","true",""
"-1","-1","poldrack-single-stim","106","370013","0.0-67.0","sub-06_sess-03_1","","500","0","cue","","<div class = centerbox><div class = img-container><img src = ""/static/experiments/dot_pattern_expectancy/images/cue6.png""</img></div></div>","none","500","test","AY","19","","",""
"-1","-1","poldrack-single-stim","107","372033","0.0-68.0","sub-06_sess-03_1","","2000","0","fixation","","<div class = centerbox><div class = fixation>+</div></div>","none","2000","test","","","","",""
"534","71","poldrack-single-stim","108","373553","0.0-69.0","sub-06_sess-03_1","","1500","0","probe","","<div class = centerbox><div class = img-container><img src = ""/static/experiments/dot_pattern_expectancy/images/probe6.png""</img></div></div>","89,71","500","test","AY","19","71","true",""
"-1","-1","poldrack-single-stim","109","374072","0.0-70.0","sub-06_sess-03_1","","500","0","cue","","<div class = centerbox><div class = img-container><img src = ""/static/experiments/dot_pattern_expectancy/images/cue2.png""</img></div></div>","none","500","test","BY","20","","",""
"-1","-1","poldrack-single-stim","110","376093","0.0-71.0","sub-06_sess-03_1","","2000","0","fixation","","<div class = centerbox><div class = fixation>+</div></div>","none","2000","test","","","","",""
"530","71","poldrack-single-stim","111","378020","0.0-72.0","sub-06_sess-03_1","","1908","0","probe","","<div class = centerbox><div class = img-container><img src = ""/static/experiments/dot_pattern_expectancy/images/probe4.png""</img></div></div>","89,71","500","test","BY","20","71","true",""
"-1","-1","poldrack-single-stim","112","378542","0.0-73.0","sub-06_sess-03_1","","500","0","cue","","<div class = centerbox><div class = img-container><img src = ""/static/experiments/dot_pattern_expectancy/images/cue6.png""</img></div></div>","none","500","test","AX","21","","",""
"-1","-1","poldrack-single-stim","113","380563","0.0-74.0","sub-06_sess-03_1","","2000","0","fixation","","<div class = centerbox><div class = fixation>+</div></div>","none","2000","test","","","","",""
"455","89","poldrack-single-stim","114","382072","0.0-75.0","sub-06_sess-03_1","","1500","0","probe","","<div class = centerbox><div class = img-container><img src = ""/static/experiments/dot_pattern_expectancy/images/probe5.png""</img></div></div>","89,71","500","test","AX","21","89","true",""
"-1","-1","poldrack-single-stim","115","382583","0.0-76.0","sub-06_sess-03_1","","500","0","cue","","<div class = centerbox><div class = img-container><img src = ""/static/experiments/dot_pattern_expectancy/images/cue6.png""</img></div></div>","none","500","test","AY","22","","",""
"-1","-1","poldrack-single-stim","116","384603","0.0-77.0","sub-06_sess-03_1","","2000","0","fixation","","<div class = centerbox><div class = fixation>+</div></div>","none","2000","test","","","","",""
"472","71","poldrack-single-stim","117","386931","0.0-78.0","sub-06_sess-03_1","","2316","0","probe","","<div class = centerbox><div class = img-container><img src = ""/static/experiments/dot_pattern_expectancy/images/probe6.png""</img></div></div>","89,71","500","test","AY","22","71","true",""
"-1","-1","poldrack-single-stim","118","387451","0.0-79.0","sub-06_sess-03_1","","500","0","cue","","<div class = centerbox><div class = img-container><img src = ""/static/experiments/dot_pattern_expectancy/images/cue6.png""</img></div></div>","none","500","test","AX","23","","",""
"-1","-1","poldrack-single-stim","119","389474","0.0-80.0","sub-06_sess-03_1","","2000","0","fixation","","<div class = centerbox><div class = fixation>+</div></div>","none","2000","test","","","","",""
"398","89","poldrack-single-stim","120","390992","0.0-81.0","sub-06_sess-03_1","","1500","0","probe","","<div class = centerbox><div class = img-container><img src = ""/static/experiments/dot_pattern_expectancy/images/probe5.png""</img></div></div>","89,71","500","test","AX","23","89","true",""
"-1","-1","poldrack-single-stim","121","391512","0.0-82.0","sub-06_sess-03_1","","500","0","cue","","<div class = centerbox><div class = img-container><img src = ""/static/experiments/dot_pattern_expectancy/images/cue6.png""</img></div></div>","none","500","test","AY","24","","",""
"-1","-1","poldrack-single-stim","122","393533","0.0-83.0","sub-06_sess-03_1","","2000","0","fixation","","<div class = centerbox><div class = fixation>+</div></div>","none","2000","test","","","","",""
"518","71","poldrack-single-stim","123","396272","0.0-84.0","sub-06_sess-03_1","","2724","0","probe","","<div class = centerbox><div class = img-container><img src = ""/static/experiments/dot_pattern_expectancy/images/probe3.png""</img></div></div>","89,71","500","test","AY","24","71","true",""
"-1","-1","poldrack-single-stim","124","396792","0.0-85.0","sub-06_sess-03_1","","500","0","cue","","<div class = centerbox><div class = img-container><img src = ""/static/experiments/dot_pattern_expectancy/images/cue6.png""</img></div></div>","none","500","test","AX","25","","",""
"-1","-1","poldrack-single-stim","125","398856","0.0-86.0","sub-06_sess-03_1","","2000","0","fixation","","<div class = centerbox><div class = fixation>+</div></div>","none","2000","test","","","","",""
"360","89","poldrack-single-stim","126","400372","0.0-87.0","sub-06_sess-03_1","","1500","0","probe","","<div class = centerbox><div class = img-container><img src = ""/static/experiments/dot_pattern_expectancy/images/probe5.png""</img></div></div>","89,71","500","test","AX","25","89","true",""
"-1","-1","poldrack-single-stim","127","400891","0.0-88.0","sub-06_sess-03_1","","500","0","cue","","<div class = centerbox><div class = img-container><img src = ""/static/experiments/dot_pattern_expectancy/images/cue6.png""</img></div></div>","none","500","test","AX","26","","",""
"-1","-1","poldrack-single-stim","128","402913","0.0-89.0","sub-06_sess-03_1","","2000","0","fixation","","<div class = centerbox><div class = fixation>+</div></div>","none","2000","test","","","","",""
"457","89","poldrack-single-stim","129","404553","0.0-90.0","sub-06_sess-03_1","","1636","0","probe","","<div class = centerbox><div class = img-container><img src = ""/static/experiments/dot_pattern_expectancy/images/probe5.png""</img></div></div>","89,71","500","test","AX","26","89","true",""
"-1","-1","poldrack-single-stim","130","405073","0.0-91.0","sub-06_sess-03_1","","500","0","cue","","<div class = centerbox><div class = img-container><img src = ""/static/experiments/dot_pattern_expectancy/images/cue6.png""</img></div></div>","none","500","test","AX","27","","",""
"-1","-1","poldrack-single-stim","131","407093","0.0-92.0","sub-06_sess-03_1","","2000","0","fixation","","<div class = centerbox><div class = fixation>+</div></div>","none","2000","test","","","","",""
"470","89","poldrack-single-stim","132","408731","0.0-93.0","sub-06_sess-03_1","","1636","0","probe","","<div class = centerbox><div class = img-container><img src = ""/static/experiments/dot_pattern_expectancy/images/probe5.png""</img></div></div>","89,71","500","test","AX","27","89","true",""
"-1","-1","poldrack-single-stim","133","409252","0.0-94.0","sub-06_sess-03_1","","500","0","cue","","<div class = centerbox><div class = img-container><img src = ""/static/experiments/dot_pattern_expectancy/images/cue6.png""</img></div></div>","none","500","test","AX","28","","",""
"-1","-1","poldrack-single-stim","134","411273","0.0-95.0","sub-06_sess-03_1","","2000","0","fixation","","<div class = centerbox><div class = fixation>+</div></div>","none","2000","test","","","","",""
"436","89","poldrack-single-stim","135","413052","0.0-96.0","sub-06_sess-03_1","","1772","0","probe","","<div class = centerbox><div class = img-container><img src = ""/static/experiments/dot_pattern_expectancy/images/probe5.png""</img></div></div>","89,71","500","test","AX","28","89","true",""
"-1","-1","poldrack-single-stim","136","413572","0.0-97.0","sub-06_sess-03_1","","500","0","cue","","<div class = centerbox><div class = img-container><img src = ""/static/experiments/dot_pattern_expectancy/images/cue5.png""</img></div></div>","none","500","test","BY","29","","",""
"-1","-1","poldrack-single-stim","137","415593","0.0-98.0","sub-06_sess-03_1","","2000","0","fixation","","<div class = centerbox><div class = fixation>+</div></div>","none","2000","test","","","","",""
"497","71","poldrack-single-stim","138","417372","0.0-99.0","sub-06_sess-03_1","","1772","0","probe","","<div class = centerbox><div class = img-container><img src = ""/static/experiments/dot_pattern_expectancy/images/probe3.png""</img></div></div>","89,71","500","test","BY","29","71","true",""
"-1","-1","poldrack-single-stim","139","417892","0.0-100.0","sub-06_sess-03_1","","500","0","cue","","<div class = centerbox><div class = img-container><img src = ""/static/experiments/dot_pattern_expectancy/images/cue6.png""</img></div></div>","none","500","test","AX","30","","",""
"-1","-1","poldrack-single-stim","140","419912","0.0-101.0","sub-06_sess-03_1","","2000","0","fixation","","<div class = centerbox><div class = fixation>+</div></div>","none","2000","test","","","","",""
"659","89","poldrack-single-stim","141","421422","0.0-102.0","sub-06_sess-03_1","","1500","0","probe","","<div class = centerbox><div class = img-container><img src = ""/static/experiments/dot_pattern_expectancy/images/probe5.png""</img></div></div>","89,71","500","test","AX","30","89","true",""
"-1","-1","poldrack-single-stim","142","421944","0.0-103.0","sub-06_sess-03_1","","500","0","cue","","<div class = centerbox><div class = img-container><img src = ""/static/experiments/dot_pattern_expectancy/images/cue4.png""</img></div></div>","none","500","test","BY","31","","",""
"-1","-1","poldrack-single-stim","143","423953","0.0-104.0","sub-06_sess-03_1","","2000","0","fixation","","<div class = centerbox><div class = fixation>+</div></div>","none","2000","test","","","","",""
"340","71","poldrack-single-stim","144","426412","0.0-105.0","sub-06_sess-03_1","","2452","0","probe","","<div class = centerbox><div class = img-container><img src = ""/static/experiments/dot_pattern_expectancy/images/probe2.png""</img></div></div>","89,71","500","test","BY","31","71","true",""
"-1","-1","poldrack-single-stim","145","426933","0.0-106.0","sub-06_sess-03_1","","500","0","cue","","<div class = centerbox><div class = img-container><img src = ""/static/experiments/dot_pattern_expectancy/images/cue6.png""</img></div></div>","none","500","test","AX","32","","",""
"-1","-1","poldrack-single-stim","146","428952","0.0-107.0","sub-06_sess-03_1","","2000","0","fixation","","<div class = centerbox><div class = fixation>+</div></div>","none","2000","test","","","","",""
"415","89","poldrack-single-stim","147","430591","0.0-108.0","sub-06_sess-03_1","","1636","0","probe","","<div class = centerbox><div class = img-container><img src = ""/static/experiments/dot_pattern_expectancy/images/probe5.png""</img></div></div>","89,71","500","test","AX","32","89","true",""
"-1","-1","poldrack-single-stim","148","431112","0.0-109.0","sub-06_sess-03_1","","500","0","cue","","<div class = centerbox><div class = img-container><img src = ""/static/experiments/dot_pattern_expectancy/images/cue6.png""</img></div></div>","none","500","test","AX","33","","",""
"-1","-1","poldrack-single-stim","149","433133","0.0-110.0","sub-06_sess-03_1","","2000","0","fixation","","<div class = centerbox><div class = fixation>+</div></div>","none","2000","test","","","","",""
"467","89","poldrack-single-stim","150","434771","0.0-111.0","sub-06_sess-03_1","","1636","0","probe","","<div class = centerbox><div class = img-container><img src = ""/static/experiments/dot_pattern_expectancy/images/probe5.png""</img></div></div>","89,71","500","test","AX","33","89","true",""
"-1","-1","poldrack-single-stim","151","435293","0.0-112.0","sub-06_sess-03_1","","500","0","cue","","<div class = centerbox><div class = img-container><img src = ""/static/experiments/dot_pattern_expectancy/images/cue3.png""</img></div></div>","none","500","test","BX","34","","",""
"-1","-1","poldrack-single-stim","152","437312","0.0-113.0","sub-06_sess-03_1","","2000","0","fixation","","<div class = centerbox><div class = fixation>+</div></div>","none","2000","test","","","","",""
"242","71","poldrack-single-stim","153","438832","0.0-114.0","sub-06_sess-03_1","","1500","0","probe","","<div class = centerbox><div class = img-container><img src = ""/static/experiments/dot_pattern_expectancy/images/probe5.png""</img></div></div>","89,71","500","test","BX","34","71","true",""
"-1","-1","poldrack-single-stim","154","439353","0.0-115.0","sub-06_sess-03_1","","500","0","cue","","<div class = centerbox><div class = img-container><img src = ""/static/experiments/dot_pattern_expectancy/images/cue5.png""</img></div></div>","none","500","test","BX","35","","",""
"-1","-1","poldrack-single-stim","155","441372","0.0-116.0","sub-06_sess-03_1","","2000","0","fixation","","<div class = centerbox><div class = fixation>+</div></div>","none","2000","test","","","","",""
"310","71","poldrack-single-stim","156","442891","0.0-117.0","sub-06_sess-03_1","","1500","0","probe","","<div class = centerbox><div class = img-container><img src = ""/static/experiments/dot_pattern_expectancy/images/probe5.png""</img></div></div>","89,71","500","test","BX","35","71","true",""
"-1","-1","poldrack-single-stim","157","443413","0.0-118.0","sub-06_sess-03_1","","500","0","cue","","<div class = centerbox><div class = img-container><img src = ""/static/experiments/dot_pattern_expectancy/images/cue6.png""</img></div></div>","none","500","test","AX","36","","",""
"-1","-1","poldrack-single-stim","158","445421","0.0-119.0","sub-06_sess-03_1","","2000","0","fixation","","<div class = centerbox><div class = fixation>+</div></div>","none","2000","test","","","","",""
"434","89","poldrack-single-stim","159","447753","0.0-120.0","sub-06_sess-03_1","","2316","0","probe","","<div class = centerbox><div class = img-container><img src = ""/static/experiments/dot_pattern_expectancy/images/probe5.png""</img></div></div>","89,71","500","test","AX","36","89","true",""
"-1","-1","poldrack-single-stim","160","448272","0.0-121.0","sub-06_sess-03_1","","500","0","cue","","<div class = centerbox><div class = img-container><img src = ""/static/experiments/dot_pattern_expectancy/images/cue6.png""</img></div></div>","none","500","test","AY","37","","",""
"-1","-1","poldrack-single-stim","161","450281","0.0-122.0","sub-06_sess-03_1","","2000","0","fixation","","<div class = centerbox><div class = fixation>+</div></div>","none","2000","test","","","","",""
"722","71","poldrack-single-stim","162","452341","0.0-123.0","sub-06_sess-03_1","","2044","0","probe","","<div class = centerbox><div class = img-container><img src = ""/static/experiments/dot_pattern_expectancy/images/probe4.png""</img></div></div>","89,71","500","test","AY","37","71","true",""
"-1","-1","poldrack-single-stim","163","452862","0.0-124.0","sub-06_sess-03_1","","500","0","cue","","<div class = centerbox><div class = img-container><img src = ""/static/experiments/dot_pattern_expectancy/images/cue6.png""</img></div></div>","none","500","test","AX","38","","",""
"-1","-1","poldrack-single-stim","164","454873","0.0-125.0","sub-06_sess-03_1","","2000","0","fixation","","<div class = centerbox><div class = fixation>+</div></div>","none","2000","test","","","","",""
"389","89","poldrack-single-stim","165","458830","0.0-126.0","sub-06_sess-03_1","","3948","0","probe","","<div class = centerbox><div class = img-container><img src = ""/static/experiments/dot_pattern_expectancy/images/probe5.png""</img></div></div>","89,71","500","test","AX","38","89","true",""
"-1","-1","poldrack-single-stim","166","459352","0.0-127.0","sub-06_sess-03_1","","500","0","cue","","<div class = centerbox><div class = img-container><img src = ""/static/experiments/dot_pattern_expectancy/images/cue6.png""</img></div></div>","none","500","test","AX","39","","",""
"-1","-1","poldrack-single-stim","167","461373","0.0-128.0","sub-06_sess-03_1","","2000","0","fixation","","<div class = centerbox><div class = fixation>+</div></div>","none","2000","test","","","","",""
"470","89","poldrack-single-stim","168","463020","0.0-129.0","sub-06_sess-03_1","","1636","0","probe","","<div class = centerbox><div class = img-container><img src = ""/static/experiments/dot_pattern_expectancy/images/probe5.png""</img></div></div>","89,71","500","test","AX","39","89","true",""
"-1","-1","poldrack-single-stim","169","470541","0.0-130.0","sub-06_sess-03_1","","7500","1000","rest_block","","<div class = centerbox><div class = center-text>+</div></div>","none","7500","","","","","",""
"-1","-1","poldrack-single-stim","170","473082","0.0-131.0","sub-06_sess-03_1","","1500","500","test_start_block","","<div class = centerbox><div class = center-text>Preparez-vous!</p></div>","none","1500","","","","","",""
"-1","-1","poldrack-single-stim","171","474122","0.0-132.0","sub-06_sess-03_1","","500","0","cue","","<div class = centerbox><div class = img-container><img src = ""/static/experiments/dot_pattern_expectancy/images/cue6.png""</img></div></div>","none","500","test","AY","0","","",""
"-1","-1","poldrack-single-stim","172","476132","0.0-133.0","sub-06_sess-03_1","","2000","0","fixation","","<div class = centerbox><div class = fixation>+</div></div>","none","2000","test","","","","",""
"530","71","poldrack-single-stim","173","477771","0.0-134.0","sub-06_sess-03_1","","1636","0","probe","","<div class = centerbox><div class = img-container><img src = ""/static/experiments/dot_pattern_expectancy/images/probe2.png""</img></div></div>","89,71","500","test","AY","0","71","true",""
"-1","-1","poldrack-single-stim","174","478293","0.0-135.0","sub-06_sess-03_1","","500","0","cue","","<div class = centerbox><div class = img-container><img src = ""/static/experiments/dot_pattern_expectancy/images/cue6.png""</img></div></div>","none","500","test","AX","1","","",""
"-1","-1","poldrack-single-stim","175","480312","0.0-136.0","sub-06_sess-03_1","","2000","0","fixation","","<div class = centerbox><div class = fixation>+</div></div>","none","2000","test","","","","",""
"459","89","poldrack-single-stim","176","481951","0.0-137.0","sub-06_sess-03_1","","1636","0","probe","","<div class = centerbox><div class = img-container><img src = ""/static/experiments/dot_pattern_expectancy/images/probe5.png""</img></div></div>","89,71","500","test","AX","1","89","true",""
"-1","-1","poldrack-single-stim","177","482461","0.0-138.0","sub-06_sess-03_1","","500","0","cue","","<div class = centerbox><div class = img-container><img src = ""/static/experiments/dot_pattern_expectancy/images/cue6.png""</img></div></div>","none","500","test","AX","2","","",""
"-1","-1","poldrack-single-stim","178","484482","0.0-139.0","sub-06_sess-03_1","","2000","0","fixation","","<div class = centerbox><div class = fixation>+</div></div>","none","2000","test","","","","",""
"443","89","poldrack-single-stim","179","485991","0.0-140.0","sub-06_sess-03_1","","1500","0","probe","","<div class = centerbox><div class = img-container><img src = ""/static/experiments/dot_pattern_expectancy/images/probe5.png""</img></div></div>","89,71","500","test","AX","2","89","true",""
"-1","-1","poldrack-single-stim","180","486512","0.0-141.0","sub-06_sess-03_1","","500","0","cue","","<div class = centerbox><div class = img-container><img src = ""/static/experiments/dot_pattern_expectancy/images/cue6.png""</img></div></div>","none","500","test","AX","3","","",""
"-1","-1","poldrack-single-stim","181","488532","0.0-142.0","sub-06_sess-03_1","","2000","0","fixation","","<div class = centerbox><div class = fixation>+</div></div>","none","2000","test","","","","",""
"493","89","poldrack-single-stim","182","490044","0.0-143.0","sub-06_sess-03_1","","1500","0","probe","","<div class = centerbox><div class = img-container><img src = ""/static/experiments/dot_pattern_expectancy/images/probe5.png""</img></div></div>","89,71","500","test","AX","3","89","true",""
"-1","-1","poldrack-single-stim","183","490562","0.0-144.0","sub-06_sess-03_1","","500","0","cue","","<div class = centerbox><div class = img-container><img src = ""/static/experiments/dot_pattern_expectancy/images/cue6.png""</img></div></div>","none","500","test","AX","4","","",""
"-1","-1","poldrack-single-stim","184","492581","0.0-145.0","sub-06_sess-03_1","","2000","0","fixation","","<div class = centerbox><div class = fixation>+</div></div>","none","2000","test","","","","",""
"434","89","poldrack-single-stim","185","494512","0.0-146.0","sub-06_sess-03_1","","1908","0","probe","","<div class = centerbox><div class = img-container><img src = ""/static/experiments/dot_pattern_expectancy/images/probe5.png""</img></div></div>","89,71","500","test","AX","4","89","true",""
"-1","-1","poldrack-single-stim","186","495033","0.0-147.0","sub-06_sess-03_1","","500","0","cue","","<div class = centerbox><div class = img-container><img src = ""/static/experiments/dot_pattern_expectancy/images/cue1.png""</img></div></div>","none","500","test","BX","5","","",""
"-1","-1","poldrack-single-stim","187","497054","0.0-148.0","sub-06_sess-03_1","","2000","0","fixation","","<div class = centerbox><div class = fixation>+</div></div>","none","2000","test","","","","",""
"344","71","poldrack-single-stim","188","498711","0.0-149.0","sub-06_sess-03_1","","1636","0","probe","","<div class = centerbox><div class = img-container><img src = ""/static/experiments/dot_pattern_expectancy/images/probe5.png""</img></div></div>","89,71","500","test","BX","5","71","true",""
"-1","-1","poldrack-single-stim","189","499231","0.0-150.0","sub-06_sess-03_1","","500","0","cue","","<div class = centerbox><div class = img-container><img src = ""/static/experiments/dot_pattern_expectancy/images/cue6.png""</img></div></div>","none","500","test","AX","6","","",""
"-1","-1","poldrack-single-stim","190","501241","0.0-151.0","sub-06_sess-03_1","","2000","0","fixation","","<div class = centerbox><div class = fixation>+</div></div>","none","2000","test","","","","",""
"310","71","poldrack-single-stim","191","503301","0.0-152.0","sub-06_sess-03_1","","2044","0","probe","","<div class = centerbox><div class = img-container><img src = ""/static/experiments/dot_pattern_expectancy/images/probe5.png""</img></div></div>","89,71","500","test","AX","6","89","false",""
"-1","-1","poldrack-single-stim","192","503822","0.0-153.0","sub-06_sess-03_1","","500","0","cue","","<div class = centerbox><div class = img-container><img src = ""/static/experiments/dot_pattern_expectancy/images/cue6.png""</img></div></div>","none","500","test","AX","7","","",""
"-1","-1","poldrack-single-stim","193","505841","0.0-154.0","sub-06_sess-03_1","","2000","0","fixation","","<div class = centerbox><div class = fixation>+</div></div>","none","2000","test","","","","",""
"389","89","poldrack-single-stim","194","507632","0.0-155.0","sub-06_sess-03_1","","1772","0","probe","","<div class = centerbox><div class = img-container><img src = ""/static/experiments/dot_pattern_expectancy/images/probe5.png""</img></div></div>","89,71","500","test","AX","7","89","true",""
"-1","-1","poldrack-single-stim","195","508151","0.0-156.0","sub-06_sess-03_1","","500","0","cue","","<div class = centerbox><div class = img-container><img src = ""/static/experiments/dot_pattern_expectancy/images/cue6.png""</img></div></div>","none","500","test","AX","8","","",""
"-1","-1","poldrack-single-stim","196","510171","0.0-157.0","sub-06_sess-03_1","","2000","0","fixation","","<div class = centerbox><div class = fixation>+</div></div>","none","2000","test","","","","",""
"535","89","poldrack-single-stim","197","511681","0.0-158.0","sub-06_sess-03_1","","1500","0","probe","","<div class = centerbox><div class = img-container><img src = ""/static/experiments/dot_pattern_expectancy/images/probe5.png""</img></div></div>","89,71","500","test","AX","8","89","true",""
"-1","-1","poldrack-single-stim","198","512201","0.0-159.0","sub-06_sess-03_1","","500","0","cue","","<div class = centerbox><div class = img-container><img src = ""/static/experiments/dot_pattern_expectancy/images/cue6.png""</img></div></div>","none","500","test","AX","9","","",""
"-1","-1","poldrack-single-stim","199","514222","0.0-160.0","sub-06_sess-03_1","","2000","0","fixation","","<div class = centerbox><div class = fixation>+</div></div>","none","2000","test","","","","",""
"429","89","poldrack-single-stim","200","516420","0.0-161.0","sub-06_sess-03_1","","2180","0","probe","","<div class = centerbox><div class = img-container><img src = ""/static/experiments/dot_pattern_expectancy/images/probe5.png""</img></div></div>","89,71","500","test","AX","9","89","true",""
"-1","-1","poldrack-single-stim","201","516942","0.0-162.0","sub-06_sess-03_1","","500","0","cue","","<div class = centerbox><div class = img-container><img src = ""/static/experiments/dot_pattern_expectancy/images/cue6.png""</img></div></div>","none","500","test","AX","10","","",""
"-1","-1","poldrack-single-stim","202","518962","0.0-163.0","sub-06_sess-03_1","","2000","0","fixation","","<div class = centerbox><div class = fixation>+</div></div>","none","2000","test","","","","",""
"426","89","poldrack-single-stim","203","520481","0.0-164.0","sub-06_sess-03_1","","1500","0","probe","","<div class = centerbox><div class = img-container><img src = ""/static/experiments/dot_pattern_expectancy/images/probe5.png""</img></div></div>","89,71","500","test","AX","10","89","true",""
"-1","-1","poldrack-single-stim","204","521002","0.0-165.0","sub-06_sess-03_1","","500","0","cue","","<div class = centerbox><div class = img-container><img src = ""/static/experiments/dot_pattern_expectancy/images/cue2.png""</img></div></div>","none","500","test","BX","11","","",""
"-1","-1","poldrack-single-stim","205","523023","0.0-166.0","sub-06_sess-03_1","","2000","0","fixation","","<div class = centerbox><div class = fixation>+</div></div>","none","2000","test","","","","",""
"272","71","poldrack-single-stim","206","526721","0.0-167.0","sub-06_sess-03_1","","3676","0","probe","","<div class = centerbox><div class = img-container><img src = ""/static/experiments/dot_pattern_expectancy/images/probe5.png""</img></div></div>","89,71","500","test","BX","11","71","true",""
"-1","-1","poldrack-single-stim","207","527242","0.0-168.0","sub-06_sess-03_1","","500","0","cue","","<div class = centerbox><div class = img-container><img src = ""/static/experiments/dot_pattern_expectancy/images/cue4.png""</img></div></div>","none","500","test","BY","12","","",""
"-1","-1","poldrack-single-stim","208","529261","0.0-169.0","sub-06_sess-03_1","","2000","0","fixation","","<div class = centerbox><div class = fixation>+</div></div>","none","2000","test","","","","",""
"571","71","poldrack-single-stim","209","530901","0.0-170.0","sub-06_sess-03_1","","1636","0","probe","","<div class = centerbox><div class = img-container><img src = ""/static/experiments/dot_pattern_expectancy/images/probe4.png""</img></div></div>","89,71","500","test","BY","12","71","true",""
"-1","-1","poldrack-single-stim","210","531422","0.0-171.0","sub-06_sess-03_1","","500","0","cue","","<div class = centerbox><div class = img-container><img src = ""/static/experiments/dot_pattern_expectancy/images/cue4.png""</img></div></div>","none","500","test","BY","13","","",""
"-1","-1","poldrack-single-stim","211","533443","0.0-172.0","sub-06_sess-03_1","","2000","0","fixation","","<div class = centerbox><div class = fixation>+</div></div>","none","2000","test","","","","",""
"382","71","poldrack-single-stim","212","535092","0.0-173.0","sub-06_sess-03_1","","1636","0","probe","","<div class = centerbox><div class = img-container><img src = ""/static/experiments/dot_pattern_expectancy/images/probe1.png""</img></div></div>","89,71","500","test","BY","13","71","true",""
"-1","-1","poldrack-single-stim","213","535612","0.0-174.0","sub-06_sess-03_1","","500","0","cue","","<div class = centerbox><div class = img-container><img src = ""/static/experiments/dot_pattern_expectancy/images/cue3.png""</img></div></div>","none","500","test","BX","14","","",""
"-1","-1","poldrack-single-stim","214","537632","0.0-175.0","sub-06_sess-03_1","","2000","0","fixation","","<div class = centerbox><div class = fixation>+</div></div>","none","2000","test","","","","",""
"365","71","poldrack-single-stim","215","539141","0.0-176.0","sub-06_sess-03_1","","1500","0","probe","","<div class = centerbox><div class = img-container><img src = ""/static/experiments/dot_pattern_expectancy/images/probe5.png""</img></div></div>","89,71","500","test","BX","14","71","true",""
"-1","-1","poldrack-single-stim","216","539661","0.0-177.0","sub-06_sess-03_1","","500","0","cue","","<div class = centerbox><div class = img-container><img src = ""/static/experiments/dot_pattern_expectancy/images/cue6.png""</img></div></div>","none","500","test","AX","15","","",""
"-1","-1","poldrack-single-stim","217","541682","0.0-178.0","sub-06_sess-03_1","","2000","0","fixation","","<div class = centerbox><div class = fixation>+</div></div>","none","2000","test","","","","",""
"507","89","poldrack-single-stim","218","543601","0.0-179.0","sub-06_sess-03_1","","1908","0","probe","","<div class = centerbox><div class = img-container><img src = ""/static/experiments/dot_pattern_expectancy/images/probe5.png""</img></div></div>","89,71","500","test","AX","15","89","true",""
"-1","-1","poldrack-single-stim","219","544122","0.0-180.0","sub-06_sess-03_1","","500","0","cue","","<div class = centerbox><div class = img-container><img src = ""/static/experiments/dot_pattern_expectancy/images/cue6.png""</img></div></div>","none","500","test","AX","16","","",""
"-1","-1","poldrack-single-stim","220","546133","0.0-181.0","sub-06_sess-03_1","","2000","0","fixation","","<div class = centerbox><div class = fixation>+</div></div>","none","2000","test","","","","",""
"387","89","poldrack-single-stim","221","547771","0.0-182.0","sub-06_sess-03_1","","1636","0","probe","","<div class = centerbox><div class = img-container><img src = ""/static/experiments/dot_pattern_expectancy/images/probe5.png""</img></div></div>","89,71","500","test","AX","16","89","true",""
"-1","-1","poldrack-single-stim","222","548292","0.0-183.0","sub-06_sess-03_1","","500","0","cue","","<div class = centerbox><div class = img-container><img src = ""/static/experiments/dot_pattern_expectancy/images/cue1.png""</img></div></div>","none","500","test","BX","17","","",""
"-1","-1","poldrack-single-stim","223","550312","0.0-184.0","sub-06_sess-03_1","","2000","0","fixation","","<div class = centerbox><div class = fixation>+</div></div>","none","2000","test","","","","",""
"354","71","poldrack-single-stim","224","551822","0.0-185.0","sub-06_sess-03_1","","1500","0","probe","","<div class = centerbox><div class = img-container><img src = ""/static/experiments/dot_pattern_expectancy/images/probe5.png""</img></div></div>","89,71","500","test","BX","17","71","true",""
"-1","-1","poldrack-single-stim","225","552342","0.0-186.0","sub-06_sess-03_1","","500","0","cue","","<div class = centerbox><div class = img-container><img src = ""/static/experiments/dot_pattern_expectancy/images/cue6.png""</img></div></div>","none","500","test","AX","18","","",""
"-1","-1","poldrack-single-stim","226","554352","0.0-187.0","sub-06_sess-03_1","","2000","0","fixation","","<div class = centerbox><div class = fixation>+</div></div>","none","2000","test","","","","",""
"606","89","poldrack-single-stim","227","556272","0.0-188.0","sub-06_sess-03_1","","1908","0","probe","","<div class = centerbox><div class = img-container><img src = ""/static/experiments/dot_pattern_expectancy/images/probe5.png""</img></div></div>","89,71","500","test","AX","18","89","true",""
"-1","-1","poldrack-single-stim","228","556791","0.0-189.0","sub-06_sess-03_1","","500","0","cue","","<div class = centerbox><div class = img-container><img src = ""/static/experiments/dot_pattern_expectancy/images/cue2.png""</img></div></div>","none","500","test","BY","19","","",""
"-1","-1","poldrack-single-stim","229","558802","0.0-190.0","sub-06_sess-03_1","","2000","0","fixation","","<div class = centerbox><div class = fixation>+</div></div>","none","2000","test","","","","",""
"385","71","poldrack-single-stim","230","561002","0.0-191.0","sub-06_sess-03_1","","2180","0","probe","","<div class = centerbox><div class = img-container><img src = ""/static/experiments/dot_pattern_expectancy/images/probe6.png""</img></div></div>","89,71","500","test","BY","19","71","true",""
"-1","-1","poldrack-single-stim","231","561521","0.0-192.0","sub-06_sess-03_1","","500","0","cue","","<div class = centerbox><div class = img-container><img src = ""/static/experiments/dot_pattern_expectancy/images/cue6.png""</img></div></div>","none","500","test","AX","20","","",""
"-1","-1","poldrack-single-stim","232","563531","0.0-193.0","sub-06_sess-03_1","","2000","0","fixation","","<div class = centerbox><div class = fixation>+</div></div>","none","2000","test","","","","",""
"534","89","poldrack-single-stim","233","565311","0.0-194.0","sub-06_sess-03_1","","1772","0","probe","","<div class = centerbox><div class = img-container><img src = ""/static/experiments/dot_pattern_expectancy/images/probe5.png""</img></div></div>","89,71","500","test","AX","20","89","true",""
"-1","-1","poldrack-single-stim","234","565833","0.0-195.0","sub-06_sess-03_1","","500","0","cue","","<div class = centerbox><div class = img-container><img src = ""/static/experiments/dot_pattern_expectancy/images/cue6.png""</img></div></div>","none","500","test","AX","21","","",""
"-1","-1","poldrack-single-stim","235","567851","0.0-196.0","sub-06_sess-03_1","","2000","0","fixation","","<div class = centerbox><div class = fixation>+</div></div>","none","2000","test","","","","",""
"631","89","poldrack-single-stim","236","569371","0.0-197.0","sub-06_sess-03_1","","1500","0","probe","","<div class = centerbox><div class = img-container><img src = ""/static/experiments/dot_pattern_expectancy/images/probe5.png""</img></div></div>","89,71","500","test","AX","21","89","true",""
"-1","-1","poldrack-single-stim","237","569891","0.0-198.0","sub-06_sess-03_1","","500","0","cue","","<div class = centerbox><div class = img-container><img src = ""/static/experiments/dot_pattern_expectancy/images/cue6.png""</img></div></div>","none","500","test","AX","22","","",""
"-1","-1","poldrack-single-stim","238","571912","0.0-199.0","sub-06_sess-03_1","","2000","0","fixation","","<div class = centerbox><div class = fixation>+</div></div>","none","2000","test","","","","",""
"603","89","poldrack-single-stim","239","573431","0.0-200.0","sub-06_sess-03_1","","1500","0","probe","","<div class = centerbox><div class = img-container><img src = ""/static/experiments/dot_pattern_expectancy/images/probe5.png""</img></div></div>","89,71","500","test","AX","22","89","true",""
"-1","-1","poldrack-single-stim","240","573941","0.0-201.0","sub-06_sess-03_1","","500","0","cue","","<div class = centerbox><div class = img-container><img src = ""/static/experiments/dot_pattern_expectancy/images/cue6.png""</img></div></div>","none","500","test","AX","23","","",""
"-1","-1","poldrack-single-stim","241","575962","0.0-202.0","sub-06_sess-03_1","","2000","0","fixation","","<div class = centerbox><div class = fixation>+</div></div>","none","2000","test","","","","",""
"534","89","poldrack-single-stim","242","578021","0.0-203.0","sub-06_sess-03_1","","2044","0","probe","","<div class = centerbox><div class = img-container><img src = ""/static/experiments/dot_pattern_expectancy/images/probe5.png""</img></div></div>","89,71","500","test","AX","23","89","true",""
"-1","-1","poldrack-single-stim","243","578542","0.0-204.0","sub-06_sess-03_1","","500","0","cue","","<div class = centerbox><div class = img-container><img src = ""/static/experiments/dot_pattern_expectancy/images/cue6.png""</img></div></div>","none","500","test","AX","24","","",""
"-1","-1","poldrack-single-stim","244","580552","0.0-205.0","sub-06_sess-03_1","","2000","0","fixation","","<div class = centerbox><div class = fixation>+</div></div>","none","2000","test","","","","",""
"441","89","poldrack-single-stim","245","583420","0.0-206.0","sub-06_sess-03_1","","2860","0","probe","","<div class = centerbox><div class = img-container><img src = ""/static/experiments/dot_pattern_expectancy/images/probe5.png""</img></div></div>","89,71","500","test","AX","24","89","true",""
"-1","-1","poldrack-single-stim","246","583933","0.0-207.0","sub-06_sess-03_1","","500","0","cue","","<div class = centerbox><div class = img-container><img src = ""/static/experiments/dot_pattern_expectancy/images/cue5.png""</img></div></div>","none","500","test","BX","25","","",""
"-1","-1","poldrack-single-stim","247","585951","0.0-208.0","sub-06_sess-03_1","","2000","0","fixation","","<div class = centerbox><div class = fixation>+</div></div>","none","2000","test","","","","",""
"369","71","poldrack-single-stim","248","587471","0.0-209.0","sub-06_sess-03_1","","1500","0","probe","","<div class = centerbox><div class = img-container><img src = ""/static/experiments/dot_pattern_expectancy/images/probe5.png""</img></div></div>","89,71","500","test","BX","25","71","true",""
"-1","-1","poldrack-single-stim","249","587991","0.0-210.0","sub-06_sess-03_1","","500","0","cue","","<div class = centerbox><div class = img-container><img src = ""/static/experiments/dot_pattern_expectancy/images/cue3.png""</img></div></div>","none","500","test","BY","26","","",""
"-1","-1","poldrack-single-stim","250","590002","0.0-211.0","sub-06_sess-03_1","","2000","0","fixation","","<div class = centerbox><div class = fixation>+</div></div>","none","2000","test","","","","",""
"1710","71","poldrack-single-stim","251","591780","0.0-212.0","sub-06_sess-03_1","","1772","0","probe","","<div class = centerbox><div class = img-container><img src = ""/static/experiments/dot_pattern_expectancy/images/probe6.png""</img></div></div>","89,71","500","test","BY","26","71","true",""
"-1","-1","poldrack-single-stim","252","592302","0.0-213.0","sub-06_sess-03_1","","500","0","cue","","<div class = centerbox><div class = img-container><img src = ""/static/experiments/dot_pattern_expectancy/images/cue6.png""</img></div></div>","none","500","test","AX","27","","",""
"-1","-1","poldrack-single-stim","253","594323","0.0-214.0","sub-06_sess-03_1","","2000","0","fixation","","<div class = centerbox><div class = fixation>+</div></div>","none","2000","test","","","","",""
"550","89","poldrack-single-stim","254","596101","0.0-215.0","sub-06_sess-03_1","","1772","0","probe","","<div class = centerbox><div class = img-container><img src = ""/static/experiments/dot_pattern_expectancy/images/probe5.png""</img></div></div>","89,71","500","test","AX","27","89","true",""
"-1","-1","poldrack-single-stim","255","596621","0.0-216.0","sub-06_sess-03_1","","500","0","cue","","<div class = centerbox><div class = img-container><img src = ""/static/experiments/dot_pattern_expectancy/images/cue6.png""</img></div></div>","none","500","test","AX","28","","",""
"-1","-1","poldrack-single-stim","256","598642","0.0-217.0","sub-06_sess-03_1","","2000","0","fixation","","<div class = centerbox><div class = fixation>+</div></div>","none","2000","test","","","","",""
"556","89","poldrack-single-stim","257","601523","0.0-218.0","sub-06_sess-03_1","","2860","0","probe","","<div class = centerbox><div class = img-container><img src = ""/static/experiments/dot_pattern_expectancy/images/probe5.png""</img></div></div>","89,71","500","test","AX","28","89","true",""
"-1","-1","poldrack-single-stim","258","602040","0.0-219.0","sub-06_sess-03_1","","500","0","cue","","<div class = centerbox><div class = img-container><img src = ""/static/experiments/dot_pattern_expectancy/images/cue6.png""</img></div></div>","none","500","test","AX","29","","",""
"-1","-1","poldrack-single-stim","259","604061","0.0-220.0","sub-06_sess-03_1","","2000","0","fixation","","<div class = centerbox><div class = fixation>+</div></div>","none","2000","test","","","","",""
"486","89","poldrack-single-stim","260","605851","0.0-221.0","sub-06_sess-03_1","","1772","0","probe","","<div class = centerbox><div class = img-container><img src = ""/static/experiments/dot_pattern_expectancy/images/probe5.png""</img></div></div>","89,71","500","test","AX","29","89","true",""
"-1","-1","poldrack-single-stim","261","606372","0.0-222.0","sub-06_sess-03_1","","500","0","cue","","<div class = centerbox><div class = img-container><img src = ""/static/experiments/dot_pattern_expectancy/images/cue4.png""</img></div></div>","none","500","test","BX","30","","",""
"-1","-1","poldrack-single-stim","262","608381","0.0-223.0","sub-06_sess-03_1","","2000","0","fixation","","<div class = centerbox><div class = fixation>+</div></div>","none","2000","test","","","","",""
"502","89","poldrack-single-stim","263","610031","0.0-224.0","sub-06_sess-03_1","","1636","0","probe","","<div class = centerbox><div class = img-container><img src = ""/static/experiments/dot_pattern_expectancy/images/probe5.png""</img></div></div>","89,71","500","test","BX","30","71","false",""
"-1","-1","poldrack-single-stim","264","610551","0.0-225.0","sub-06_sess-03_1","","500","0","cue","","<div class = centerbox><div class = img-container><img src = ""/static/experiments/dot_pattern_expectancy/images/cue4.png""</img></div></div>","none","500","test","BX","31","","",""
"-1","-1","poldrack-single-stim","265","612571","0.0-226.0","sub-06_sess-03_1","","2000","0","fixation","","<div class = centerbox><div class = fixation>+</div></div>","none","2000","test","","","","",""
"352","71","poldrack-single-stim","266","615030","0.0-227.0","sub-06_sess-03_1","","2452","0","probe","","<div class = centerbox><div class = img-container><img src = ""/static/experiments/dot_pattern_expectancy/images/probe5.png""</img></div></div>","89,71","500","test","BX","31","71","true",""
"-1","-1","poldrack-single-stim","267","615551","0.0-228.0","sub-06_sess-03_1","","500","0","cue","","<div class = centerbox><div class = img-container><img src = ""/static/experiments/dot_pattern_expectancy/images/cue6.png""</img></div></div>","none","500","test","AX","32","","",""
"-1","-1","poldrack-single-stim","268","617572","0.0-229.0","sub-06_sess-03_1","","2000","0","fixation","","<div class = centerbox><div class = fixation>+</div></div>","none","2000","test","","","","",""
"509","89","poldrack-single-stim","269","619211","0.0-230.0","sub-06_sess-03_1","","1636","0","probe","","<div class = centerbox><div class = img-container><img src = ""/static/experiments/dot_pattern_expectancy/images/probe5.png""</img></div></div>","89,71","500","test","AX","32","89","true",""
"-1","-1","poldrack-single-stim","270","619731","0.0-231.0","sub-06_sess-03_1","","500","0","cue","","<div class = centerbox><div class = img-container><img src = ""/static/experiments/dot_pattern_expectancy/images/cue1.png""</img></div></div>","none","500","test","BX","33","","",""
"-1","-1","poldrack-single-stim","271","621741","0.0-232.0","sub-06_sess-03_1","","2000","0","fixation","","<div class = centerbox><div class = fixation>+</div></div>","none","2000","test","","","","",""
"375","71","poldrack-single-stim","272","623261","0.0-233.0","sub-06_sess-03_1","","1500","0","probe","","<div class = centerbox><div class = img-container><img src = ""/static/experiments/dot_pattern_expectancy/images/probe5.png""</img></div></div>","89,71","500","test","BX","33","71","true",""
"-1","-1","poldrack-single-stim","273","623782","0.0-234.0","sub-06_sess-03_1","","500","0","cue","","<div class = centerbox><div class = img-container><img src = ""/static/experiments/dot_pattern_expectancy/images/cue6.png""</img></div></div>","none","500","test","AX","34","","",""
"-1","-1","poldrack-single-stim","274","625792","0.0-235.0","sub-06_sess-03_1","","2000","0","fixation","","<div class = centerbox><div class = fixation>+</div></div>","none","2000","test","","","","",""
"376","89","poldrack-single-stim","275","627430","0.0-236.0","sub-06_sess-03_1","","1636","0","probe","","<div class = centerbox><div class = img-container><img src = ""/static/experiments/dot_pattern_expectancy/images/probe5.png""</img></div></div>","89,71","500","test","AX","34","89","true",""
"-1","-1","poldrack-single-stim","276","627952","0.0-237.0","sub-06_sess-03_1","","500","0","cue","","<div class = centerbox><div class = img-container><img src = ""/static/experiments/dot_pattern_expectancy/images/cue6.png""</img></div></div>","none","500","test","AX","35","","",""
"-1","-1","poldrack-single-stim","277","629971","0.0-238.0","sub-06_sess-03_1","","2000","0","fixation","","<div class = centerbox><div class = fixation>+</div></div>","none","2000","test","","","","",""
"407","89","poldrack-single-stim","278","631621","0.0-239.0","sub-06_sess-03_1","","1636","0","probe","","<div class = centerbox><div class = img-container><img src = ""/static/experiments/dot_pattern_expectancy/images/probe5.png""</img></div></div>","89,71","500","test","AX","35","89","true",""
"-1","-1","poldrack-single-stim","279","632142","0.0-240.0","sub-06_sess-03_1","","500","0","cue","","<div class = centerbox><div class = img-container><img src = ""/static/experiments/dot_pattern_expectancy/images/cue5.png""</img></div></div>","none","500","test","BY","36","","",""
"-1","-1","poldrack-single-stim","280","634151","0.0-241.0","sub-06_sess-03_1","","2000","0","fixation","","<div class = centerbox><div class = fixation>+</div></div>","none","2000","test","","","","",""
"358","71","poldrack-single-stim","281","636351","0.0-242.0","sub-06_sess-03_1","","2180","0","probe","","<div class = centerbox><div class = img-container><img src = ""/static/experiments/dot_pattern_expectancy/images/probe6.png""</img></div></div>","89,71","500","test","BY","36","71","true",""
"-1","-1","poldrack-single-stim","282","636862","0.0-243.0","sub-06_sess-03_1","","500","0","cue","","<div class = centerbox><div class = img-container><img src = ""/static/experiments/dot_pattern_expectancy/images/cue6.png""</img></div></div>","none","500","test","AX","37","","",""
"-1","-1","poldrack-single-stim","283","638872","0.0-244.0","sub-06_sess-03_1","","2000","0","fixation","","<div class = centerbox><div class = fixation>+</div></div>","none","2000","test","","","","",""
"475","89","poldrack-single-stim","284","640391","0.0-245.0","sub-06_sess-03_1","","1500","0","probe","","<div class = centerbox><div class = img-container><img src = ""/static/experiments/dot_pattern_expectancy/images/probe5.png""</img></div></div>","89,71","500","test","AX","37","89","true",""
"-1","-1","poldrack-single-stim","285","640911","0.0-246.0","sub-06_sess-03_1","","500","0","cue","","<div class = centerbox><div class = img-container><img src = ""/static/experiments/dot_pattern_expectancy/images/cue6.png""</img></div></div>","none","500","test","AY","38","","",""
"-1","-1","poldrack-single-stim","286","642930","0.0-247.0","sub-06_sess-03_1","","2000","0","fixation","","<div class = centerbox><div class = fixation>+</div></div>","none","2000","test","","","","",""
"587","71","poldrack-single-stim","287","644571","0.0-248.0","sub-06_sess-03_1","","1636","0","probe","","<div class = centerbox><div class = img-container><img src = ""/static/experiments/dot_pattern_expectancy/images/probe6.png""</img></div></div>","89,71","500","test","AY","38","71","true",""
"-1","-1","poldrack-single-stim","288","645090","0.0-249.0","sub-06_sess-03_1","","500","0","cue","","<div class = centerbox><div class = img-container><img src = ""/static/experiments/dot_pattern_expectancy/images/cue6.png""</img></div></div>","none","500","test","AX","39","","",""
"-1","-1","poldrack-single-stim","289","647112","0.0-250.0","sub-06_sess-03_1","","2000","0","fixation","","<div class = centerbox><div class = fixation>+</div></div>","none","2000","test","","","","",""
"526","89","poldrack-single-stim","290","648777","0.0-251.0","sub-06_sess-03_1","","1636","0","probe","","<div class = centerbox><div class = img-container><img src = ""/static/experiments/dot_pattern_expectancy/images/probe5.png""</img></div></div>","89,71","500","test","AX","39","89","true",""
"-1","-1","poldrack-single-stim","291","656286","0.0-252.0","sub-06_sess-03_1","","7500","1000","rest_block","","<div class = centerbox><div class = center-text>+</div></div>","none","7500","","","","","",""
"-1","-1","poldrack-single-stim","292","658822","0.0-253.0","sub-06_sess-03_1","","1500","500","test_start_block","","<div class = centerbox><div class = center-text>Preparez-vous!</p></div>","none","1500","","","","","",""
"-1","-1","poldrack-single-stim","293","659862","0.0-254.0","sub-06_sess-03_1","","500","0","cue","","<div class = centerbox><div class = img-container><img src = ""/static/experiments/dot_pattern_expectancy/images/cue6.png""</img></div></div>","none","500","test","AX","0","","",""
"-1","-1","poldrack-single-stim","294","661882","0.0-255.0","sub-06_sess-03_1","","2000","0","fixation","","<div class = centerbox><div class = fixation>+</div></div>","none","2000","test","","","","",""
"450","89","poldrack-single-stim","295","664080","0.0-256.0","sub-06_sess-03_1","","2180","0","probe","","<div class = centerbox><div class = img-container><img src = ""/static/experiments/dot_pattern_expectancy/images/probe5.png""</img></div></div>","89,71","500","test","AX","0","89","true",""
"-1","-1","poldrack-single-stim","296","664601","0.0-257.0","sub-06_sess-03_1","","500","0","cue","","<div class = centerbox><div class = img-container><img src = ""/static/experiments/dot_pattern_expectancy/images/cue6.png""</img></div></div>","none","500","test","AY","1","","",""
"-1","-1","poldrack-single-stim","297","666623","0.0-258.0","sub-06_sess-03_1","","2000","0","fixation","","<div class = centerbox><div class = fixation>+</div></div>","none","2000","test","","","","",""
"806","71","poldrack-single-stim","298","668951","0.0-259.0","sub-06_sess-03_1","","2316","0","probe","","<div class = centerbox><div class = img-container><img src = ""/static/experiments/dot_pattern_expectancy/images/probe1.png""</img></div></div>","89,71","500","test","AY","1","71","true",""
"-1","-1","poldrack-single-stim","299","669471","0.0-260.0","sub-06_sess-03_1","","500","0","cue","","<div class = centerbox><div class = img-container><img src = ""/static/experiments/dot_pattern_expectancy/images/cue6.png""</img></div></div>","none","500","test","AY","2","","",""
"-1","-1","poldrack-single-stim","300","671492","0.0-261.0","sub-06_sess-03_1","","2000","0","fixation","","<div class = centerbox><div class = fixation>+</div></div>","none","2000","test","","","","",""
"753","71","poldrack-single-stim","301","673151","0.0-262.0","sub-06_sess-03_1","","1636","0","probe","","<div class = centerbox><div class = img-container><img src = ""/static/experiments/dot_pattern_expectancy/images/probe1.png""</img></div></div>","89,71","500","test","AY","2","71","true",""
"-1","-1","poldrack-single-stim","302","673672","0.0-263.0","sub-06_sess-03_1","","500","0","cue","","<div class = centerbox><div class = img-container><img src = ""/static/experiments/dot_pattern_expectancy/images/cue5.png""</img></div></div>","none","500","test","BX","3","","",""
"-1","-1","poldrack-single-stim","303","675683","0.0-264.0","sub-06_sess-03_1","","2000","0","fixation","","<div class = centerbox><div class = fixation>+</div></div>","none","2000","test","","","","",""
"331","71","poldrack-single-stim","304","677601","0.0-265.0","sub-06_sess-03_1","","1908","0","probe","","<div class = centerbox><div class = img-container><img src = ""/static/experiments/dot_pattern_expectancy/images/probe5.png""</img></div></div>","89,71","500","test","BX","3","71","true",""
"-1","-1","poldrack-single-stim","305","678120","0.0-266.0","sub-06_sess-03_1","","500","0","cue","","<div class = centerbox><div class = img-container><img src = ""/static/experiments/dot_pattern_expectancy/images/cue6.png""</img></div></div>","none","500","test","AX","4","","",""
"-1","-1","poldrack-single-stim","306","680132","0.0-267.0","sub-06_sess-03_1","","2000","0","fixation","","<div class = centerbox><div class = fixation>+</div></div>","none","2000","test","","","","",""
"445","89","poldrack-single-stim","307","683681","0.0-268.0","sub-06_sess-03_1","","3540","0","probe","","<div class = centerbox><div class = img-container><img src = ""/static/experiments/dot_pattern_expectancy/images/probe5.png""</img></div></div>","89,71","500","test","AX","4","89","true",""
"-1","-1","poldrack-single-stim","308","684202","0.0-269.0","sub-06_sess-03_1","","500","0","cue","","<div class = centerbox><div class = img-container><img src = ""/static/experiments/dot_pattern_expectancy/images/cue1.png""</img></div></div>","none","500","test","BX","5","","",""
"-1","-1","poldrack-single-stim","309","686223","0.0-270.0","sub-06_sess-03_1","","2000","0","fixation","","<div class = centerbox><div class = fixation>+</div></div>","none","2000","test","","","","",""
"421","71","poldrack-single-stim","310","687871","0.0-271.0","sub-06_sess-03_1","","1636","0","probe","","<div class = centerbox><div class = img-container><img src = ""/static/experiments/dot_pattern_expectancy/images/probe5.png""</img></div></div>","89,71","500","test","BX","5","71","true",""
"-1","-1","poldrack-single-stim","311","688391","0.0-272.0","sub-06_sess-03_1","","500","0","cue","","<div class = centerbox><div class = img-container><img src = ""/static/experiments/dot_pattern_expectancy/images/cue1.png""</img></div></div>","none","500","test","BY","6","","",""
"-1","-1","poldrack-single-stim","312","690412","0.0-273.0","sub-06_sess-03_1","","2000","0","fixation","","<div class = centerbox><div class = fixation>+</div></div>","none","2000","test","","","","",""
"490","71","poldrack-single-stim","313","691932","0.0-274.0","sub-06_sess-03_1","","1500","0","probe","","<div class = centerbox><div class = img-container><img src = ""/static/experiments/dot_pattern_expectancy/images/probe3.png""</img></div></div>","89,71","500","test","BY","6","71","true",""
"-1","-1","poldrack-single-stim","314","692452","0.0-275.0","sub-06_sess-03_1","","500","0","cue","","<div class = centerbox><div class = img-container><img src = ""/static/experiments/dot_pattern_expectancy/images/cue6.png""</img></div></div>","none","500","test","AX","7","","",""
"-1","-1","poldrack-single-stim","315","694471","0.0-276.0","sub-06_sess-03_1","","2000","0","fixation","","<div class = centerbox><div class = fixation>+</div></div>","none","2000","test","","","","",""
"426","89","poldrack-single-stim","316","695992","0.0-277.0","sub-06_sess-03_1","","1500","0","probe","","<div class = centerbox><div class = img-container><img src = ""/static/experiments/dot_pattern_expectancy/images/probe5.png""</img></div></div>","89,71","500","test","AX","7","89","true",""
"-1","-1","poldrack-single-stim","317","696501","0.0-278.0","sub-06_sess-03_1","","500","0","cue","","<div class = centerbox><div class = img-container><img src = ""/static/experiments/dot_pattern_expectancy/images/cue6.png""</img></div></div>","none","500","test","AX","8","","",""
"-1","-1","poldrack-single-stim","318","698523","0.0-279.0","sub-06_sess-03_1","","2000","0","fixation","","<div class = centerbox><div class = fixation>+</div></div>","none","2000","test","","","","",""
"386","89","poldrack-single-stim","319","700312","0.0-280.0","sub-06_sess-03_1","","1772","0","probe","","<div class = centerbox><div class = img-container><img src = ""/static/experiments/dot_pattern_expectancy/images/probe5.png""</img></div></div>","89,71","500","test","AX","8","89","true",""
"-1","-1","poldrack-single-stim","320","700832","0.0-281.0","sub-06_sess-03_1","","500","0","cue","","<div class = centerbox><div class = img-container><img src = ""/static/experiments/dot_pattern_expectancy/images/cue5.png""</img></div></div>","none","500","test","BY","9","","",""
"-1","-1","poldrack-single-stim","321","702852","0.0-282.0","sub-06_sess-03_1","","2000","0","fixation","","<div class = centerbox><div class = fixation>+</div></div>","none","2000","test","","","","",""
"369","71","poldrack-single-stim","322","705320","0.0-283.0","sub-06_sess-03_1","","2452","0","probe","","<div class = centerbox><div class = img-container><img src = ""/static/experiments/dot_pattern_expectancy/images/probe3.png""</img></div></div>","89,71","500","test","BY","9","71","true",""
"-1","-1","poldrack-single-stim","323","705840","0.0-284.0","sub-06_sess-03_1","","500","0","cue","","<div class = centerbox><div class = img-container><img src = ""/static/experiments/dot_pattern_expectancy/images/cue6.png""</img></div></div>","none","500","test","AX","10","","",""
"-1","-1","poldrack-single-stim","324","707851","0.0-285.0","sub-06_sess-03_1","","2000","0","fixation","","<div class = centerbox><div class = fixation>+</div></div>","none","2000","test","","","","",""
"427","89","poldrack-single-stim","325","709771","0.0-286.0","sub-06_sess-03_1","","1908","0","probe","","<div class = centerbox><div class = img-container><img src = ""/static/experiments/dot_pattern_expectancy/images/probe5.png""</img></div></div>","89,71","500","test","AX","10","89","true",""
"-1","-1","poldrack-single-stim","326","710292","0.0-287.0","sub-06_sess-03_1","","500","0","cue","","<div class = centerbox><div class = img-container><img src = ""/static/experiments/dot_pattern_expectancy/images/cue5.png""</img></div></div>","none","500","test","BX","11","","",""
"-1","-1","poldrack-single-stim","327","712316","0.0-288.0","sub-06_sess-03_1","","2000","0","fixation","","<div class = centerbox><div class = fixation>+</div></div>","none","2000","test","","","","",""
"350","71","poldrack-single-stim","328","713971","0.0-289.0","sub-06_sess-03_1","","1636","0","probe","","<div class = centerbox><div class = img-container><img src = ""/static/experiments/dot_pattern_expectancy/images/probe5.png""</img></div></div>","89,71","500","test","BX","11","71","true",""
"-1","-1","poldrack-single-stim","329","714492","0.0-290.0","sub-06_sess-03_1","","500","0","cue","","<div class = centerbox><div class = img-container><img src = ""/static/experiments/dot_pattern_expectancy/images/cue6.png""</img></div></div>","none","500","test","AX","12","","",""
"-1","-1","poldrack-single-stim","330","716512","0.0-291.0","sub-06_sess-03_1","","2000","0","fixation","","<div class = centerbox><div class = fixation>+</div></div>","none","2000","test","","","","",""
"360","89","poldrack-single-stim","331","718031","0.0-292.0","sub-06_sess-03_1","","1500","0","probe","","<div class = centerbox><div class = img-container><img src = ""/static/experiments/dot_pattern_expectancy/images/probe5.png""</img></div></div>","89,71","500","test","AX","12","89","true",""
"-1","-1","poldrack-single-stim","332","718551","0.0-293.0","sub-06_sess-03_1","","500","0","cue","","<div class = centerbox><div class = img-container><img src = ""/static/experiments/dot_pattern_expectancy/images/cue6.png""</img></div></div>","none","500","test","AX","13","","",""
"-1","-1","poldrack-single-stim","333","720571","0.0-294.0","sub-06_sess-03_1","","2000","0","fixation","","<div class = centerbox><div class = fixation>+</div></div>","none","2000","test","","","","",""
"399","89","poldrack-single-stim","334","722210","0.0-295.0","sub-06_sess-03_1","","1636","0","probe","","<div class = centerbox><div class = img-container><img src = ""/static/experiments/dot_pattern_expectancy/images/probe5.png""</img></div></div>","89,71","500","test","AX","13","89","true",""
"-1","-1","poldrack-single-stim","335","722731","0.0-296.0","sub-06_sess-03_1","","500","0","cue","","<div class = centerbox><div class = img-container><img src = ""/static/experiments/dot_pattern_expectancy/images/cue6.png""</img></div></div>","none","500","test","AX","14","","",""
"-1","-1","poldrack-single-stim","336","724752","0.0-297.0","sub-06_sess-03_1","","2000","0","fixation","","<div class = centerbox><div class = fixation>+</div></div>","none","2000","test","","","","",""
"434","89","poldrack-single-stim","337","726390","0.0-298.0","sub-06_sess-03_1","","1636","0","probe","","<div class = centerbox><div class = img-container><img src = ""/static/experiments/dot_pattern_expectancy/images/probe5.png""</img></div></div>","89,71","500","test","AX","14","89","true",""
"-1","-1","poldrack-single-stim","338","726912","0.0-299.0","sub-06_sess-03_1","","500","0","cue","","<div class = centerbox><div class = img-container><img src = ""/static/experiments/dot_pattern_expectancy/images/cue1.png""</img></div></div>","none","500","test","BY","15","","",""
"-1","-1","poldrack-single-stim","339","728932","0.0-300.0","sub-06_sess-03_1","","2000","0","fixation","","<div class = centerbox><div class = fixation>+</div></div>","none","2000","test","","","","",""
"285","71","poldrack-single-stim","340","731391","0.0-301.0","sub-06_sess-03_1","","2452","0","probe","","<div class = centerbox><div class = img-container><img src = ""/static/experiments/dot_pattern_expectancy/images/probe3.png""</img></div></div>","89,71","500","test","BY","15","71","true",""
"-1","-1","poldrack-single-stim","341","731912","0.0-302.0","sub-06_sess-03_1","","500","0","cue","","<div class = centerbox><div class = img-container><img src = ""/static/experiments/dot_pattern_expectancy/images/cue6.png""</img></div></div>","none","500","test","AX","16","","",""
"-1","-1","poldrack-single-stim","342","733933","0.0-303.0","sub-06_sess-03_1","","2000","0","fixation","","<div class = centerbox><div class = fixation>+</div></div>","none","2000","test","","","","",""
"1180","89","poldrack-single-stim","343","735451","0.0-304.0","sub-06_sess-03_1","","1500","0","probe","","<div class = centerbox><div class = img-container><img src = ""/static/experiments/dot_pattern_expectancy/images/probe5.png""</img></div></div>","89,71","500","test","AX","16","89","true",""
"-1","-1","poldrack-single-stim","344","735973","0.0-305.0","sub-06_sess-03_1","","500","0","cue","","<div class = centerbox><div class = img-container><img src = ""/static/experiments/dot_pattern_expectancy/images/cue4.png""</img></div></div>","none","500","test","BY","17","","",""
"-1","-1","poldrack-single-stim","345","737990","0.0-306.0","sub-06_sess-03_1","","2000","0","fixation","","<div class = centerbox><div class = fixation>+</div></div>","none","2000","test","","","","",""
"718","71","poldrack-single-stim","346","739509","0.0-307.0","sub-06_sess-03_1","","1500","0","probe","","<div class = centerbox><div class = img-container><img src = ""/static/experiments/dot_pattern_expectancy/images/probe6.png""</img></div></div>","89,71","500","test","BY","17","71","true",""
"-1","-1","poldrack-single-stim","347","740031","0.0-308.0","sub-06_sess-03_1","","500","0","cue","","<div class = centerbox><div class = img-container><img src = ""/static/experiments/dot_pattern_expectancy/images/cue6.png""</img></div></div>","none","500","test","AX","18","","",""
"-1","-1","poldrack-single-stim","348","742052","0.0-309.0","sub-06_sess-03_1","","2000","0","fixation","","<div class = centerbox><div class = fixation>+</div></div>","none","2000","test","","","","",""
"493","89","poldrack-single-stim","349","743700","0.0-310.0","sub-06_sess-03_1","","1636","0","probe","","<div class = centerbox><div class = img-container><img src = ""/static/experiments/dot_pattern_expectancy/images/probe5.png""</img></div></div>","89,71","500","test","AX","18","89","true",""
"-1","-1","poldrack-single-stim","350","744222","0.0-311.0","sub-06_sess-03_1","","500","0","cue","","<div class = centerbox><div class = img-container><img src = ""/static/experiments/dot_pattern_expectancy/images/cue6.png""</img></div></div>","none","500","test","AX","19","","",""
"-1","-1","poldrack-single-stim","351","746242","0.0-312.0","sub-06_sess-03_1","","2000","0","fixation","","<div class = centerbox><div class = fixation>+</div></div>","none","2000","test","","","","",""
"398","89","poldrack-single-stim","352","747901","0.0-313.0","sub-06_sess-03_1","","1636","0","probe","","<div class = centerbox><div class = img-container><img src = ""/static/experiments/dot_pattern_expectancy/images/probe5.png""</img></div></div>","89,71","500","test","AX","19","89","true",""
"-1","-1","poldrack-single-stim","353","748422","0.0-314.0","sub-06_sess-03_1","","500","0","cue","","<div class = centerbox><div class = img-container><img src = ""/static/experiments/dot_pattern_expectancy/images/cue6.png""</img></div></div>","none","500","test","AY","20","","",""
"-1","-1","poldrack-single-stim","354","750442","0.0-315.0","sub-06_sess-03_1","","2000","0","fixation","","<div class = centerbox><div class = fixation>+</div></div>","none","2000","test","","","","",""
"639","71","poldrack-single-stim","355","752081","0.0-316.0","sub-06_sess-03_1","","1636","0","probe","","<div class = centerbox><div class = img-container><img src = ""/static/experiments/dot_pattern_expectancy/images/probe1.png""</img></div></div>","89,71","500","test","AY","20","71","true",""
"-1","-1","poldrack-single-stim","356","752601","0.0-317.0","sub-06_sess-03_1","","500","0","cue","","<div class = centerbox><div class = img-container><img src = ""/static/experiments/dot_pattern_expectancy/images/cue6.png""</img></div></div>","none","500","test","AX","21","","",""
"-1","-1","poldrack-single-stim","357","754620","0.0-318.0","sub-06_sess-03_1","","2000","0","fixation","","<div class = centerbox><div class = fixation>+</div></div>","none","2000","test","","","","",""
"364","89","poldrack-single-stim","358","756141","0.0-319.0","sub-06_sess-03_1","","1500","0","probe","","<div class = centerbox><div class = img-container><img src = ""/static/experiments/dot_pattern_expectancy/images/probe5.png""</img></div></div>","89,71","500","test","AX","21","89","true",""
"-1","-1","poldrack-single-stim","359","756662","0.0-320.0","sub-06_sess-03_1","","500","0","cue","","<div class = centerbox><div class = img-container><img src = ""/static/experiments/dot_pattern_expectancy/images/cue6.png""</img></div></div>","none","500","test","AX","22","","",""
"-1","-1","poldrack-single-stim","360","758682","0.0-321.0","sub-06_sess-03_1","","2000","0","fixation","","<div class = centerbox><div class = fixation>+</div></div>","none","2000","test","","","","",""
"229","71","poldrack-single-stim","361","760200","0.0-322.0","sub-06_sess-03_1","","1500","0","probe","","<div class = centerbox><div class = img-container><img src = ""/static/experiments/dot_pattern_expectancy/images/probe5.png""</img></div></div>","89,71","500","test","AX","22","89","false",""
"-1","-1","poldrack-single-stim","362","760721","0.0-323.0","sub-06_sess-03_1","","500","0","cue","","<div class = centerbox><div class = img-container><img src = ""/static/experiments/dot_pattern_expectancy/images/cue6.png""</img></div></div>","none","500","test","AX","23","","",""
"-1","-1","poldrack-single-stim","363","762741","0.0-324.0","sub-06_sess-03_1","","2000","0","fixation","","<div class = centerbox><div class = fixation>+</div></div>","none","2000","test","","","","",""
"531","89","poldrack-single-stim","364","764522","0.0-325.0","sub-06_sess-03_1","","1772","0","probe","","<div class = centerbox><div class = img-container><img src = ""/static/experiments/dot_pattern_expectancy/images/probe5.png""</img></div></div>","89,71","500","test","AX","23","89","true",""
"-1","-1","poldrack-single-stim","365","765041","0.0-326.0","sub-06_sess-03_1","","500","0","cue","","<div class = centerbox><div class = img-container><img src = ""/static/experiments/dot_pattern_expectancy/images/cue6.png""</img></div></div>","none","500","test","AX","24","","",""
"-1","-1","poldrack-single-stim","366","767062","0.0-327.0","sub-06_sess-03_1","","2000","0","fixation","","<div class = centerbox><div class = fixation>+</div></div>","none","2000","test","","","","",""
"620","89","poldrack-single-stim","367","769251","0.0-328.0","sub-06_sess-03_1","","2180","0","probe","","<div class = centerbox><div class = img-container><img src = ""/static/experiments/dot_pattern_expectancy/images/probe5.png""</img></div></div>","89,71","500","test","AX","24","89","true",""
"-1","-1","poldrack-single-stim","368","769772","0.0-329.0","sub-06_sess-03_1","","500","0","cue","","<div class = centerbox><div class = img-container><img src = ""/static/experiments/dot_pattern_expectancy/images/cue1.png""</img></div></div>","none","500","test","BX","25","","",""
"-1","-1","poldrack-single-stim","369","771790","0.0-330.0","sub-06_sess-03_1","","2000","0","fixation","","<div class = centerbox><div class = fixation>+</div></div>","none","2000","test","","","","",""
"296","71","poldrack-single-stim","370","773572","0.0-331.0","sub-06_sess-03_1","","1772","0","probe","","<div class = centerbox><div class = img-container><img src = ""/static/experiments/dot_pattern_expectancy/images/probe5.png""</img></div></div>","89,71","500","test","BX","25","71","true",""
"-1","-1","poldrack-single-stim","371","774091","0.0-332.0","sub-06_sess-03_1","","500","0","cue","","<div class = centerbox><div class = img-container><img src = ""/static/experiments/dot_pattern_expectancy/images/cue2.png""</img></div></div>","none","500","test","BY","26","","",""
"-1","-1","poldrack-single-stim","372","776100","0.0-333.0","sub-06_sess-03_1","","2000","0","fixation","","<div class = centerbox><div class = fixation>+</div></div>","none","2000","test","","","","",""
"489","71","poldrack-single-stim","373","777611","0.0-334.0","sub-06_sess-03_1","","1500","0","probe","","<div class = centerbox><div class = img-container><img src = ""/static/experiments/dot_pattern_expectancy/images/probe3.png""</img></div></div>","89,71","500","test","BY","26","71","true",""
"-1","-1","poldrack-single-stim","374","778133","0.0-335.0","sub-06_sess-03_1","","500","0","cue","","<div class = centerbox><div class = img-container><img src = ""/static/experiments/dot_pattern_expectancy/images/cue6.png""</img></div></div>","none","500","test","AX","27","","",""
"-1","-1","poldrack-single-stim","375","780151","0.0-336.0","sub-06_sess-03_1","","2000","0","fixation","","<div class = centerbox><div class = fixation>+</div></div>","none","2000","test","","","","",""
"746","89","poldrack-single-stim","376","781670","0.0-337.0","sub-06_sess-03_1","","1500","0","probe","","<div class = centerbox><div class = img-container><img src = ""/static/experiments/dot_pattern_expectancy/images/probe5.png""</img></div></div>","89,71","500","test","AX","27","89","true",""
"-1","-1","poldrack-single-stim","377","782191","0.0-338.0","sub-06_sess-03_1","","500","0","cue","","<div class = centerbox><div class = img-container><img src = ""/static/experiments/dot_pattern_expectancy/images/cue6.png""</img></div></div>","none","500","test","AX","28","","",""
"-1","-1","poldrack-single-stim","378","784211","0.0-339.0","sub-06_sess-03_1","","2000","0","fixation","","<div class = centerbox><div class = fixation>+</div></div>","none","2000","test","","","","",""
"340","71","poldrack-single-stim","379","785850","0.0-340.0","sub-06_sess-03_1","","1636","0","probe","","<div class = centerbox><div class = img-container><img src = ""/static/experiments/dot_pattern_expectancy/images/probe5.png""</img></div></div>","89,71","500","test","AX","28","89","false",""
"-1","-1","poldrack-single-stim","380","786372","0.0-341.0","sub-06_sess-03_1","","500","0","cue","","<div class = centerbox><div class = img-container><img src = ""/static/experiments/dot_pattern_expectancy/images/cue6.png""</img></div></div>","none","500","test","AY","29","","",""
"-1","-1","poldrack-single-stim","381","788381","0.0-342.0","sub-06_sess-03_1","","2000","0","fixation","","<div class = centerbox><div class = fixation>+</div></div>","none","2000","test","","","","",""
"756","71","poldrack-single-stim","382","790571","0.0-343.0","sub-06_sess-03_1","","2180","0","probe","","<div class = centerbox><div class = img-container><img src = ""/static/experiments/dot_pattern_expectancy/images/probe6.png""</img></div></div>","89,71","500","test","AY","29","71","true",""
