"rt","key_press","trial_type","trial_index","time_elapsed","internal_node_id","subject","text","block_duration","timing_post_trial","trial_id","responses","stimulus","possible_responses","stim_duration","correct","correct_response","feedback_duration","exp_stage","trial_num","SS_stimulus","SS_delay","SS_trial_type","SS_duration","exp_id"
"275132","13","text","0","275135","0.0-0.0","sub-04_ses-01_1","","","","","","","","","","","","","","","","","",""
"80779","89","poldrack-text","1","356939","0.0-1.0","sub-04_ses-01_1","<div class = centerbox><div style = 'font-size: 50px' class = center-text>Veuillez appuyer avec votre index</p></div>","80779","500","fmri_response_test","","","","","","","","","","","","","",""
"787","71","poldrack-text","2","358233","0.0-2.0","sub-04_ses-01_1","<div class = centerbox><div style = 'font-size: 50px' class = center-text>Veuillez appuyer avec votre majeur</p></div>","787","500","fmri_response_test","","","","","","","","","","","","","",""
"16872","","survey-text","3","375631","0.0-3.0","sub-04_ses-01_1","","","","task_setup","{""Q0"":""250""}","","","","","","","","","","","","",""
"10601","32","poldrack-single-stim","4","387339","0.0-4.0","sub-04_ses-01_1","","10601","0","instructions","","<div class = instructbox><p class = instruct-text><font size=""+2"">Une seule cle est correcte pour chaque forme. Ne repondez pas si vous voyez l'etoile rouge! Les cles correctes son les suivantes:</font><ul list-text><li><div class = prompt_container><img class = prompt_stim src = /static/experiments/stop_signal/images/moon.png width= ""50%"" height= ""50%""></img>Index</div></li></li><li><div class = prompt_container><img class = prompt_stim src = /static/experiments/stop_signal/images/oval.png width= ""50%"" height= ""50%""></img>Index</div></li> </li><li><div class = prompt_container><img class = prompt_stim src = /static/experiments/stop_signal/images/rectangle.png width= ""50%"" height= ""50%""></img>Majeur</div></li> </li><li><div class = prompt_container><img class = prompt_stim src = /static/experiments/stop_signal/images/trapezoid.png width= ""50%"" height= ""50%""></img>Majeur</div></li></ul></div>","32","10601","","","","","","","","","",""
"1064","89","poldrack-categorize","5","389733","0.0-5.0-0.0-0.0","sub-04_ses-01_1","","1850","250","stim","","<div class = coverbox></div><div class = shapebox><img class = stim src = /static/experiments/stop_signal/images/moon.png></img></div>","89,71","850","true","89","500","practice","0","","","","",""
"607","89","poldrack-categorize","6","392372","0.0-5.0-0.0-1.0","sub-04_ses-01_1","","1850","250","stim","","<div class = coverbox></div><div class = shapebox><img class = stim src = /static/experiments/stop_signal/images/oval.png></img></div>","89,71","850","true","89","500","practice","1","","","","",""
"507","89","poldrack-categorize","7","395032","0.0-5.0-0.0-2.0","sub-04_ses-01_1","","1850","250","stim","","<div class = coverbox></div><div class = shapebox><img class = stim src = /static/experiments/stop_signal/images/oval.png></img></div>","89,71","850","true","89","500","practice","2","","","","",""
"479","89","poldrack-categorize","8","397673","0.0-5.0-0.0-3.0","sub-04_ses-01_1","","1850","250","stim","","<div class = coverbox></div><div class = shapebox><img class = stim src = /static/experiments/stop_signal/images/oval.png></img></div>","89,71","850","true","89","500","practice","3","","","","",""
"505","89","poldrack-categorize","9","400313","0.0-5.0-0.0-4.0","sub-04_ses-01_1","","1850","250","stim","","<div class = coverbox></div><div class = shapebox><img class = stim src = /static/experiments/stop_signal/images/moon.png></img></div>","89,71","850","true","89","500","practice","4","","","","",""
"449","71","poldrack-categorize","10","402953","0.0-5.0-0.0-5.0","sub-04_ses-01_1","","1850","250","stim","","<div class = coverbox></div><div class = shapebox><img class = stim src = /static/experiments/stop_signal/images/rectangle.png></img></div>","89,71","850","true","71","500","practice","5","","","","",""
"448","89","poldrack-categorize","11","405592","0.0-5.0-0.0-6.0","sub-04_ses-01_1","","1850","250","stim","","<div class = coverbox></div><div class = shapebox><img class = stim src = /static/experiments/stop_signal/images/moon.png></img></div>","89,71","850","true","89","500","practice","6","","","","",""
"544","71","poldrack-categorize","12","408232","0.0-5.0-0.0-7.0","sub-04_ses-01_1","","1850","250","stim","","<div class = coverbox></div><div class = shapebox><img class = stim src = /static/experiments/stop_signal/images/trapezoid.png></img></div>","89,71","850","true","71","500","practice","7","","","","",""
"419","71","poldrack-categorize","13","410872","0.0-5.0-0.0-8.0","sub-04_ses-01_1","","1850","250","stim","","<div class = coverbox></div><div class = shapebox><img class = stim src = /static/experiments/stop_signal/images/trapezoid.png></img></div>","89,71","850","true","71","500","practice","8","","","","",""
"420","71","poldrack-categorize","14","413513","0.0-5.0-0.0-9.0","sub-04_ses-01_1","","1850","250","stim","","<div class = coverbox></div><div class = shapebox><img class = stim src = /static/experiments/stop_signal/images/trapezoid.png></img></div>","89,71","850","true","71","500","practice","9","","","","",""
"394","71","poldrack-categorize","15","416152","0.0-5.0-0.0-10.0","sub-04_ses-01_1","","1850","250","stim","","<div class = coverbox></div><div class = shapebox><img class = stim src = /static/experiments/stop_signal/images/rectangle.png></img></div>","89,71","850","true","71","500","practice","10","","","","",""
"466","71","poldrack-categorize","16","418783","0.0-5.0-0.0-11.0","sub-04_ses-01_1","","1850","250","stim","","<div class = coverbox></div><div class = shapebox><img class = stim src = /static/experiments/stop_signal/images/rectangle.png></img></div>","89,71","850","true","71","500","practice","11","","","","",""
"7734","32","poldrack-text","17","426784","0.0-6.0","sub-04_ses-01_1","<div class = centerbox><div  class = center-text>Scanner Setup</div></div>","7734","0","fmri_scanner_wait","","","","","","","","","","","","","",""
"57259","84","poldrack-text","18","484046","0.0-7.0","sub-04_ses-01_1","<div class = centerbox><div style='color:red'; class = center-text>+</div></div>","57259","0","fmri_trigger_wait","","","","","","","","","","","","","",""
"-1","-1","poldrack-single-stim","19","485064","0.0-8.0","sub-04_ses-01_1","","1000","0","fmri_buffer","","","none","1000","","","","","","","","","",""
"-1","-1","poldrack-single-stim","20","486573","0.0-9.0","sub-04_ses-01_1","","1500","500","test_start_block","","<div class = centerbox><div class = center-text>Preparez-vous!</p></div>","none","1500","","","","","","","","","",""
"566","89","stop-signal","21","489362","0.0-10.0-0.0","sub-04_ses-01_1","","2250","0","stim","","<div class = coverbox></div><div class = shapebox><img class = stim src = /static/experiments/stop_signal/images/moon.png></img></div>","89,71","850","true","89","","test","0","<div class = coverbox></div><div class = stopbox><div class = centered-shape id = stop-signal></div><div class = centered-shape id = stop-signal-inner></div></div>","250","stop","500",""
"547","89","stop-signal","22","492032","0.0-10.0-1.0","sub-04_ses-01_1","","2658","0","stim","","<div class = coverbox></div><div class = shapebox><img class = stim src = /static/experiments/stop_signal/images/oval.png></img></div>","89,71","850","true","89","","test","1","<div class = coverbox></div><div class = stopbox><div class = centered-shape id = stop-signal></div><div class = centered-shape id = stop-signal-inner></div></div>","200","go","500",""
"631","89","stop-signal","23","494693","0.0-10.0-2.0","sub-04_ses-01_1","","2658","0","stim","","<div class = coverbox></div><div class = shapebox><img class = stim src = /static/experiments/stop_signal/images/moon.png></img></div>","89,71","850","true","89","","test","2","<div class = coverbox></div><div class = stopbox><div class = centered-shape id = stop-signal></div><div class = centered-shape id = stop-signal-inner></div></div>","200","go","500",""
"540","71","stop-signal","24","496953","0.0-10.0-3.0","sub-04_ses-01_1","","2250","0","stim","","<div class = coverbox></div><div class = shapebox><img class = stim src = /static/experiments/stop_signal/images/rectangle.png></img></div>","89,71","850","true","71","","test","3","<div class = coverbox></div><div class = stopbox><div class = centered-shape id = stop-signal></div><div class = centered-shape id = stop-signal-inner></div></div>","200","go","500",""
"526","89","stop-signal","25","499222","0.0-10.0-4.0","sub-04_ses-01_1","","2250","0","stim","","<div class = coverbox></div><div class = shapebox><img class = stim src = /static/experiments/stop_signal/images/oval.png></img></div>","89,71","850","true","89","","test","4","<div class = coverbox></div><div class = stopbox><div class = centered-shape id = stop-signal></div><div class = centered-shape id = stop-signal-inner></div></div>","200","go","500",""
"567","71","stop-signal","26","501611","0.0-10.0-5.0","sub-04_ses-01_1","","2386","0","stim","","<div class = coverbox></div><div class = shapebox><img class = stim src = /static/experiments/stop_signal/images/rectangle.png></img></div>","89,71","850","true","71","","test","5","<div class = coverbox></div><div class = stopbox><div class = centered-shape id = stop-signal></div><div class = centered-shape id = stop-signal-inner></div></div>","200","go","500",""
"-1","-1","stop-signal","27","504415","0.0-10.0-6.0","sub-04_ses-01_1","","2794","0","stim","","<div class = coverbox></div><div class = shapebox><img class = stim src = /static/experiments/stop_signal/images/trapezoid.png></img></div>","89,71","850","false","71","","test","6","<div class = coverbox></div><div class = stopbox><div class = centered-shape id = stop-signal></div><div class = centered-shape id = stop-signal-inner></div></div>","200","stop","500",""
"-1","-1","stop-signal","28","506813","0.0-10.0-7.0","sub-04_ses-01_1","","2386","0","stim","","<div class = coverbox></div><div class = shapebox><img class = stim src = /static/experiments/stop_signal/images/oval.png></img></div>","89,71","850","false","89","","test","7","<div class = coverbox></div><div class = stopbox><div class = centered-shape id = stop-signal></div><div class = centered-shape id = stop-signal-inner></div></div>","250","stop","500",""
"-1","-1","stop-signal","29","509073","0.0-10.0-8.0","sub-04_ses-01_1","","2250","0","stim","","<div class = coverbox></div><div class = shapebox><img class = stim src = /static/experiments/stop_signal/images/oval.png></img></div>","89,71","850","false","89","","test","8","<div class = coverbox></div><div class = stopbox><div class = centered-shape id = stop-signal></div><div class = centered-shape id = stop-signal-inner></div></div>","300","stop","500",""
"-1","-1","stop-signal","30","511332","0.0-10.0-9.0","sub-04_ses-01_1","","2250","0","stim","","<div class = coverbox></div><div class = shapebox><img class = stim src = /static/experiments/stop_signal/images/oval.png></img></div>","89,71","850","false","89","","test","9","<div class = coverbox></div><div class = stopbox><div class = centered-shape id = stop-signal></div><div class = centered-shape id = stop-signal-inner></div></div>","350","stop","500",""
"-1","-1","stop-signal","31","513593","0.0-10.0-10.0","sub-04_ses-01_1","","2250","0","stim","","<div class = coverbox></div><div class = shapebox><img class = stim src = /static/experiments/stop_signal/images/moon.png></img></div>","89,71","850","false","89","","test","10","<div class = coverbox></div><div class = stopbox><div class = centered-shape id = stop-signal></div><div class = centered-shape id = stop-signal-inner></div></div>","400","stop","500",""
"729","71","stop-signal","32","516273","0.0-10.0-11.0","sub-04_ses-01_1","","2658","0","stim","","<div class = coverbox></div><div class = shapebox><img class = stim src = /static/experiments/stop_signal/images/rectangle.png></img></div>","89,71","850","true","71","","test","11","<div class = coverbox></div><div class = stopbox><div class = centered-shape id = stop-signal></div><div class = centered-shape id = stop-signal-inner></div></div>","450","go","500",""
"561","71","stop-signal","33","518953","0.0-10.0-12.0","sub-04_ses-01_1","","2658","0","stim","","<div class = coverbox></div><div class = shapebox><img class = stim src = /static/experiments/stop_signal/images/rectangle.png></img></div>","89,71","850","true","71","","test","12","<div class = coverbox></div><div class = stopbox><div class = centered-shape id = stop-signal></div><div class = centered-shape id = stop-signal-inner></div></div>","450","go","500",""
"699","71","stop-signal","34","521213","0.0-10.0-13.0","sub-04_ses-01_1","","2250","0","stim","","<div class = coverbox></div><div class = shapebox><img class = stim src = /static/experiments/stop_signal/images/trapezoid.png></img></div>","89,71","850","true","71","","test","13","<div class = coverbox></div><div class = stopbox><div class = centered-shape id = stop-signal></div><div class = centered-shape id = stop-signal-inner></div></div>","450","go","500",""
"710","71","stop-signal","35","523752","0.0-10.0-14.0","sub-04_ses-01_1","","2522","0","stim","","<div class = coverbox></div><div class = shapebox><img class = stim src = /static/experiments/stop_signal/images/trapezoid.png></img></div>","89,71","850","true","71","","test","14","<div class = coverbox></div><div class = stopbox><div class = centered-shape id = stop-signal></div><div class = centered-shape id = stop-signal-inner></div></div>","450","go","500",""
"778","89","stop-signal","36","526011","0.0-10.0-15.0","sub-04_ses-01_1","","2250","0","stim","","<div class = coverbox></div><div class = shapebox><img class = stim src = /static/experiments/stop_signal/images/oval.png></img></div>","89,71","850","true","89","","test","15","<div class = coverbox></div><div class = stopbox><div class = centered-shape id = stop-signal></div><div class = centered-shape id = stop-signal-inner></div></div>","450","go","500",""
"-1","-1","stop-signal","37","528554","0.0-10.0-16.0","sub-04_ses-01_1","","2522","0","stim","","<div class = coverbox></div><div class = shapebox><img class = stim src = /static/experiments/stop_signal/images/rectangle.png></img></div>","89,71","850","false","71","","test","16","<div class = coverbox></div><div class = stopbox><div class = centered-shape id = stop-signal></div><div class = centered-shape id = stop-signal-inner></div></div>","450","stop","500",""
"729","89","stop-signal","38","531083","0.0-10.0-17.0","sub-04_ses-01_1","","2522","0","stim","","<div class = coverbox></div><div class = shapebox><img class = stim src = /static/experiments/stop_signal/images/moon.png></img></div>","89,71","850","true","89","","test","17","<div class = coverbox></div><div class = stopbox><div class = centered-shape id = stop-signal></div><div class = centered-shape id = stop-signal-inner></div></div>","500","go","500",""
"-1","-1","stop-signal","39","533622","0.0-10.0-18.0","sub-04_ses-01_1","","2522","0","stim","","<div class = coverbox></div><div class = shapebox><img class = stim src = /static/experiments/stop_signal/images/trapezoid.png></img></div>","89,71","850","false","71","","test","18","<div class = coverbox></div><div class = stopbox><div class = centered-shape id = stop-signal></div><div class = centered-shape id = stop-signal-inner></div></div>","500","stop","500",""
"705","71","stop-signal","40","536023","0.0-10.0-19.0","sub-04_ses-01_1","","2386","0","stim","","<div class = coverbox></div><div class = shapebox><img class = stim src = /static/experiments/stop_signal/images/rectangle.png></img></div>","89,71","850","true","71","","test","19","<div class = coverbox></div><div class = stopbox><div class = centered-shape id = stop-signal></div><div class = centered-shape id = stop-signal-inner></div></div>","550","stop","500",""
"673","71","stop-signal","41","538563","0.0-10.0-20.0","sub-04_ses-01_1","","2522","0","stim","","<div class = coverbox></div><div class = shapebox><img class = stim src = /static/experiments/stop_signal/images/rectangle.png></img></div>","89,71","850","true","71","","test","20","<div class = coverbox></div><div class = stopbox><div class = centered-shape id = stop-signal></div><div class = centered-shape id = stop-signal-inner></div></div>","500","stop","500",""
"853","71","stop-signal","42","541092","0.0-10.0-21.0","sub-04_ses-01_1","","2522","0","stim","","<div class = coverbox></div><div class = shapebox><img class = stim src = /static/experiments/stop_signal/images/rectangle.png></img></div>","89,71","850","true","71","","test","21","<div class = coverbox></div><div class = stopbox><div class = centered-shape id = stop-signal></div><div class = centered-shape id = stop-signal-inner></div></div>","450","go","500",""
"748","89","stop-signal","43","543492","0.0-10.0-22.0","sub-04_ses-01_1","","2386","0","stim","","<div class = coverbox></div><div class = shapebox><img class = stim src = /static/experiments/stop_signal/images/oval.png></img></div>","89,71","850","true","89","","test","22","<div class = coverbox></div><div class = stopbox><div class = centered-shape id = stop-signal></div><div class = centered-shape id = stop-signal-inner></div></div>","450","go","500",""
"811","89","stop-signal","44","545752","0.0-10.0-23.0","sub-04_ses-01_1","","2250","0","stim","","<div class = coverbox></div><div class = shapebox><img class = stim src = /static/experiments/stop_signal/images/oval.png></img></div>","89,71","850","true","89","","test","23","<div class = coverbox></div><div class = stopbox><div class = centered-shape id = stop-signal></div><div class = centered-shape id = stop-signal-inner></div></div>","450","go","500",""
"833","71","stop-signal","45","548293","0.0-10.0-24.0","sub-04_ses-01_1","","2522","0","stim","","<div class = coverbox></div><div class = shapebox><img class = stim src = /static/experiments/stop_signal/images/trapezoid.png></img></div>","89,71","850","true","71","","test","24","<div class = coverbox></div><div class = stopbox><div class = centered-shape id = stop-signal></div><div class = centered-shape id = stop-signal-inner></div></div>","450","go","500",""
"848","89","stop-signal","46","551093","0.0-10.0-25.0","sub-04_ses-01_1","","2794","0","stim","","<div class = coverbox></div><div class = shapebox><img class = stim src = /static/experiments/stop_signal/images/oval.png></img></div>","89,71","850","true","89","","test","25","<div class = coverbox></div><div class = stopbox><div class = centered-shape id = stop-signal></div><div class = centered-shape id = stop-signal-inner></div></div>","450","go","500",""
"534","89","stop-signal","47","553633","0.0-10.0-26.0","sub-04_ses-01_1","","2522","0","stim","","<div class = coverbox></div><div class = shapebox><img class = stim src = /static/experiments/stop_signal/images/moon.png></img></div>","89,71","850","true","89","","test","26","<div class = coverbox></div><div class = stopbox><div class = centered-shape id = stop-signal></div><div class = centered-shape id = stop-signal-inner></div></div>","450","stop","500",""
"-1","-1","stop-signal","48","556033","0.0-10.0-27.0","sub-04_ses-01_1","","2386","0","stim","","<div class = coverbox></div><div class = shapebox><img class = stim src = /static/experiments/stop_signal/images/oval.png></img></div>","89,71","850","false","89","","test","27","<div class = coverbox></div><div class = stopbox><div class = centered-shape id = stop-signal></div><div class = centered-shape id = stop-signal-inner></div></div>","400","stop","500",""
"795","71","stop-signal","49","558292","0.0-10.0-28.0","sub-04_ses-01_1","","2250","0","stim","","<div class = coverbox></div><div class = shapebox><img class = stim src = /static/experiments/stop_signal/images/trapezoid.png></img></div>","89,71","850","true","71","","test","28","<div class = coverbox></div><div class = stopbox><div class = centered-shape id = stop-signal></div><div class = centered-shape id = stop-signal-inner></div></div>","450","go","500",""
"-1","-1","stop-signal","50","560562","0.0-10.0-29.0","sub-04_ses-01_1","","2250","0","stim","","<div class = coverbox></div><div class = shapebox><img class = stim src = /static/experiments/stop_signal/images/oval.png></img></div>","89,71","850","false","89","","test","29","<div class = coverbox></div><div class = stopbox><div class = centered-shape id = stop-signal></div><div class = centered-shape id = stop-signal-inner></div></div>","450","stop","500",""
"-1","-1","stop-signal","51","562823","0.0-10.0-30.0","sub-04_ses-01_1","","2250","0","stim","","<div class = coverbox></div><div class = shapebox><img class = stim src = /static/experiments/stop_signal/images/moon.png></img></div>","89,71","850","false","89","","test","30","<div class = coverbox></div><div class = stopbox><div class = centered-shape id = stop-signal></div><div class = centered-shape id = stop-signal-inner></div></div>","500","stop","500",""
"737","71","stop-signal","52","565082","0.0-10.0-31.0","sub-04_ses-01_1","","2250","0","stim","","<div class = coverbox></div><div class = shapebox><img class = stim src = /static/experiments/stop_signal/images/trapezoid.png></img></div>","89,71","850","true","71","","test","31","<div class = coverbox></div><div class = stopbox><div class = centered-shape id = stop-signal></div><div class = centered-shape id = stop-signal-inner></div></div>","550","stop","500",""
"1212","71","stop-signal","53","567623","0.0-10.0-32.0","sub-04_ses-01_1","","2522","0","stim","","<div class = coverbox></div><div class = shapebox><img class = stim src = /static/experiments/stop_signal/images/rectangle.png></img></div>","89,71","850","true","71","","test","32","<div class = coverbox></div><div class = stopbox><div class = centered-shape id = stop-signal></div><div class = centered-shape id = stop-signal-inner></div></div>","500","go","500",""
"678","71","stop-signal","54","569883","0.0-10.0-33.0","sub-04_ses-01_1","","2250","0","stim","","<div class = coverbox></div><div class = shapebox><img class = stim src = /static/experiments/stop_signal/images/rectangle.png></img></div>","89,71","850","true","71","","test","33","<div class = coverbox></div><div class = stopbox><div class = centered-shape id = stop-signal></div><div class = centered-shape id = stop-signal-inner></div></div>","500","go","500",""
"-1","-1","stop-signal","55","572143","0.0-10.0-34.0","sub-04_ses-01_1","","2250","0","stim","","<div class = coverbox></div><div class = shapebox><img class = stim src = /static/experiments/stop_signal/images/oval.png></img></div>","89,71","850","false","89","","test","34","<div class = coverbox></div><div class = stopbox><div class = centered-shape id = stop-signal></div><div class = centered-shape id = stop-signal-inner></div></div>","500","stop","500",""
"754","89","stop-signal","56","574413","0.0-10.0-35.0","sub-04_ses-01_1","","2250","0","stim","","<div class = coverbox></div><div class = shapebox><img class = stim src = /static/experiments/stop_signal/images/oval.png></img></div>","89,71","850","true","89","","test","35","<div class = coverbox></div><div class = stopbox><div class = centered-shape id = stop-signal></div><div class = centered-shape id = stop-signal-inner></div></div>","550","go","500",""
"841","89","stop-signal","57","576672","0.0-10.0-36.0","sub-04_ses-01_1","","2250","0","stim","","<div class = coverbox></div><div class = shapebox><img class = stim src = /static/experiments/stop_signal/images/moon.png></img></div>","89,71","850","true","89","","test","36","<div class = coverbox></div><div class = stopbox><div class = centered-shape id = stop-signal></div><div class = centered-shape id = stop-signal-inner></div></div>","550","go","500",""
"632","89","stop-signal","58","579077","0.0-10.0-37.0","sub-04_ses-01_1","","2386","0","stim","","<div class = coverbox></div><div class = shapebox><img class = stim src = /static/experiments/stop_signal/images/moon.png></img></div>","89,71","850","true","89","","test","37","<div class = coverbox></div><div class = stopbox><div class = centered-shape id = stop-signal></div><div class = centered-shape id = stop-signal-inner></div></div>","550","go","500",""
"784","89","stop-signal","59","581353","0.0-10.0-38.0","sub-04_ses-01_1","","2250","0","stim","","<div class = coverbox></div><div class = shapebox><img class = stim src = /static/experiments/stop_signal/images/moon.png></img></div>","89,71","850","true","89","","test","38","<div class = coverbox></div><div class = stopbox><div class = centered-shape id = stop-signal></div><div class = centered-shape id = stop-signal-inner></div></div>","550","go","500",""
"673","71","stop-signal","60","583612","0.0-10.0-39.0","sub-04_ses-01_1","","2250","0","stim","","<div class = coverbox></div><div class = shapebox><img class = stim src = /static/experiments/stop_signal/images/trapezoid.png></img></div>","89,71","850","true","71","","test","39","<div class = coverbox></div><div class = stopbox><div class = centered-shape id = stop-signal></div><div class = centered-shape id = stop-signal-inner></div></div>","550","stop","500",""
"797","71","stop-signal","61","585873","0.0-10.0-40.0","sub-04_ses-01_1","","2250","0","stim","","<div class = coverbox></div><div class = shapebox><img class = stim src = /static/experiments/stop_signal/images/rectangle.png></img></div>","89,71","850","true","71","","test","40","<div class = coverbox></div><div class = stopbox><div class = centered-shape id = stop-signal></div><div class = centered-shape id = stop-signal-inner></div></div>","500","go","500",""
"-1","-1","poldrack-single-stim","62","593383","0.0-11.0","sub-04_ses-01_1","","7500","1000","rest_block","","<div class = centerbox><div class = center-text>+</div></div>","none","7500","","","","","","","","","",""
"-1","-1","poldrack-single-stim","63","595922","0.0-12.0","sub-04_ses-01_1","","1500","500","test_start_block","","<div class = centerbox><div class = center-text>Preparez-vous!</p></div>","none","1500","","","","","","","","","",""
"641","71","stop-signal","64","598703","0.0-13.0-0.0","sub-04_ses-01_1","","2250","0","stim","","<div class = coverbox></div><div class = shapebox><img class = stim src = /static/experiments/stop_signal/images/trapezoid.png></img></div>","89,71","850","true","71","","test","41","<div class = coverbox></div><div class = stopbox><div class = centered-shape id = stop-signal></div><div class = centered-shape id = stop-signal-inner></div></div>","500","stop","500",""
"-1","-1","stop-signal","65","601242","0.0-13.0-1.0","sub-04_ses-01_1","","2522","0","stim","","<div class = coverbox></div><div class = shapebox><img class = stim src = /static/experiments/stop_signal/images/oval.png></img></div>","89,71","850","false","89","","test","42","<div class = coverbox></div><div class = stopbox><div class = centered-shape id = stop-signal></div><div class = centered-shape id = stop-signal-inner></div></div>","450","stop","500",""
"792","71","stop-signal","66","603634","0.0-13.0-2.0","sub-04_ses-01_1","","2386","0","stim","","<div class = coverbox></div><div class = shapebox><img class = stim src = /static/experiments/stop_signal/images/trapezoid.png></img></div>","89,71","850","true","71","","test","43","<div class = coverbox></div><div class = stopbox><div class = centered-shape id = stop-signal></div><div class = centered-shape id = stop-signal-inner></div></div>","500","go","500",""
"833","71","stop-signal","67","606173","0.0-13.0-3.0","sub-04_ses-01_1","","2522","0","stim","","<div class = coverbox></div><div class = shapebox><img class = stim src = /static/experiments/stop_signal/images/trapezoid.png></img></div>","89,71","850","true","71","","test","44","<div class = coverbox></div><div class = stopbox><div class = centered-shape id = stop-signal></div><div class = centered-shape id = stop-signal-inner></div></div>","500","go","500",""
"649","89","stop-signal","68","608431","0.0-13.0-4.0","sub-04_ses-01_1","","2250","0","stim","","<div class = coverbox></div><div class = shapebox><img class = stim src = /static/experiments/stop_signal/images/moon.png></img></div>","89,71","850","true","89","","test","45","<div class = coverbox></div><div class = stopbox><div class = centered-shape id = stop-signal></div><div class = centered-shape id = stop-signal-inner></div></div>","500","stop","500",""
"918","89","stop-signal","69","610833","0.0-13.0-5.0","sub-04_ses-01_1","","2386","0","stim","","<div class = coverbox></div><div class = shapebox><img class = stim src = /static/experiments/stop_signal/images/oval.png></img></div>","89,71","850","true","89","","test","46","<div class = coverbox></div><div class = stopbox><div class = centered-shape id = stop-signal></div><div class = centered-shape id = stop-signal-inner></div></div>","450","go","500",""
"844","89","stop-signal","70","613233","0.0-13.0-6.0","sub-04_ses-01_1","","2386","0","stim","","<div class = coverbox></div><div class = shapebox><img class = stim src = /static/experiments/stop_signal/images/oval.png></img></div>","89,71","850","true","89","","test","47","<div class = coverbox></div><div class = stopbox><div class = centered-shape id = stop-signal></div><div class = centered-shape id = stop-signal-inner></div></div>","450","go","500",""
"624","71","stop-signal","71","615503","0.0-13.0-7.0","sub-04_ses-01_1","","2250","0","stim","","<div class = coverbox></div><div class = shapebox><img class = stim src = /static/experiments/stop_signal/images/trapezoid.png></img></div>","89,71","850","true","71","","test","48","<div class = coverbox></div><div class = stopbox><div class = centered-shape id = stop-signal></div><div class = centered-shape id = stop-signal-inner></div></div>","450","go","500",""
"742","89","stop-signal","72","617912","0.0-13.0-8.0","sub-04_ses-01_1","","2386","0","stim","","<div class = coverbox></div><div class = shapebox><img class = stim src = /static/experiments/stop_signal/images/oval.png></img></div>","89,71","850","true","89","","test","49","<div class = coverbox></div><div class = stopbox><div class = centered-shape id = stop-signal></div><div class = centered-shape id = stop-signal-inner></div></div>","450","go","500",""
"748","89","stop-signal","73","620302","0.0-13.0-9.0","sub-04_ses-01_1","","2386","0","stim","","<div class = coverbox></div><div class = shapebox><img class = stim src = /static/experiments/stop_signal/images/moon.png></img></div>","89,71","850","true","89","","test","50","<div class = coverbox></div><div class = stopbox><div class = centered-shape id = stop-signal></div><div class = centered-shape id = stop-signal-inner></div></div>","450","go","500",""
"-1","-1","stop-signal","74","622693","0.0-13.0-10.0","sub-04_ses-01_1","","2386","0","stim","","<div class = coverbox></div><div class = shapebox><img class = stim src = /static/experiments/stop_signal/images/rectangle.png></img></div>","89,71","850","false","71","","test","51","<div class = coverbox></div><div class = stopbox><div class = centered-shape id = stop-signal></div><div class = centered-shape id = stop-signal-inner></div></div>","450","stop","500",""
"818","71","stop-signal","75","625373","0.0-13.0-11.0","sub-04_ses-01_1","","2658","0","stim","","<div class = coverbox></div><div class = shapebox><img class = stim src = /static/experiments/stop_signal/images/rectangle.png></img></div>","89,71","850","true","71","","test","52","<div class = coverbox></div><div class = stopbox><div class = centered-shape id = stop-signal></div><div class = centered-shape id = stop-signal-inner></div></div>","500","go","500",""
"787","89","stop-signal","76","627913","0.0-13.0-12.0","sub-04_ses-01_1","","2522","0","stim","","<div class = coverbox></div><div class = shapebox><img class = stim src = /static/experiments/stop_signal/images/oval.png></img></div>","89,71","850","true","89","","test","53","<div class = coverbox></div><div class = stopbox><div class = centered-shape id = stop-signal></div><div class = centered-shape id = stop-signal-inner></div></div>","500","go","500",""
"628","89","stop-signal","77","630172","0.0-13.0-13.0","sub-04_ses-01_1","","2250","0","stim","","<div class = coverbox></div><div class = shapebox><img class = stim src = /static/experiments/stop_signal/images/moon.png></img></div>","89,71","850","true","89","","test","54","<div class = coverbox></div><div class = stopbox><div class = centered-shape id = stop-signal></div><div class = centered-shape id = stop-signal-inner></div></div>","500","stop","500",""
"-1","-1","stop-signal","78","633113","0.0-13.0-14.0","sub-04_ses-01_1","","2930","0","stim","","<div class = coverbox></div><div class = shapebox><img class = stim src = /static/experiments/stop_signal/images/rectangle.png></img></div>","89,71","850","false","71","","test","55","<div class = coverbox></div><div class = stopbox><div class = centered-shape id = stop-signal></div><div class = centered-shape id = stop-signal-inner></div></div>","450","stop","500",""
"863","89","stop-signal","79","635372","0.0-13.0-15.0","sub-04_ses-01_1","","2250","0","stim","","<div class = coverbox></div><div class = shapebox><img class = stim src = /static/experiments/stop_signal/images/moon.png></img></div>","89,71","850","true","89","","test","56","<div class = coverbox></div><div class = stopbox><div class = centered-shape id = stop-signal></div><div class = centered-shape id = stop-signal-inner></div></div>","500","go","500",""
"751","71","stop-signal","80","637913","0.0-13.0-16.0","sub-04_ses-01_1","","2522","0","stim","","<div class = coverbox></div><div class = shapebox><img class = stim src = /static/experiments/stop_signal/images/rectangle.png></img></div>","89,71","850","true","71","","test","57","<div class = coverbox></div><div class = stopbox><div class = centered-shape id = stop-signal></div><div class = centered-shape id = stop-signal-inner></div></div>","500","go","500",""
"682","89","stop-signal","81","640184","0.0-13.0-17.0","sub-04_ses-01_1","","2250","0","stim","","<div class = coverbox></div><div class = shapebox><img class = stim src = /static/experiments/stop_signal/images/oval.png></img></div>","89,71","850","true","89","","test","58","<div class = coverbox></div><div class = stopbox><div class = centered-shape id = stop-signal></div><div class = centered-shape id = stop-signal-inner></div></div>","500","stop","500",""
"752","89","stop-signal","82","642452","0.0-13.0-18.0","sub-04_ses-01_1","","2250","0","stim","","<div class = coverbox></div><div class = shapebox><img class = stim src = /static/experiments/stop_signal/images/oval.png></img></div>","89,71","850","true","89","","test","59","<div class = coverbox></div><div class = stopbox><div class = centered-shape id = stop-signal></div><div class = centered-shape id = stop-signal-inner></div></div>","450","go","500",""
"808","71","stop-signal","83","644712","0.0-13.0-19.0","sub-04_ses-01_1","","2250","0","stim","","<div class = coverbox></div><div class = shapebox><img class = stim src = /static/experiments/stop_signal/images/trapezoid.png></img></div>","89,71","850","true","71","","test","60","<div class = coverbox></div><div class = stopbox><div class = centered-shape id = stop-signal></div><div class = centered-shape id = stop-signal-inner></div></div>","450","go","500",""
"785","71","stop-signal","84","646971","0.0-13.0-20.0","sub-04_ses-01_1","","2250","0","stim","","<div class = coverbox></div><div class = shapebox><img class = stim src = /static/experiments/stop_signal/images/trapezoid.png></img></div>","89,71","850","true","71","","test","61","<div class = coverbox></div><div class = stopbox><div class = centered-shape id = stop-signal></div><div class = centered-shape id = stop-signal-inner></div></div>","450","go","500",""
"788","71","stop-signal","85","649511","0.0-13.0-21.0","sub-04_ses-01_1","","2522","0","stim","","<div class = coverbox></div><div class = shapebox><img class = stim src = /static/experiments/stop_signal/images/trapezoid.png></img></div>","89,71","850","true","71","","test","62","<div class = coverbox></div><div class = stopbox><div class = centered-shape id = stop-signal></div><div class = centered-shape id = stop-signal-inner></div></div>","450","go","500",""
"-1","-1","stop-signal","86","652592","0.0-13.0-22.0","sub-04_ses-01_1","","3066","0","stim","","<div class = coverbox></div><div class = shapebox><img class = stim src = /static/experiments/stop_signal/images/moon.png></img></div>","89,71","850","false","89","","test","63","<div class = coverbox></div><div class = stopbox><div class = centered-shape id = stop-signal></div><div class = centered-shape id = stop-signal-inner></div></div>","450","stop","500",""
"-1","-1","stop-signal","87","654854","0.0-13.0-23.0","sub-04_ses-01_1","","2250","0","stim","","<div class = coverbox></div><div class = shapebox><img class = stim src = /static/experiments/stop_signal/images/trapezoid.png></img></div>","89,71","850","false","71","","test","64","<div class = coverbox></div><div class = stopbox><div class = centered-shape id = stop-signal></div><div class = centered-shape id = stop-signal-inner></div></div>","500","stop","500",""
"808","89","stop-signal","88","657252","0.0-13.0-24.0","sub-04_ses-01_1","","2386","0","stim","","<div class = coverbox></div><div class = shapebox><img class = stim src = /static/experiments/stop_signal/images/moon.png></img></div>","89,71","850","true","89","","test","65","<div class = coverbox></div><div class = stopbox><div class = centered-shape id = stop-signal></div><div class = centered-shape id = stop-signal-inner></div></div>","550","go","500",""
"-1","-1","stop-signal","89","659641","0.0-13.0-25.0","sub-04_ses-01_1","","2386","0","stim","","<div class = coverbox></div><div class = shapebox><img class = stim src = /static/experiments/stop_signal/images/oval.png></img></div>","89,71","850","false","89","","test","66","<div class = coverbox></div><div class = stopbox><div class = centered-shape id = stop-signal></div><div class = centered-shape id = stop-signal-inner></div></div>","550","stop","500",""
"763","71","stop-signal","90","662183","0.0-13.0-26.0","sub-04_ses-01_1","","2522","0","stim","","<div class = coverbox></div><div class = shapebox><img class = stim src = /static/experiments/stop_signal/images/rectangle.png></img></div>","89,71","850","true","71","","test","67","<div class = coverbox></div><div class = stopbox><div class = centered-shape id = stop-signal></div><div class = centered-shape id = stop-signal-inner></div></div>","600","go","500",""
"796","71","stop-signal","91","664583","0.0-13.0-27.0","sub-04_ses-01_1","","2386","0","stim","","<div class = coverbox></div><div class = shapebox><img class = stim src = /static/experiments/stop_signal/images/trapezoid.png></img></div>","89,71","850","true","71","","test","68","<div class = coverbox></div><div class = stopbox><div class = centered-shape id = stop-signal></div><div class = centered-shape id = stop-signal-inner></div></div>","600","go","500",""
"848","89","stop-signal","92","666983","0.0-13.0-28.0","sub-04_ses-01_1","","2386","0","stim","","<div class = coverbox></div><div class = shapebox><img class = stim src = /static/experiments/stop_signal/images/moon.png></img></div>","89,71","850","true","89","","test","69","<div class = coverbox></div><div class = stopbox><div class = centered-shape id = stop-signal></div><div class = centered-shape id = stop-signal-inner></div></div>","600","go","500",""
"802","71","stop-signal","93","669783","0.0-13.0-29.0","sub-04_ses-01_1","","2794","0","stim","","<div class = coverbox></div><div class = shapebox><img class = stim src = /static/experiments/stop_signal/images/rectangle.png></img></div>","89,71","850","true","71","","test","70","<div class = coverbox></div><div class = stopbox><div class = centered-shape id = stop-signal></div><div class = centered-shape id = stop-signal-inner></div></div>","600","stop","500",""
"767","89","stop-signal","94","672182","0.0-13.0-30.0","sub-04_ses-01_1","","2386","0","stim","","<div class = coverbox></div><div class = shapebox><img class = stim src = /static/experiments/stop_signal/images/moon.png></img></div>","89,71","850","true","89","","test","71","<div class = coverbox></div><div class = stopbox><div class = centered-shape id = stop-signal></div><div class = centered-shape id = stop-signal-inner></div></div>","550","go","500",""
"-1","-1","stop-signal","95","674444","0.0-13.0-31.0","sub-04_ses-01_1","","2250","0","stim","","<div class = coverbox></div><div class = shapebox><img class = stim src = /static/experiments/stop_signal/images/moon.png></img></div>","89,71","850","false","89","","test","72","<div class = coverbox></div><div class = stopbox><div class = centered-shape id = stop-signal></div><div class = centered-shape id = stop-signal-inner></div></div>","550","stop","500",""
"-1","-1","stop-signal","96","676986","0.0-13.0-32.0","sub-04_ses-01_1","","2522","0","stim","","<div class = coverbox></div><div class = shapebox><img class = stim src = /static/experiments/stop_signal/images/rectangle.png></img></div>","89,71","850","false","71","","test","73","<div class = coverbox></div><div class = stopbox><div class = centered-shape id = stop-signal></div><div class = centered-shape id = stop-signal-inner></div></div>","600","stop","500",""
"812","89","stop-signal","97","679384","0.0-13.0-33.0","sub-04_ses-01_1","","2386","0","stim","","<div class = coverbox></div><div class = shapebox><img class = stim src = /static/experiments/stop_signal/images/moon.png></img></div>","89,71","850","true","89","","test","74","<div class = coverbox></div><div class = stopbox><div class = centered-shape id = stop-signal></div><div class = centered-shape id = stop-signal-inner></div></div>","650","stop","500",""
"1139","89","stop-signal","98","681794","0.0-13.0-34.0","sub-04_ses-01_1","","2386","0","stim","","<div class = coverbox></div><div class = shapebox><img class = stim src = /static/experiments/stop_signal/images/oval.png></img></div>","89,71","850","true","89","","test","75","<div class = coverbox></div><div class = stopbox><div class = centered-shape id = stop-signal></div><div class = centered-shape id = stop-signal-inner></div></div>","600","go","500",""
"740","71","stop-signal","99","684053","0.0-13.0-35.0","sub-04_ses-01_1","","2250","0","stim","","<div class = coverbox></div><div class = shapebox><img class = stim src = /static/experiments/stop_signal/images/rectangle.png></img></div>","89,71","850","true","71","","test","76","<div class = coverbox></div><div class = stopbox><div class = centered-shape id = stop-signal></div><div class = centered-shape id = stop-signal-inner></div></div>","600","stop","500",""
"913","71","stop-signal","100","686452","0.0-13.0-36.0","sub-04_ses-01_1","","2386","0","stim","","<div class = coverbox></div><div class = shapebox><img class = stim src = /static/experiments/stop_signal/images/rectangle.png></img></div>","89,71","850","true","71","","test","77","<div class = coverbox></div><div class = stopbox><div class = centered-shape id = stop-signal></div><div class = centered-shape id = stop-signal-inner></div></div>","550","go","500",""
"669","71","stop-signal","101","688713","0.0-13.0-37.0","sub-04_ses-01_1","","2250","0","stim","","<div class = coverbox></div><div class = shapebox><img class = stim src = /static/experiments/stop_signal/images/rectangle.png></img></div>","89,71","850","true","71","","test","78","<div class = coverbox></div><div class = stopbox><div class = centered-shape id = stop-signal></div><div class = centered-shape id = stop-signal-inner></div></div>","550","go","500",""
"-1","-1","stop-signal","102","690974","0.0-13.0-38.0","sub-04_ses-01_1","","2250","0","stim","","<div class = coverbox></div><div class = shapebox><img class = stim src = /static/experiments/stop_signal/images/oval.png></img></div>","89,71","850","false","89","","test","79","<div class = coverbox></div><div class = stopbox><div class = centered-shape id = stop-signal></div><div class = centered-shape id = stop-signal-inner></div></div>","550","stop","500",""
"585","71","stop-signal","103","693234","0.0-13.0-39.0","sub-04_ses-01_1","","2250","0","stim","","<div class = coverbox></div><div class = shapebox><img class = stim src = /static/experiments/stop_signal/images/trapezoid.png></img></div>","89,71","850","true","71","","test","80","<div class = coverbox></div><div class = stopbox><div class = centered-shape id = stop-signal></div><div class = centered-shape id = stop-signal-inner></div></div>","600","go","500",""
"821","89","stop-signal","104","695631","0.0-13.0-40.0","sub-04_ses-01_1","","2386","0","stim","","<div class = coverbox></div><div class = shapebox><img class = stim src = /static/experiments/stop_signal/images/moon.png></img></div>","89,71","850","true","89","","test","81","<div class = coverbox></div><div class = stopbox><div class = centered-shape id = stop-signal></div><div class = centered-shape id = stop-signal-inner></div></div>","600","go","500",""
"768","89","stop-signal","105","697903","0.0-13.0-41.0","sub-04_ses-01_1","","2250","0","stim","","<div class = coverbox></div><div class = shapebox><img class = stim src = /static/experiments/stop_signal/images/moon.png></img></div>","89,71","850","true","89","","test","82","<div class = coverbox></div><div class = stopbox><div class = centered-shape id = stop-signal></div><div class = centered-shape id = stop-signal-inner></div></div>","600","stop","500",""
"-1","-1","poldrack-single-stim","106","705430","0.0-14.0","sub-04_ses-01_1","","7500","1000","rest_block","","<div class = centerbox><div class = center-text>+</div></div>","none","7500","","","","","","","","","",""
"-1","-1","poldrack-single-stim","107","707965","0.0-15.0","sub-04_ses-01_1","","1500","500","test_start_block","","<div class = centerbox><div class = center-text>Preparez-vous!</p></div>","none","1500","","","","","","","","","",""
"698","89","stop-signal","108","710744","0.0-16.0-0.0","sub-04_ses-01_1","","2250","0","stim","","<div class = coverbox></div><div class = shapebox><img class = stim src = /static/experiments/stop_signal/images/oval.png></img></div>","89,71","850","true","89","","test","83","<div class = coverbox></div><div class = stopbox><div class = centered-shape id = stop-signal></div><div class = centered-shape id = stop-signal-inner></div></div>","550","stop","500",""
"-1","-1","stop-signal","109","713142","0.0-16.0-1.0","sub-04_ses-01_1","","2386","0","stim","","<div class = coverbox></div><div class = shapebox><img class = stim src = /static/experiments/stop_signal/images/rectangle.png></img></div>","89,71","850","false","71","","test","84","<div class = coverbox></div><div class = stopbox><div class = centered-shape id = stop-signal></div><div class = centered-shape id = stop-signal-inner></div></div>","500","stop","500",""
"661","71","stop-signal","110","715543","0.0-16.0-2.0","sub-04_ses-01_1","","2386","0","stim","","<div class = coverbox></div><div class = shapebox><img class = stim src = /static/experiments/stop_signal/images/trapezoid.png></img></div>","89,71","850","true","71","","test","85","<div class = coverbox></div><div class = stopbox><div class = centered-shape id = stop-signal></div><div class = centered-shape id = stop-signal-inner></div></div>","550","stop","500",""
"871","89","stop-signal","111","717802","0.0-16.0-3.0","sub-04_ses-01_1","","2250","0","stim","","<div class = coverbox></div><div class = shapebox><img class = stim src = /static/experiments/stop_signal/images/moon.png></img></div>","89,71","850","true","89","","test","86","<div class = coverbox></div><div class = stopbox><div class = centered-shape id = stop-signal></div><div class = centered-shape id = stop-signal-inner></div></div>","500","go","500",""
"-1","-1","stop-signal","112","720344","0.0-16.0-4.0","sub-04_ses-01_1","","2522","0","stim","","<div class = coverbox></div><div class = shapebox><img class = stim src = /static/experiments/stop_signal/images/moon.png></img></div>","89,71","850","false","89","","test","87","<div class = coverbox></div><div class = stopbox><div class = centered-shape id = stop-signal></div><div class = centered-shape id = stop-signal-inner></div></div>","500","stop","500",""
"836","71","stop-signal","113","722603","0.0-16.0-5.0","sub-04_ses-01_1","","2250","0","stim","","<div class = coverbox></div><div class = shapebox><img class = stim src = /static/experiments/stop_signal/images/trapezoid.png></img></div>","89,71","850","true","71","","test","88","<div class = coverbox></div><div class = stopbox><div class = centered-shape id = stop-signal></div><div class = centered-shape id = stop-signal-inner></div></div>","550","go","500",""
"861","89","stop-signal","114","725002","0.0-16.0-6.0","sub-04_ses-01_1","","2386","0","stim","","<div class = coverbox></div><div class = shapebox><img class = stim src = /static/experiments/stop_signal/images/oval.png></img></div>","89,71","850","true","89","","test","89","<div class = coverbox></div><div class = stopbox><div class = centered-shape id = stop-signal></div><div class = centered-shape id = stop-signal-inner></div></div>","550","go","500",""
"897","71","stop-signal","115","727272","0.0-16.0-7.0","sub-04_ses-01_1","","2250","0","stim","","<div class = coverbox></div><div class = shapebox><img class = stim src = /static/experiments/stop_signal/images/rectangle.png></img></div>","89,71","850","true","71","","test","90","<div class = coverbox></div><div class = stopbox><div class = centered-shape id = stop-signal></div><div class = centered-shape id = stop-signal-inner></div></div>","550","go","500",""
"-1","-1","stop-signal","116","729533","0.0-16.0-8.0","sub-04_ses-01_1","","2250","0","stim","","<div class = coverbox></div><div class = shapebox><img class = stim src = /static/experiments/stop_signal/images/moon.png></img></div>","89,71","850","false","89","","test","91","<div class = coverbox></div><div class = stopbox><div class = centered-shape id = stop-signal></div><div class = centered-shape id = stop-signal-inner></div></div>","550","stop","500",""
"958","89","stop-signal","117","731922","0.0-16.0-9.0","sub-04_ses-01_1","","2386","0","stim","","<div class = coverbox></div><div class = shapebox><img class = stim src = /static/experiments/stop_signal/images/moon.png></img></div>","89,71","850","true","89","","test","92","<div class = coverbox></div><div class = stopbox><div class = centered-shape id = stop-signal></div><div class = centered-shape id = stop-signal-inner></div></div>","600","go","500",""
"806","71","stop-signal","118","734463","0.0-16.0-10.0","sub-04_ses-01_1","","2522","0","stim","","<div class = coverbox></div><div class = shapebox><img class = stim src = /static/experiments/stop_signal/images/trapezoid.png></img></div>","89,71","850","true","71","","test","93","<div class = coverbox></div><div class = stopbox><div class = centered-shape id = stop-signal></div><div class = centered-shape id = stop-signal-inner></div></div>","600","go","500",""
"757","89","stop-signal","119","736863","0.0-16.0-11.0","sub-04_ses-01_1","","2386","0","stim","","<div class = coverbox></div><div class = shapebox><img class = stim src = /static/experiments/stop_signal/images/moon.png></img></div>","89,71","850","true","89","","test","94","<div class = coverbox></div><div class = stopbox><div class = centered-shape id = stop-signal></div><div class = centered-shape id = stop-signal-inner></div></div>","600","go","500",""
"1120","89","stop-signal","120","739403","0.0-16.0-12.0","sub-04_ses-01_1","","2522","0","stim","","<div class = coverbox></div><div class = shapebox><img class = stim src = /static/experiments/stop_signal/images/oval.png></img></div>","89,71","850","true","89","","test","95","<div class = coverbox></div><div class = stopbox><div class = centered-shape id = stop-signal></div><div class = centered-shape id = stop-signal-inner></div></div>","600","go","500",""
"-1","-1","stop-signal","121","742355","0.0-16.0-13.0","sub-04_ses-01_1","","2930","0","stim","","<div class = coverbox></div><div class = shapebox><img class = stim src = /static/experiments/stop_signal/images/rectangle.png></img></div>","89,71","850","false","71","","test","96","<div class = coverbox></div><div class = stopbox><div class = centered-shape id = stop-signal></div><div class = centered-shape id = stop-signal-inner></div></div>","600","stop","500",""
"886","71","stop-signal","122","744883","0.0-16.0-14.0","sub-04_ses-01_1","","2522","0","stim","","<div class = coverbox></div><div class = shapebox><img class = stim src = /static/experiments/stop_signal/images/rectangle.png></img></div>","89,71","850","true","71","","test","97","<div class = coverbox></div><div class = stopbox><div class = centered-shape id = stop-signal></div><div class = centered-shape id = stop-signal-inner></div></div>","650","go","500",""
"879","89","stop-signal","123","747413","0.0-16.0-15.0","sub-04_ses-01_1","","2522","0","stim","","<div class = coverbox></div><div class = shapebox><img class = stim src = /static/experiments/stop_signal/images/moon.png></img></div>","89,71","850","true","89","","test","98","<div class = coverbox></div><div class = stopbox><div class = centered-shape id = stop-signal></div><div class = centered-shape id = stop-signal-inner></div></div>","650","go","500",""
"809","71","stop-signal","124","749673","0.0-16.0-16.0","sub-04_ses-01_1","","2250","0","stim","","<div class = coverbox></div><div class = shapebox><img class = stim src = /static/experiments/stop_signal/images/trapezoid.png></img></div>","89,71","850","true","71","","test","99","<div class = coverbox></div><div class = stopbox><div class = centered-shape id = stop-signal></div><div class = centered-shape id = stop-signal-inner></div></div>","650","go","500",""
"795","71","stop-signal","125","752203","0.0-16.0-17.0","sub-04_ses-01_1","","2522","0","stim","","<div class = coverbox></div><div class = shapebox><img class = stim src = /static/experiments/stop_signal/images/trapezoid.png></img></div>","89,71","850","true","71","","test","100","<div class = coverbox></div><div class = stopbox><div class = centered-shape id = stop-signal></div><div class = centered-shape id = stop-signal-inner></div></div>","650","stop","500",""
"804","71","stop-signal","126","754603","0.0-16.0-18.0","sub-04_ses-01_1","","2386","0","stim","","<div class = coverbox></div><div class = shapebox><img class = stim src = /static/experiments/stop_signal/images/trapezoid.png></img></div>","89,71","850","true","71","","test","101","<div class = coverbox></div><div class = stopbox><div class = centered-shape id = stop-signal></div><div class = centered-shape id = stop-signal-inner></div></div>","600","go","500",""
"758","71","stop-signal","127","756872","0.0-16.0-19.0","sub-04_ses-01_1","","2250","0","stim","","<div class = coverbox></div><div class = shapebox><img class = stim src = /static/experiments/stop_signal/images/rectangle.png></img></div>","89,71","850","true","71","","test","102","<div class = coverbox></div><div class = stopbox><div class = centered-shape id = stop-signal></div><div class = centered-shape id = stop-signal-inner></div></div>","600","go","500",""
"671","89","stop-signal","128","759263","0.0-16.0-20.0","sub-04_ses-01_1","","2386","0","stim","","<div class = coverbox></div><div class = shapebox><img class = stim src = /static/experiments/stop_signal/images/oval.png></img></div>","89,71","850","true","89","","test","103","<div class = coverbox></div><div class = stopbox><div class = centered-shape id = stop-signal></div><div class = centered-shape id = stop-signal-inner></div></div>","600","go","500",""
"852","89","stop-signal","129","761522","0.0-16.0-21.0","sub-04_ses-01_1","","2250","0","stim","","<div class = coverbox></div><div class = shapebox><img class = stim src = /static/experiments/stop_signal/images/moon.png></img></div>","89,71","850","true","89","","test","104","<div class = coverbox></div><div class = stopbox><div class = centered-shape id = stop-signal></div><div class = centered-shape id = stop-signal-inner></div></div>","600","go","500",""
"1022","71","stop-signal","130","763923","0.0-16.0-22.0","sub-04_ses-01_1","","2386","0","stim","","<div class = coverbox></div><div class = shapebox><img class = stim src = /static/experiments/stop_signal/images/trapezoid.png></img></div>","89,71","850","true","71","","test","105","<div class = coverbox></div><div class = stopbox><div class = centered-shape id = stop-signal></div><div class = centered-shape id = stop-signal-inner></div></div>","600","stop","500",""
"861","71","stop-signal","131","766464","0.0-16.0-23.0","sub-04_ses-01_1","","2522","0","stim","","<div class = coverbox></div><div class = shapebox><img class = stim src = /static/experiments/stop_signal/images/rectangle.png></img></div>","89,71","850","true","71","","test","106","<div class = coverbox></div><div class = stopbox><div class = centered-shape id = stop-signal></div><div class = centered-shape id = stop-signal-inner></div></div>","550","go","500",""
"-1","-1","stop-signal","132","768724","0.0-16.0-24.0","sub-04_ses-01_1","","2250","0","stim","","<div class = coverbox></div><div class = shapebox><img class = stim src = /static/experiments/stop_signal/images/moon.png></img></div>","89,71","850","false","89","","test","107","<div class = coverbox></div><div class = stopbox><div class = centered-shape id = stop-signal></div><div class = centered-shape id = stop-signal-inner></div></div>","550","stop","500",""
"801","71","stop-signal","133","771123","0.0-16.0-25.0","sub-04_ses-01_1","","2386","0","stim","","<div class = coverbox></div><div class = shapebox><img class = stim src = /static/experiments/stop_signal/images/trapezoid.png></img></div>","89,71","850","true","71","","test","108","<div class = coverbox></div><div class = stopbox><div class = centered-shape id = stop-signal></div><div class = centered-shape id = stop-signal-inner></div></div>","600","stop","500",""
"932","89","stop-signal","134","773803","0.0-16.0-26.0","sub-04_ses-01_1","","2658","0","stim","","<div class = coverbox></div><div class = shapebox><img class = stim src = /static/experiments/stop_signal/images/moon.png></img></div>","89,71","850","true","89","","test","109","<div class = coverbox></div><div class = stopbox><div class = centered-shape id = stop-signal></div><div class = centered-shape id = stop-signal-inner></div></div>","550","go","500",""
"722","71","stop-signal","135","776064","0.0-16.0-27.0","sub-04_ses-01_1","","2250","0","stim","","<div class = coverbox></div><div class = shapebox><img class = stim src = /static/experiments/stop_signal/images/trapezoid.png></img></div>","89,71","850","true","71","","test","110","<div class = coverbox></div><div class = stopbox><div class = centered-shape id = stop-signal></div><div class = centered-shape id = stop-signal-inner></div></div>","550","stop","500",""
"878","71","stop-signal","136","779282","0.0-16.0-28.0","sub-04_ses-01_1","","3202","0","stim","","<div class = coverbox></div><div class = shapebox><img class = stim src = /static/experiments/stop_signal/images/trapezoid.png></img></div>","89,71","850","true","71","","test","111","<div class = coverbox></div><div class = stopbox><div class = centered-shape id = stop-signal></div><div class = centered-shape id = stop-signal-inner></div></div>","500","go","500",""
"680","89","stop-signal","137","781683","0.0-16.0-29.0","sub-04_ses-01_1","","2386","0","stim","","<div class = coverbox></div><div class = shapebox><img class = stim src = /static/experiments/stop_signal/images/moon.png></img></div>","89,71","850","true","89","","test","112","<div class = coverbox></div><div class = stopbox><div class = centered-shape id = stop-signal></div><div class = centered-shape id = stop-signal-inner></div></div>","500","go","500",""
"839","71","stop-signal","138","784072","0.0-16.0-30.0","sub-04_ses-01_1","","2386","0","stim","","<div class = coverbox></div><div class = shapebox><img class = stim src = /static/experiments/stop_signal/images/trapezoid.png></img></div>","89,71","850","true","71","","test","113","<div class = coverbox></div><div class = stopbox><div class = centered-shape id = stop-signal></div><div class = centered-shape id = stop-signal-inner></div></div>","500","go","500",""
"637","71","stop-signal","139","786613","0.0-16.0-31.0","sub-04_ses-01_1","","2522","0","stim","","<div class = coverbox></div><div class = shapebox><img class = stim src = /static/experiments/stop_signal/images/rectangle.png></img></div>","89,71","850","true","71","","test","114","<div class = coverbox></div><div class = stopbox><div class = centered-shape id = stop-signal></div><div class = centered-shape id = stop-signal-inner></div></div>","500","stop","500",""
"746","71","stop-signal","140","788883","0.0-16.0-32.0","sub-04_ses-01_1","","2250","0","stim","","<div class = coverbox></div><div class = shapebox><img class = stim src = /static/experiments/stop_signal/images/trapezoid.png></img></div>","89,71","850","true","71","","test","115","<div class = coverbox></div><div class = stopbox><div class = centered-shape id = stop-signal></div><div class = centered-shape id = stop-signal-inner></div></div>","450","go","500",""
"-1","-1","stop-signal","141","791153","0.0-16.0-33.0","sub-04_ses-01_1","","2250","0","stim","","<div class = coverbox></div><div class = shapebox><img class = stim src = /static/experiments/stop_signal/images/oval.png></img></div>","89,71","850","false","89","","test","116","<div class = coverbox></div><div class = stopbox><div class = centered-shape id = stop-signal></div><div class = centered-shape id = stop-signal-inner></div></div>","450","stop","500",""
"700","71","stop-signal","142","793414","0.0-16.0-34.0","sub-04_ses-01_1","","2250","0","stim","","<div class = coverbox></div><div class = shapebox><img class = stim src = /static/experiments/stop_signal/images/trapezoid.png></img></div>","89,71","850","true","71","","test","117","<div class = coverbox></div><div class = stopbox><div class = centered-shape id = stop-signal></div><div class = centered-shape id = stop-signal-inner></div></div>","500","stop","500",""
"738","89","stop-signal","143","796354","0.0-16.0-35.0","sub-04_ses-01_1","","2930","0","stim","","<div class = coverbox></div><div class = shapebox><img class = stim src = /static/experiments/stop_signal/images/oval.png></img></div>","89,71","850","true","89","","test","118","<div class = coverbox></div><div class = stopbox><div class = centered-shape id = stop-signal></div><div class = centered-shape id = stop-signal-inner></div></div>","450","go","500",""
"822","71","stop-signal","144","798893","0.0-16.0-36.0","sub-04_ses-01_1","","2522","0","stim","","<div class = coverbox></div><div class = shapebox><img class = stim src = /static/experiments/stop_signal/images/rectangle.png></img></div>","89,71","850","true","71","","test","119","<div class = coverbox></div><div class = stopbox><div class = centered-shape id = stop-signal></div><div class = centered-shape id = stop-signal-inner></div></div>","450","go","500",""
"738","89","stop-signal","145","801433","0.0-16.0-37.0","sub-04_ses-01_1","","2522","0","stim","","<div class = coverbox></div><div class = shapebox><img class = stim src = /static/experiments/stop_signal/images/oval.png></img></div>","89,71","850","true","89","","test","120","<div class = coverbox></div><div class = stopbox><div class = centered-shape id = stop-signal></div><div class = centered-shape id = stop-signal-inner></div></div>","450","go","500",""
"892","89","stop-signal","146","803693","0.0-16.0-38.0","sub-04_ses-01_1","","2250","0","stim","","<div class = coverbox></div><div class = shapebox><img class = stim src = /static/experiments/stop_signal/images/moon.png></img></div>","89,71","850","true","89","","test","121","<div class = coverbox></div><div class = stopbox><div class = centered-shape id = stop-signal></div><div class = centered-shape id = stop-signal-inner></div></div>","450","go","500",""
"-1","-1","stop-signal","147","806233","0.0-16.0-39.0","sub-04_ses-01_1","","2522","0","stim","","<div class = coverbox></div><div class = shapebox><img class = stim src = /static/experiments/stop_signal/images/rectangle.png></img></div>","89,71","850","false","71","","test","122","<div class = coverbox></div><div class = stopbox><div class = centered-shape id = stop-signal></div><div class = centered-shape id = stop-signal-inner></div></div>","450","stop","500",""
"-1","-1","stop-signal","148","808493","0.0-16.0-40.0","sub-04_ses-01_1","","2250","0","stim","","<div class = coverbox></div><div class = shapebox><img class = stim src = /static/experiments/stop_signal/images/rectangle.png></img></div>","89,71","850","false","71","","test","123","<div class = coverbox></div><div class = stopbox><div class = centered-shape id = stop-signal></div><div class = centered-shape id = stop-signal-inner></div></div>","500","stop","500",""
"649","89","stop-signal","149","810893","0.0-16.0-41.0","sub-04_ses-01_1","","2386","0","stim","","<div class = coverbox></div><div class = shapebox><img class = stim src = /static/experiments/stop_signal/images/oval.png></img></div>","89,71","850","true","89","","test","124","<div class = coverbox></div><div class = stopbox><div class = centered-shape id = stop-signal></div><div class = centered-shape id = stop-signal-inner></div></div>","550","go","500",""
"13961","32","poldrack-single-stim","150","824856","0.0-17.0","sub-04_ses-01_1","","13961","0","end","","<div class = centerbox><div class = center-text><i>Fin</i></div></div>","32","13961","","","","","","","","","","stop_signal"
"2640","13","text","151","827497","0.0-18.0","sub-04_ses-01_1","","","","","","","","","","","","","","","","","",""
