"rt","key_press","trial_type","trial_index","time_elapsed","internal_node_id","subject","text","block_duration","timing_post_trial","trial_id","responses","stimulus","possible_responses","stim_duration","exp_stage","cue","stim_color","stim_number","task","task_switch","cue_switch","trial_num","correct","correct_response","feedback_duration","exp_id"
"1744","13","text","0","1749","0.0-0.0","sub-04_ses-01_2","","","","","","","","","","","","","","","","","","","",""
"1329","89","poldrack-text","1","4097","0.0-1.0","sub-04_ses-01_2","<div class = centerbox><div style = 'font-size: 50px' class = center-text>Veuillez appuyer avec votre index</p></div>","1329","500","fmri_response_test","","","","","","","","","","","","","","","",""
"419","71","poldrack-text","2","5024","0.0-2.0","sub-04_ses-01_2","<div class = centerbox><div style = 'font-size: 50px' class = center-text>Veuillez appuyer avec votre majeur</p></div>","419","500","fmri_response_test","","","","","","","","","","","","","","","",""
"9196","","survey-text","3","14758","0.0-3.0","sub-04_ses-01_2","","","","task_setup","{""Q0"":""1"",""Q1"":""2""}","","","","","","","","","","","","","","",""
"5202","32","poldrack-single-stim","4","20965","0.0-4.0","sub-04_ses-01_2","","5202","0","instructions","","<div class = centerbox><div class = center-text style=""font-size:40px""><strong>Couleur</strong> or <strong>Orange-Bleu</strong>: Index si orange et Majeur si bleu.<br><br><strong>Amplitude</strong> ou <strong>Haut-Bas</strong>: Majeur si >5 et Index si <5.</div></div>","32","5202","","","","","","","","","","","",""
"","","call-function","5","20966","0.0-5.0-0.0","sub-04_ses-01_2","","","","set_stims","","","","","","","","","","","","","","","",""
"-1","-1","poldrack-single-stim","6","21484","0.0-5.0-1.0","sub-04_ses-01_2","","500","0","fixation","","<div class = upperbox><div class = fixation>+</div></div><div class = lowerbox><div class = fixation>+</div></div>","none","500","practice","","","","","","","","","","",""
"-1","-1","poldrack-single-stim","7","21605","0.0-5.0-2.0","sub-04_ses-01_2","","100","0","cue","","<div class = upperbox><div class = ""center-text"" >Amplitude</div></div><div class = lowerbox><div class = fixation>+</div></div>","none","100","practice","Amplitude","orange","3","magnitude","stay","stay","0","","","",""
"1016","71","poldrack-categorize","8","24132","0.0-5.0-3.0","sub-04_ses-01_2","","2000","0","stim","","<div class = upperbox><div class = ""center-text"" >Amplitude</div></div><div class = lowerbox><div class = ""stim-text"" style=color:orange;>3</div>","89,71","1000","practice","Amplitude","orange","3","magnitude","stay","stay","0","false","89","500",""
"-1","-1","poldrack-single-stim","9","24652","0.0-5.0-4.0","sub-04_ses-01_2","","500","0","gap",""," ","none","500","practice","","","","","","","","","","",""
"","","call-function","10","24654","0.0-5.0-5.0","sub-04_ses-01_2","","","","set_stims","","","","","","","","","","","","","","","",""
"-1","-1","poldrack-single-stim","11","25173","0.0-5.0-6.0","sub-04_ses-01_2","","500","0","fixation","","<div class = upperbox><div class = fixation>+</div></div><div class = lowerbox><div class = fixation>+</div></div>","none","500","practice","","","","","","","","","","",""
"-1","-1","poldrack-single-stim","12","25294","0.0-5.0-7.0","sub-04_ses-01_2","","100","0","cue","","<div class = upperbox><div class = ""center-text"" >Amplitude</div></div><div class = lowerbox><div class = fixation>+</div></div>","none","100","practice","Amplitude","orange","6","magnitude","stay","stay","1","","","",""
"577","71","poldrack-categorize","13","27832","0.0-5.0-8.0","sub-04_ses-01_2","","2000","0","stim","","<div class = upperbox><div class = ""center-text"" >Amplitude</div></div><div class = lowerbox><div class = ""stim-text"" style=color:orange;>6</div>","89,71","1000","practice","Amplitude","orange","6","magnitude","stay","stay","1","true","71","500",""
"-1","-1","poldrack-single-stim","14","28353","0.0-5.0-9.0","sub-04_ses-01_2","","500","0","gap",""," ","none","500","practice","","","","","","","","","","",""
"","","call-function","15","28353","0.0-5.0-10.0","sub-04_ses-01_2","","","","set_stims","","","","","","","","","","","","","","","",""
"-1","-1","poldrack-single-stim","16","28873","0.0-5.0-11.0","sub-04_ses-01_2","","500","0","fixation","","<div class = upperbox><div class = fixation>+</div></div><div class = lowerbox><div class = fixation>+</div></div>","none","500","practice","","","","","","","","","","",""
"-1","-1","poldrack-single-stim","17","29793","0.0-5.0-12.0","sub-04_ses-01_2","","900","0","cue","","<div class = upperbox><div class = ""center-text"" >Haut-Bas</div></div><div class = lowerbox><div class = fixation>+</div></div>","none","900","practice","Haut-Bas","#1F45FC","9","magnitude","stay","switch","2","","","",""
"530","71","poldrack-categorize","18","32332","0.0-5.0-13.0","sub-04_ses-01_2","","2000","0","stim","","<div class = upperbox><div class = ""center-text"" >Haut-Bas</div></div><div class = lowerbox><div class = ""stim-text"" style=color:#1F45FC;>9</div>","89,71","1000","practice","Haut-Bas","#1F45FC","9","magnitude","stay","switch","2","true","71","500",""
"-1","-1","poldrack-single-stim","19","32852","0.0-5.0-14.0","sub-04_ses-01_2","","500","0","gap",""," ","none","500","practice","","","","","","","","","","",""
"","","call-function","20","32853","0.0-5.0-15.0","sub-04_ses-01_2","","","","set_stims","","","","","","","","","","","","","","","",""
"-1","-1","poldrack-single-stim","21","33372","0.0-5.0-16.0","sub-04_ses-01_2","","500","0","fixation","","<div class = upperbox><div class = fixation>+</div></div><div class = lowerbox><div class = fixation>+</div></div>","none","500","practice","","","","","","","","","","",""
"-1","-1","poldrack-single-stim","22","33493","0.0-5.0-17.0","sub-04_ses-01_2","","100","0","cue","","<div class = upperbox><div class = ""center-text"" >Amplitude</div></div><div class = lowerbox><div class = fixation>+</div></div>","none","100","practice","Amplitude","orange","9","magnitude","stay","switch","3","","","",""
"670","71","poldrack-categorize","23","36032","0.0-5.0-18.0","sub-04_ses-01_2","","2000","0","stim","","<div class = upperbox><div class = ""center-text"" >Amplitude</div></div><div class = lowerbox><div class = ""stim-text"" style=color:orange;>9</div>","89,71","1000","practice","Amplitude","orange","9","magnitude","stay","switch","3","true","71","500",""
"-1","-1","poldrack-single-stim","24","36551","0.0-5.0-19.0","sub-04_ses-01_2","","500","0","gap",""," ","none","500","practice","","","","","","","","","","",""
"","","call-function","25","36551","0.0-5.0-20.0","sub-04_ses-01_2","","","","set_stims","","","","","","","","","","","","","","","",""
"-1","-1","poldrack-single-stim","26","37072","0.0-5.0-21.0","sub-04_ses-01_2","","500","0","fixation","","<div class = upperbox><div class = fixation>+</div></div><div class = lowerbox><div class = fixation>+</div></div>","none","500","practice","","","","","","","","","","",""
"-1","-1","poldrack-single-stim","27","37993","0.0-5.0-22.0","sub-04_ses-01_2","","900","0","cue","","<div class = upperbox><div class = ""center-text"" >Amplitude</div></div><div class = lowerbox><div class = fixation>+</div></div>","none","900","practice","Amplitude","orange","9","magnitude","stay","stay","4","","","",""
"487","71","poldrack-categorize","28","40532","0.0-5.0-23.0","sub-04_ses-01_2","","2000","0","stim","","<div class = upperbox><div class = ""center-text"" >Amplitude</div></div><div class = lowerbox><div class = ""stim-text"" style=color:orange;>9</div>","89,71","1000","practice","Amplitude","orange","9","magnitude","stay","stay","4","true","71","500",""
"-1","-1","poldrack-single-stim","29","41053","0.0-5.0-24.0","sub-04_ses-01_2","","500","0","gap",""," ","none","500","practice","","","","","","","","","","",""
"","","call-function","30","41053","0.0-5.0-25.0","sub-04_ses-01_2","","","","set_stims","","","","","","","","","","","","","","","",""
"-1","-1","poldrack-single-stim","31","41572","0.0-5.0-26.0","sub-04_ses-01_2","","500","0","fixation","","<div class = upperbox><div class = fixation>+</div></div><div class = lowerbox><div class = fixation>+</div></div>","none","500","practice","","","","","","","","","","",""
"-1","-1","poldrack-single-stim","32","41693","0.0-5.0-27.0","sub-04_ses-01_2","","100","0","cue","","<div class = upperbox><div class = ""center-text"" >Orange-Bleu</div></div><div class = lowerbox><div class = fixation>+</div></div>","none","100","practice","Orange-Bleu","orange","6","color","switch","switch","5","","","",""
"762","89","poldrack-categorize","33","44232","0.0-5.0-28.0","sub-04_ses-01_2","","2000","0","stim","","<div class = upperbox><div class = ""center-text"" >Orange-Bleu</div></div><div class = lowerbox><div class = ""stim-text"" style=color:orange;>6</div>","89,71","1000","practice","Orange-Bleu","orange","6","color","switch","switch","5","true","89","500",""
"-1","-1","poldrack-single-stim","34","44753","0.0-5.0-29.0","sub-04_ses-01_2","","500","0","gap",""," ","none","500","practice","","","","","","","","","","",""
"","","call-function","35","44753","0.0-5.0-30.0","sub-04_ses-01_2","","","","set_stims","","","","","","","","","","","","","","","",""
"-1","-1","poldrack-single-stim","36","45273","0.0-5.0-31.0","sub-04_ses-01_2","","500","0","fixation","","<div class = upperbox><div class = fixation>+</div></div><div class = lowerbox><div class = fixation>+</div></div>","none","500","practice","","","","","","","","","","",""
"-1","-1","poldrack-single-stim","37","46192","0.0-5.0-32.0","sub-04_ses-01_2","","900","0","cue","","<div class = upperbox><div class = ""center-text"" >Haut-Bas</div></div><div class = lowerbox><div class = fixation>+</div></div>","none","900","practice","Haut-Bas","orange","7","magnitude","switch","stay","6","","","",""
"510","71","poldrack-categorize","38","48732","0.0-5.0-33.0","sub-04_ses-01_2","","2000","0","stim","","<div class = upperbox><div class = ""center-text"" >Haut-Bas</div></div><div class = lowerbox><div class = ""stim-text"" style=color:orange;>7</div>","89,71","1000","practice","Haut-Bas","orange","7","magnitude","switch","stay","6","true","71","500",""
"-1","-1","poldrack-single-stim","39","49252","0.0-5.0-34.0","sub-04_ses-01_2","","500","0","gap",""," ","none","500","practice","","","","","","","","","","",""
"","","call-function","40","49252","0.0-5.0-35.0","sub-04_ses-01_2","","","","set_stims","","","","","","","","","","","","","","","",""
"-1","-1","poldrack-single-stim","41","49773","0.0-5.0-36.0","sub-04_ses-01_2","","500","0","fixation","","<div class = upperbox><div class = fixation>+</div></div><div class = lowerbox><div class = fixation>+</div></div>","none","500","practice","","","","","","","","","","",""
"-1","-1","poldrack-single-stim","42","50694","0.0-5.0-37.0","sub-04_ses-01_2","","900","0","cue","","<div class = upperbox><div class = ""center-text"" >Couleur</div></div><div class = lowerbox><div class = fixation>+</div></div>","none","900","practice","Couleur","#1F45FC","7","color","switch","switch","7","","","",""
"393","71","poldrack-categorize","43","53233","0.0-5.0-38.0","sub-04_ses-01_2","","2000","0","stim","","<div class = upperbox><div class = ""center-text"" >Couleur</div></div><div class = lowerbox><div class = ""stim-text"" style=color:#1F45FC;>7</div>","89,71","1000","practice","Couleur","#1F45FC","7","color","switch","switch","7","true","71","500",""
"-1","-1","poldrack-single-stim","44","53752","0.0-5.0-39.0","sub-04_ses-01_2","","500","0","gap",""," ","none","500","practice","","","","","","","","","","",""
"","","call-function","45","53753","0.0-5.0-40.0","sub-04_ses-01_2","","","","set_stims","","","","","","","","","","","","","","","",""
"-1","-1","poldrack-single-stim","46","54273","0.0-5.0-41.0","sub-04_ses-01_2","","500","0","fixation","","<div class = upperbox><div class = fixation>+</div></div><div class = lowerbox><div class = fixation>+</div></div>","none","500","practice","","","","","","","","","","",""
"-1","-1","poldrack-single-stim","47","55192","0.0-5.0-42.0","sub-04_ses-01_2","","900","0","cue","","<div class = upperbox><div class = ""center-text"" >Couleur</div></div><div class = lowerbox><div class = fixation>+</div></div>","none","900","practice","Couleur","#1F45FC","3","color","stay","stay","8","","","",""
"479","71","poldrack-categorize","48","57732","0.0-5.0-43.0","sub-04_ses-01_2","","2000","0","stim","","<div class = upperbox><div class = ""center-text"" >Couleur</div></div><div class = lowerbox><div class = ""stim-text"" style=color:#1F45FC;>3</div>","89,71","1000","practice","Couleur","#1F45FC","3","color","stay","stay","8","true","71","500",""
"-1","-1","poldrack-single-stim","49","58252","0.0-5.0-44.0","sub-04_ses-01_2","","500","0","gap",""," ","none","500","practice","","","","","","","","","","",""
"","","call-function","50","58252","0.0-5.0-45.0","sub-04_ses-01_2","","","","set_stims","","","","","","","","","","","","","","","",""
"-1","-1","poldrack-single-stim","51","58771","0.0-5.0-46.0","sub-04_ses-01_2","","500","0","fixation","","<div class = upperbox><div class = fixation>+</div></div><div class = lowerbox><div class = fixation>+</div></div>","none","500","practice","","","","","","","","","","",""
"-1","-1","poldrack-single-stim","52","58891","0.0-5.0-47.0","sub-04_ses-01_2","","100","0","cue","","<div class = upperbox><div class = ""center-text"" >Amplitude</div></div><div class = lowerbox><div class = fixation>+</div></div>","none","100","practice","Amplitude","orange","7","magnitude","switch","stay","9","","","",""
"602","71","poldrack-categorize","53","61433","0.0-5.0-48.0","sub-04_ses-01_2","","2000","0","stim","","<div class = upperbox><div class = ""center-text"" >Amplitude</div></div><div class = lowerbox><div class = ""stim-text"" style=color:orange;>7</div>","89,71","1000","practice","Amplitude","orange","7","magnitude","switch","stay","9","true","71","500",""
"-1","-1","poldrack-single-stim","54","61952","0.0-5.0-49.0","sub-04_ses-01_2","","500","0","gap",""," ","none","500","practice","","","","","","","","","","",""
"","","call-function","55","61953","0.0-5.0-50.0","sub-04_ses-01_2","","","","set_stims","","","","","","","","","","","","","","","",""
"-1","-1","poldrack-single-stim","56","62462","0.0-5.0-51.0","sub-04_ses-01_2","","500","0","fixation","","<div class = upperbox><div class = fixation>+</div></div><div class = lowerbox><div class = fixation>+</div></div>","none","500","practice","","","","","","","","","","",""
"-1","-1","poldrack-single-stim","57","62573","0.0-5.0-52.0","sub-04_ses-01_2","","100","0","cue","","<div class = upperbox><div class = ""center-text"" >Couleur</div></div><div class = lowerbox><div class = fixation>+</div></div>","none","100","practice","Couleur","orange","8","color","switch","switch","10","","","",""
"839","89","poldrack-categorize","58","65113","0.0-5.0-53.0","sub-04_ses-01_2","","2000","0","stim","","<div class = upperbox><div class = ""center-text"" >Couleur</div></div><div class = lowerbox><div class = ""stim-text"" style=color:orange;>8</div>","89,71","1000","practice","Couleur","orange","8","color","switch","switch","10","true","89","500",""
"-1","-1","poldrack-single-stim","59","65633","0.0-5.0-54.0","sub-04_ses-01_2","","500","0","gap",""," ","none","500","practice","","","","","","","","","","",""
"","","call-function","60","65633","0.0-5.0-55.0","sub-04_ses-01_2","","","","set_stims","","","","","","","","","","","","","","","",""
"-1","-1","poldrack-single-stim","61","66153","0.0-5.0-56.0","sub-04_ses-01_2","","500","0","fixation","","<div class = upperbox><div class = fixation>+</div></div><div class = lowerbox><div class = fixation>+</div></div>","none","500","practice","","","","","","","","","","",""
"-1","-1","poldrack-single-stim","62","67063","0.0-5.0-57.0","sub-04_ses-01_2","","900","0","cue","","<div class = upperbox><div class = ""center-text"" >Amplitude</div></div><div class = lowerbox><div class = fixation>+</div></div>","none","900","practice","Amplitude","orange","1","magnitude","switch","stay","11","","","",""
"600","89","poldrack-categorize","63","69573","0.0-5.0-58.0","sub-04_ses-01_2","","2000","0","stim","","<div class = upperbox><div class = ""center-text"" >Amplitude</div></div><div class = lowerbox><div class = ""stim-text"" style=color:orange;>1</div>","89,71","1000","practice","Amplitude","orange","1","magnitude","switch","stay","11","true","89","500",""
"-1","-1","poldrack-single-stim","64","70128","0.0-5.0-59.0","sub-04_ses-01_2","","500","0","gap",""," ","none","500","practice","","","","","","","","","","",""
"","","call-function","65","70128","0.0-5.0-60.0","sub-04_ses-01_2","","","","set_stims","","","","","","","","","","","","","","","",""
"-1","-1","poldrack-single-stim","66","70653","0.0-5.0-61.0","sub-04_ses-01_2","","500","0","fixation","","<div class = upperbox><div class = fixation>+</div></div><div class = lowerbox><div class = fixation>+</div></div>","none","500","practice","","","","","","","","","","",""
"-1","-1","poldrack-single-stim","67","71573","0.0-5.0-62.0","sub-04_ses-01_2","","900","0","cue","","<div class = upperbox><div class = ""center-text"" >Haut-Bas</div></div><div class = lowerbox><div class = fixation>+</div></div>","none","900","practice","Haut-Bas","#1F45FC","6","magnitude","stay","switch","12","","","",""
"533","71","poldrack-categorize","68","74112","0.0-5.0-63.0","sub-04_ses-01_2","","2000","0","stim","","<div class = upperbox><div class = ""center-text"" >Haut-Bas</div></div><div class = lowerbox><div class = ""stim-text"" style=color:#1F45FC;>6</div>","89,71","1000","practice","Haut-Bas","#1F45FC","6","magnitude","stay","switch","12","true","71","500",""
"-1","-1","poldrack-single-stim","69","74633","0.0-5.0-64.0","sub-04_ses-01_2","","500","0","gap",""," ","none","500","practice","","","","","","","","","","",""
"","","call-function","70","74634","0.0-5.0-65.0","sub-04_ses-01_2","","","","set_stims","","","","","","","","","","","","","","","",""
"-1","-1","poldrack-single-stim","71","75153","0.0-5.0-66.0","sub-04_ses-01_2","","500","0","fixation","","<div class = upperbox><div class = fixation>+</div></div><div class = lowerbox><div class = fixation>+</div></div>","none","500","practice","","","","","","","","","","",""
"-1","-1","poldrack-single-stim","72","76073","0.0-5.0-67.0","sub-04_ses-01_2","","900","0","cue","","<div class = upperbox><div class = ""center-text"" >Orange-Bleu</div></div><div class = lowerbox><div class = fixation>+</div></div>","none","900","practice","Orange-Bleu","#1F45FC","7","color","switch","switch","13","","","",""
"395","71","poldrack-categorize","73","78593","0.0-5.0-68.0","sub-04_ses-01_2","","2000","0","stim","","<div class = upperbox><div class = ""center-text"" >Orange-Bleu</div></div><div class = lowerbox><div class = ""stim-text"" style=color:#1F45FC;>7</div>","89,71","1000","practice","Orange-Bleu","#1F45FC","7","color","switch","switch","13","true","71","500",""
"-1","-1","poldrack-single-stim","74","79112","0.0-5.0-69.0","sub-04_ses-01_2","","500","0","gap",""," ","none","500","practice","","","","","","","","","","",""
"","","call-function","75","79112","0.0-5.0-70.0","sub-04_ses-01_2","","","","set_stims","","","","","","","","","","","","","","","",""
"-1","-1","poldrack-single-stim","76","79632","0.0-5.0-71.0","sub-04_ses-01_2","","500","0","fixation","","<div class = upperbox><div class = fixation>+</div></div><div class = lowerbox><div class = fixation>+</div></div>","none","500","practice","","","","","","","","","","",""
"-1","-1","poldrack-single-stim","77","79753","0.0-5.0-72.0","sub-04_ses-01_2","","100","0","cue","","<div class = upperbox><div class = ""center-text"" >Couleur</div></div><div class = lowerbox><div class = fixation>+</div></div>","none","100","practice","Couleur","#1F45FC","9","color","stay","switch","14","","","",""
"808","71","poldrack-categorize","78","82294","0.0-5.0-73.0","sub-04_ses-01_2","","2000","0","stim","","<div class = upperbox><div class = ""center-text"" >Couleur</div></div><div class = lowerbox><div class = ""stim-text"" style=color:#1F45FC;>9</div>","89,71","1000","practice","Couleur","#1F45FC","9","color","stay","switch","14","true","71","500",""
"-1","-1","poldrack-single-stim","79","82797","0.0-5.0-74.0","sub-04_ses-01_2","","500","0","gap",""," ","none","500","practice","","","","","","","","","","",""
"","","call-function","80","82798","0.0-5.0-75.0","sub-04_ses-01_2","","","","set_stims","","","","","","","","","","","","","","","",""
"-1","-1","poldrack-single-stim","81","83313","0.0-5.0-76.0","sub-04_ses-01_2","","500","0","fixation","","<div class = upperbox><div class = fixation>+</div></div><div class = lowerbox><div class = fixation>+</div></div>","none","500","practice","","","","","","","","","","",""
"-1","-1","poldrack-single-stim","82","83433","0.0-5.0-77.0","sub-04_ses-01_2","","100","0","cue","","<div class = upperbox><div class = ""center-text"" >Haut-Bas</div></div><div class = lowerbox><div class = fixation>+</div></div>","none","100","practice","Haut-Bas","#1F45FC","9","magnitude","switch","stay","15","","","",""
"690","71","poldrack-categorize","83","85962","0.0-5.0-78.0","sub-04_ses-01_2","","2000","0","stim","","<div class = upperbox><div class = ""center-text"" >Haut-Bas</div></div><div class = lowerbox><div class = ""stim-text"" style=color:#1F45FC;>9</div>","89,71","1000","practice","Haut-Bas","#1F45FC","9","magnitude","switch","stay","15","true","71","500",""
"-1","-1","poldrack-single-stim","84","86483","0.0-5.0-79.0","sub-04_ses-01_2","","500","0","gap",""," ","none","500","practice","","","","","","","","","","",""
"12442","32","poldrack-text","85","98935","0.0-6.0","sub-04_ses-01_2","<div class = centerbox><div  class = center-text>Scanner Setup</div></div>","12442","0","fmri_scanner_wait","","","","","","","","","","","","","","","",""
"61977","84","poldrack-text","86","160915","0.0-7.0","sub-04_ses-01_2","<div class = centerbox><div style='color:red'; class = center-text>+</div></div>","61977","0","fmri_trigger_wait","","","","","","","","","","","","","","","",""
"-1","-1","poldrack-single-stim","87","161923","0.0-8.0","sub-04_ses-01_2","","1000","0","fmri_buffer","","","none","1000","","","","","","","","","","","",""
"-1","-1","poldrack-single-stim","88","163444","0.0-9.0","sub-04_ses-01_2","","1500","500","test_start_block","","<div class = centerbox><div class = center-text>Preparez-vous!</p></div>","none","1500","","","","","","","","","","","",""
"-1","-1","poldrack-single-stim","89","164481","0.0-10.0","sub-04_ses-01_2","","500","0","fixation","","<div class = upperbox><div class = fixation>+</div></div><div class = lowerbox><div class = fixation>+</div></div>","none","500","test","","","","","","","","","","",""
"","","call-function","90","164482","0.0-11.0","sub-04_ses-01_2","","","","set_stims","","","","","","","","","","","","","","","",""
"-1","-1","poldrack-single-stim","91","165402","0.0-12.0","sub-04_ses-01_2","","900","0","cue","","<div class = upperbox><div class = ""center-text"" >Haut-Bas</div></div><div class = lowerbox><div class = fixation>+</div></div>","none","900","test","Haut-Bas","orange","3","magnitude","stay","stay","0","","","",""
"482","89","poldrack-single-stim","92","168642","0.0-13.0","sub-04_ses-01_2","","3224","0","stim","","<div class = upperbox><div class = ""center-text"" >Haut-Bas</div></div><div class = lowerbox><div class = ""stim-text"" style=color:orange;>3</div>","89,71","1000","test","Haut-Bas","orange","3","magnitude","stay","stay","0","true","89","",""
"","","call-function","93","168643","0.0-14.0","sub-04_ses-01_2","","","","set_stims","","","","","","","","","","","","","","","",""
"-1","-1","poldrack-single-stim","94","168762","0.0-15.0","sub-04_ses-01_2","","100","0","cue","","<div class = upperbox><div class = ""center-text"" >Couleur</div></div><div class = lowerbox><div class = fixation>+</div></div>","none","100","test","Couleur","orange","6","color","switch","switch","1","","","",""
"753","89","poldrack-single-stim","95","171182","0.0-16.0","sub-04_ses-01_2","","2408","0","stim","","<div class = upperbox><div class = ""center-text"" >Couleur</div></div><div class = lowerbox><div class = ""stim-text"" style=color:orange;>6</div>","89,71","1000","test","Couleur","orange","6","color","switch","switch","1","true","89","",""
"","","call-function","96","171185","0.0-17.0","sub-04_ses-01_2","","","","set_stims","","","","","","","","","","","","","","","",""
"-1","-1","poldrack-single-stim","97","171303","0.0-18.0","sub-04_ses-01_2","","100","0","cue","","<div class = upperbox><div class = ""center-text"" >Amplitude</div></div><div class = lowerbox><div class = fixation>+</div></div>","none","100","test","Amplitude","#1F45FC","9","magnitude","switch","stay","2","","","",""
"635","71","poldrack-single-stim","98","174122","0.0-19.0","sub-04_ses-01_2","","2816","0","stim","","<div class = upperbox><div class = ""center-text"" >Amplitude</div></div><div class = lowerbox><div class = ""stim-text"" style=color:#1F45FC;>9</div>","89,71","1000","test","Amplitude","#1F45FC","9","magnitude","switch","stay","2","true","71","",""
"","","call-function","99","174123","0.0-20.0","sub-04_ses-01_2","","","","set_stims","","","","","","","","","","","","","","","",""
"-1","-1","poldrack-single-stim","100","174242","0.0-21.0","sub-04_ses-01_2","","100","0","cue","","<div class = upperbox><div class = ""center-text"" >Couleur</div></div><div class = lowerbox><div class = fixation>+</div></div>","none","100","test","Couleur","orange","9","color","switch","switch","3","","","",""
"644","89","poldrack-single-stim","101","176662","0.0-22.0","sub-04_ses-01_2","","2408","0","stim","","<div class = upperbox><div class = ""center-text"" >Couleur</div></div><div class = lowerbox><div class = ""stim-text"" style=color:orange;>9</div>","89,71","1000","test","Couleur","orange","9","color","switch","switch","3","true","89","",""
"","","call-function","102","176663","0.0-23.0","sub-04_ses-01_2","","","","set_stims","","","","","","","","","","","","","","","",""
"-1","-1","poldrack-single-stim","103","177581","0.0-24.0","sub-04_ses-01_2","","900","0","cue","","<div class = upperbox><div class = ""center-text"" >Haut-Bas</div></div><div class = lowerbox><div class = fixation>+</div></div>","none","900","test","Haut-Bas","orange","9","magnitude","switch","stay","4","","","",""
"494","71","poldrack-single-stim","104","179722","0.0-25.0","sub-04_ses-01_2","","2136","0","stim","","<div class = upperbox><div class = ""center-text"" >Haut-Bas</div></div><div class = lowerbox><div class = ""stim-text"" style=color:orange;>9</div>","89,71","1000","test","Haut-Bas","orange","9","magnitude","switch","stay","4","true","71","",""
"","","call-function","105","179723","0.0-26.0","sub-04_ses-01_2","","","","set_stims","","","","","","","","","","","","","","","",""
"-1","-1","poldrack-single-stim","106","179841","0.0-27.0","sub-04_ses-01_2","","100","0","cue","","<div class = upperbox><div class = ""center-text"" >Haut-Bas</div></div><div class = lowerbox><div class = fixation>+</div></div>","none","100","test","Haut-Bas","orange","6","magnitude","stay","stay","5","","","",""
"668","71","poldrack-single-stim","107","181982","0.0-28.0","sub-04_ses-01_2","","2136","0","stim","","<div class = upperbox><div class = ""center-text"" >Haut-Bas</div></div><div class = lowerbox><div class = ""stim-text"" style=color:orange;>6</div>","89,71","1000","test","Haut-Bas","orange","6","magnitude","stay","stay","5","true","71","",""
"","","call-function","108","181982","0.0-29.0","sub-04_ses-01_2","","","","set_stims","","","","","","","","","","","","","","","",""
"-1","-1","poldrack-single-stim","109","182101","0.0-30.0","sub-04_ses-01_2","","100","0","cue","","<div class = upperbox><div class = ""center-text"" >Amplitude</div></div><div class = lowerbox><div class = fixation>+</div></div>","none","100","test","Amplitude","orange","7","magnitude","stay","switch","6","","","",""
"605","71","poldrack-single-stim","110","184121","0.0-31.0","sub-04_ses-01_2","","2000","0","stim","","<div class = upperbox><div class = ""center-text"" >Amplitude</div></div><div class = lowerbox><div class = ""stim-text"" style=color:orange;>7</div>","89,71","1000","test","Amplitude","orange","7","magnitude","stay","switch","6","true","71","",""
"","","call-function","111","184122","0.0-32.0","sub-04_ses-01_2","","","","set_stims","","","","","","","","","","","","","","","",""
"-1","-1","poldrack-single-stim","112","185043","0.0-33.0","sub-04_ses-01_2","","900","0","cue","","<div class = upperbox><div class = ""center-text"" >Haut-Bas</div></div><div class = lowerbox><div class = fixation>+</div></div>","none","900","test","Haut-Bas","#1F45FC","7","magnitude","stay","switch","7","","","",""
"515","71","poldrack-single-stim","113","187051","0.0-34.0","sub-04_ses-01_2","","2000","0","stim","","<div class = upperbox><div class = ""center-text"" >Haut-Bas</div></div><div class = lowerbox><div class = ""stim-text"" style=color:#1F45FC;>7</div>","89,71","1000","test","Haut-Bas","#1F45FC","7","magnitude","stay","switch","7","true","71","",""
"","","call-function","114","187052","0.0-35.0","sub-04_ses-01_2","","","","set_stims","","","","","","","","","","","","","","","",""
"-1","-1","poldrack-single-stim","115","187173","0.0-36.0","sub-04_ses-01_2","","100","0","cue","","<div class = upperbox><div class = ""center-text"" >Couleur</div></div><div class = lowerbox><div class = fixation>+</div></div>","none","100","test","Couleur","#1F45FC","3","color","switch","stay","8","","","",""
"930","71","poldrack-single-stim","116","189462","0.0-37.0","sub-04_ses-01_2","","2272","0","stim","","<div class = upperbox><div class = ""center-text"" >Couleur</div></div><div class = lowerbox><div class = ""stim-text"" style=color:#1F45FC;>3</div>","89,71","1000","test","Couleur","#1F45FC","3","color","switch","stay","8","true","71","",""
"","","call-function","117","189463","0.0-38.0","sub-04_ses-01_2","","","","set_stims","","","","","","","","","","","","","","","",""
"-1","-1","poldrack-single-stim","118","189582","0.0-39.0","sub-04_ses-01_2","","100","0","cue","","<div class = upperbox><div class = ""center-text"" >Amplitude</div></div><div class = lowerbox><div class = fixation>+</div></div>","none","100","test","Amplitude","orange","7","magnitude","switch","stay","9","","","",""
"662","71","poldrack-single-stim","119","192002","0.0-40.0","sub-04_ses-01_2","","2408","0","stim","","<div class = upperbox><div class = ""center-text"" >Amplitude</div></div><div class = lowerbox><div class = ""stim-text"" style=color:orange;>7</div>","89,71","1000","test","Amplitude","orange","7","magnitude","switch","stay","9","true","71","",""
"","","call-function","120","192003","0.0-41.0","sub-04_ses-01_2","","","","set_stims","","","","","","","","","","","","","","","",""
"-1","-1","poldrack-single-stim","121","192922","0.0-42.0","sub-04_ses-01_2","","900","0","cue","","<div class = upperbox><div class = ""center-text"" >Couleur</div></div><div class = lowerbox><div class = fixation>+</div></div>","none","900","test","Couleur","orange","8","color","switch","stay","10","","","",""
"368","89","poldrack-single-stim","122","194933","0.0-43.0","sub-04_ses-01_2","","2000","0","stim","","<div class = upperbox><div class = ""center-text"" >Couleur</div></div><div class = lowerbox><div class = ""stim-text"" style=color:orange;>8</div>","89,71","1000","test","Couleur","orange","8","color","switch","stay","10","true","89","",""
"","","call-function","123","194934","0.0-44.0","sub-04_ses-01_2","","","","set_stims","","","","","","","","","","","","","","","",""
"-1","-1","poldrack-single-stim","124","195052","0.0-45.0","sub-04_ses-01_2","","100","0","cue","","<div class = upperbox><div class = ""center-text"" >Orange-Bleu</div></div><div class = lowerbox><div class = fixation>+</div></div>","none","100","test","Orange-Bleu","orange","1","color","stay","switch","11","","","",""
"665","89","poldrack-single-stim","125","197192","0.0-46.0","sub-04_ses-01_2","","2136","0","stim","","<div class = upperbox><div class = ""center-text"" >Orange-Bleu</div></div><div class = lowerbox><div class = ""stim-text"" style=color:orange;>1</div>","89,71","1000","test","Orange-Bleu","orange","1","color","stay","switch","11","true","89","",""
"","","call-function","126","197193","0.0-47.0","sub-04_ses-01_2","","","","set_stims","","","","","","","","","","","","","","","",""
"-1","-1","poldrack-single-stim","127","197312","0.0-48.0","sub-04_ses-01_2","","100","0","cue","","<div class = upperbox><div class = ""center-text"" >Haut-Bas</div></div><div class = lowerbox><div class = fixation>+</div></div>","none","100","test","Haut-Bas","#1F45FC","6","magnitude","switch","stay","12","","","",""
"860","71","poldrack-single-stim","128","199332","0.0-49.0","sub-04_ses-01_2","","2000","0","stim","","<div class = upperbox><div class = ""center-text"" >Haut-Bas</div></div><div class = lowerbox><div class = ""stim-text"" style=color:#1F45FC;>6</div>","89,71","1000","test","Haut-Bas","#1F45FC","6","magnitude","switch","stay","12","true","71","",""
"","","call-function","129","199333","0.0-50.0","sub-04_ses-01_2","","","","set_stims","","","","","","","","","","","","","","","",""
"-1","-1","poldrack-single-stim","130","200253","0.0-51.0","sub-04_ses-01_2","","900","0","cue","","<div class = upperbox><div class = ""center-text"" >Couleur</div></div><div class = lowerbox><div class = fixation>+</div></div>","none","900","test","Couleur","#1F45FC","7","color","switch","switch","13","","","",""
"493","71","poldrack-single-stim","131","202671","0.0-52.0","sub-04_ses-01_2","","2408","0","stim","","<div class = upperbox><div class = ""center-text"" >Couleur</div></div><div class = lowerbox><div class = ""stim-text"" style=color:#1F45FC;>7</div>","89,71","1000","test","Couleur","#1F45FC","7","color","switch","switch","13","true","71","",""
"","","call-function","132","202673","0.0-53.0","sub-04_ses-01_2","","","","set_stims","","","","","","","","","","","","","","","",""
"-1","-1","poldrack-single-stim","133","203592","0.0-54.0","sub-04_ses-01_2","","900","0","cue","","<div class = upperbox><div class = ""center-text"" >Orange-Bleu</div></div><div class = lowerbox><div class = fixation>+</div></div>","none","900","test","Orange-Bleu","#1F45FC","9","color","stay","switch","14","","","",""
"683","71","poldrack-single-stim","134","205872","0.0-55.0","sub-04_ses-01_2","","2272","0","stim","","<div class = upperbox><div class = ""center-text"" >Orange-Bleu</div></div><div class = lowerbox><div class = ""stim-text"" style=color:#1F45FC;>9</div>","89,71","1000","test","Orange-Bleu","#1F45FC","9","color","stay","switch","14","true","71","",""
"","","call-function","135","205873","0.0-56.0","sub-04_ses-01_2","","","","set_stims","","","","","","","","","","","","","","","",""
"-1","-1","poldrack-single-stim","136","205992","0.0-57.0","sub-04_ses-01_2","","100","0","cue","","<div class = upperbox><div class = ""center-text"" >Amplitude</div></div><div class = lowerbox><div class = fixation>+</div></div>","none","100","test","Amplitude","#1F45FC","9","magnitude","switch","stay","15","","","",""
"723","71","poldrack-single-stim","137","208002","0.0-58.0","sub-04_ses-01_2","","2000","0","stim","","<div class = upperbox><div class = ""center-text"" >Amplitude</div></div><div class = lowerbox><div class = ""stim-text"" style=color:#1F45FC;>9</div>","89,71","1000","test","Amplitude","#1F45FC","9","magnitude","switch","stay","15","true","71","",""
"","","call-function","138","208002","0.0-59.0","sub-04_ses-01_2","","","","set_stims","","","","","","","","","","","","","","","",""
"-1","-1","poldrack-single-stim","139","208121","0.0-60.0","sub-04_ses-01_2","","100","0","cue","","<div class = upperbox><div class = ""center-text"" >Haut-Bas</div></div><div class = lowerbox><div class = fixation>+</div></div>","none","100","test","Haut-Bas","orange","9","magnitude","stay","switch","16","","","",""
"745","71","poldrack-single-stim","140","210401","0.0-61.0","sub-04_ses-01_2","","2272","0","stim","","<div class = upperbox><div class = ""center-text"" >Haut-Bas</div></div><div class = lowerbox><div class = ""stim-text"" style=color:orange;>9</div>","89,71","1000","test","Haut-Bas","orange","9","magnitude","stay","switch","16","true","71","",""
"","","call-function","141","210403","0.0-62.0","sub-04_ses-01_2","","","","set_stims","","","","","","","","","","","","","","","",""
"-1","-1","poldrack-single-stim","142","211322","0.0-63.0","sub-04_ses-01_2","","900","0","cue","","<div class = upperbox><div class = ""center-text"" >Orange-Bleu</div></div><div class = lowerbox><div class = fixation>+</div></div>","none","900","test","Orange-Bleu","#1F45FC","2","color","switch","switch","17","","","",""
"734","71","poldrack-single-stim","143","213331","0.0-64.0","sub-04_ses-01_2","","2000","0","stim","","<div class = upperbox><div class = ""center-text"" >Orange-Bleu</div></div><div class = lowerbox><div class = ""stim-text"" style=color:#1F45FC;>2</div>","89,71","1000","test","Orange-Bleu","#1F45FC","2","color","switch","switch","17","true","71","",""
"","","call-function","144","213331","0.0-65.0","sub-04_ses-01_2","","","","set_stims","","","","","","","","","","","","","","","",""
"-1","-1","poldrack-single-stim","145","213452","0.0-66.0","sub-04_ses-01_2","","100","0","cue","","<div class = upperbox><div class = ""center-text"" >Haut-Bas</div></div><div class = lowerbox><div class = fixation>+</div></div>","none","100","test","Haut-Bas","#1F45FC","6","magnitude","switch","stay","18","","","",""
"836","71","poldrack-single-stim","146","215472","0.0-67.0","sub-04_ses-01_2","","2000","0","stim","","<div class = upperbox><div class = ""center-text"" >Haut-Bas</div></div><div class = lowerbox><div class = ""stim-text"" style=color:#1F45FC;>6</div>","89,71","1000","test","Haut-Bas","#1F45FC","6","magnitude","switch","stay","18","true","71","",""
"","","call-function","147","215473","0.0-68.0","sub-04_ses-01_2","","","","set_stims","","","","","","","","","","","","","","","",""
"-1","-1","poldrack-single-stim","148","215593","0.0-69.0","sub-04_ses-01_2","","100","0","cue","","<div class = upperbox><div class = ""center-text"" >Haut-Bas</div></div><div class = lowerbox><div class = fixation>+</div></div>","none","100","test","Haut-Bas","orange","7","magnitude","stay","stay","19","","","",""
"1147","71","poldrack-single-stim","149","217872","0.0-70.0","sub-04_ses-01_2","","2272","0","stim","","<div class = upperbox><div class = ""center-text"" >Haut-Bas</div></div><div class = lowerbox><div class = ""stim-text"" style=color:orange;>7</div>","89,71","1000","test","Haut-Bas","orange","7","magnitude","stay","stay","19","true","71","",""
"","","call-function","150","217873","0.0-71.0","sub-04_ses-01_2","","","","set_stims","","","","","","","","","","","","","","","",""
"-1","-1","poldrack-single-stim","151","217993","0.0-72.0","sub-04_ses-01_2","","100","0","cue","","<div class = upperbox><div class = ""center-text"" >Couleur</div></div><div class = lowerbox><div class = fixation>+</div></div>","none","100","test","Couleur","#1F45FC","2","color","switch","stay","20","","","",""
"862","71","poldrack-single-stim","152","220132","0.0-73.0","sub-04_ses-01_2","","2136","0","stim","","<div class = upperbox><div class = ""center-text"" >Couleur</div></div><div class = lowerbox><div class = ""stim-text"" style=color:#1F45FC;>2</div>","89,71","1000","test","Couleur","#1F45FC","2","color","switch","stay","20","true","71","",""
"","","call-function","153","220133","0.0-74.0","sub-04_ses-01_2","","","","set_stims","","","","","","","","","","","","","","","",""
"-1","-1","poldrack-single-stim","154","220252","0.0-75.0","sub-04_ses-01_2","","100","0","cue","","<div class = upperbox><div class = ""center-text"" >Amplitude</div></div><div class = lowerbox><div class = fixation>+</div></div>","none","100","test","Amplitude","#1F45FC","9","magnitude","switch","switch","21","","","",""
"563","71","poldrack-single-stim","155","222271","0.0-76.0","sub-04_ses-01_2","","2000","0","stim","","<div class = upperbox><div class = ""center-text"" >Amplitude</div></div><div class = lowerbox><div class = ""stim-text"" style=color:#1F45FC;>9</div>","89,71","1000","test","Amplitude","#1F45FC","9","magnitude","switch","switch","21","true","71","",""
"","","call-function","156","222273","0.0-77.0","sub-04_ses-01_2","","","","set_stims","","","","","","","","","","","","","","","",""
"-1","-1","poldrack-single-stim","157","222393","0.0-78.0","sub-04_ses-01_2","","100","0","cue","","<div class = upperbox><div class = ""center-text"" >Amplitude</div></div><div class = lowerbox><div class = fixation>+</div></div>","none","100","test","Amplitude","orange","1","magnitude","stay","stay","22","","","",""
"784","89","poldrack-single-stim","158","224411","0.0-79.0","sub-04_ses-01_2","","2000","0","stim","","<div class = upperbox><div class = ""center-text"" >Amplitude</div></div><div class = lowerbox><div class = ""stim-text"" style=color:orange;>1</div>","89,71","1000","test","Amplitude","orange","1","magnitude","stay","stay","22","true","89","",""
"","","call-function","159","224413","0.0-80.0","sub-04_ses-01_2","","","","set_stims","","","","","","","","","","","","","","","",""
"-1","-1","poldrack-single-stim","160","225332","0.0-81.0","sub-04_ses-01_2","","900","0","cue","","<div class = upperbox><div class = ""center-text"" >Couleur</div></div><div class = lowerbox><div class = fixation>+</div></div>","none","900","test","Couleur","#1F45FC","2","color","switch","stay","23","","","",""
"604","71","poldrack-single-stim","161","227391","0.0-82.0","sub-04_ses-01_2","","2000","0","stim","","<div class = upperbox><div class = ""center-text"" >Couleur</div></div><div class = lowerbox><div class = ""stim-text"" style=color:#1F45FC;>2</div>","89,71","1000","test","Couleur","#1F45FC","2","color","switch","stay","23","true","71","",""
"","","call-function","162","227393","0.0-83.0","sub-04_ses-01_2","","","","set_stims","","","","","","","","","","","","","","","",""
"-1","-1","poldrack-single-stim","163","227517","0.0-84.0","sub-04_ses-01_2","","100","0","cue","","<div class = upperbox><div class = ""center-text"" >Orange-Bleu</div></div><div class = lowerbox><div class = fixation>+</div></div>","none","100","test","Orange-Bleu","orange","3","color","stay","switch","24","","","",""
"847","89","poldrack-single-stim","164","229533","0.0-85.0","sub-04_ses-01_2","","2000","0","stim","","<div class = upperbox><div class = ""center-text"" >Orange-Bleu</div></div><div class = lowerbox><div class = ""stim-text"" style=color:orange;>3</div>","89,71","1000","test","Orange-Bleu","orange","3","color","stay","switch","24","true","89","",""
"","","call-function","165","229533","0.0-86.0","sub-04_ses-01_2","","","","set_stims","","","","","","","","","","","","","","","",""
"-1","-1","poldrack-single-stim","166","230452","0.0-87.0","sub-04_ses-01_2","","900","0","cue","","<div class = upperbox><div class = ""center-text"" >Orange-Bleu</div></div><div class = lowerbox><div class = fixation>+</div></div>","none","900","test","Orange-Bleu","#1F45FC","7","color","stay","stay","25","","","",""
"374","71","poldrack-single-stim","167","232472","0.0-88.0","sub-04_ses-01_2","","2000","0","stim","","<div class = upperbox><div class = ""center-text"" >Orange-Bleu</div></div><div class = lowerbox><div class = ""stim-text"" style=color:#1F45FC;>7</div>","89,71","1000","test","Orange-Bleu","#1F45FC","7","color","stay","stay","25","true","71","",""
"","","call-function","168","232472","0.0-89.0","sub-04_ses-01_2","","","","set_stims","","","","","","","","","","","","","","","",""
"-1","-1","poldrack-single-stim","169","233393","0.0-90.0","sub-04_ses-01_2","","900","0","cue","","<div class = upperbox><div class = ""center-text"" >Haut-Bas</div></div><div class = lowerbox><div class = fixation>+</div></div>","none","900","test","Haut-Bas","orange","2","magnitude","switch","switch","26","","","",""
"394","89","poldrack-single-stim","170","235531","0.0-91.0","sub-04_ses-01_2","","2136","0","stim","","<div class = upperbox><div class = ""center-text"" >Haut-Bas</div></div><div class = lowerbox><div class = ""stim-text"" style=color:orange;>2</div>","89,71","1000","test","Haut-Bas","orange","2","magnitude","switch","switch","26","true","89","",""
"","","call-function","171","235533","0.0-92.0","sub-04_ses-01_2","","","","set_stims","","","","","","","","","","","","","","","",""
"-1","-1","poldrack-single-stim","172","236452","0.0-93.0","sub-04_ses-01_2","","900","0","cue","","<div class = upperbox><div class = ""center-text"" >Haut-Bas</div></div><div class = lowerbox><div class = fixation>+</div></div>","none","900","test","Haut-Bas","orange","6","magnitude","stay","stay","27","","","",""
"582","71","poldrack-single-stim","173","238471","0.0-94.0","sub-04_ses-01_2","","2000","0","stim","","<div class = upperbox><div class = ""center-text"" >Haut-Bas</div></div><div class = lowerbox><div class = ""stim-text"" style=color:orange;>6</div>","89,71","1000","test","Haut-Bas","orange","6","magnitude","stay","stay","27","true","71","",""
"","","call-function","174","238473","0.0-95.0","sub-04_ses-01_2","","","","set_stims","","","","","","","","","","","","","","","",""
"-1","-1","poldrack-single-stim","175","239393","0.0-96.0","sub-04_ses-01_2","","900","0","cue","","<div class = upperbox><div class = ""center-text"" >Orange-Bleu</div></div><div class = lowerbox><div class = fixation>+</div></div>","none","900","test","Orange-Bleu","#1F45FC","1","color","switch","switch","28","","","",""
"712","71","poldrack-single-stim","176","241411","0.0-97.0","sub-04_ses-01_2","","2000","0","stim","","<div class = upperbox><div class = ""center-text"" >Orange-Bleu</div></div><div class = lowerbox><div class = ""stim-text"" style=color:#1F45FC;>1</div>","89,71","1000","test","Orange-Bleu","#1F45FC","1","color","switch","switch","28","true","71","",""
"","","call-function","177","241413","0.0-98.0","sub-04_ses-01_2","","","","set_stims","","","","","","","","","","","","","","","",""
"-1","-1","poldrack-single-stim","178","241533","0.0-99.0","sub-04_ses-01_2","","100","0","cue","","<div class = upperbox><div class = ""center-text"" >Couleur</div></div><div class = lowerbox><div class = fixation>+</div></div>","none","100","test","Couleur","#1F45FC","8","color","stay","switch","29","","","",""
"840","71","poldrack-single-stim","179","243671","0.0-100.0","sub-04_ses-01_2","","2136","0","stim","","<div class = upperbox><div class = ""center-text"" >Couleur</div></div><div class = lowerbox><div class = ""stim-text"" style=color:#1F45FC;>8</div>","89,71","1000","test","Couleur","#1F45FC","8","color","stay","switch","29","true","71","",""
"","","call-function","180","243671","0.0-101.0","sub-04_ses-01_2","","","","set_stims","","","","","","","","","","","","","","","",""
"-1","-1","poldrack-single-stim","181","243792","0.0-102.0","sub-04_ses-01_2","","100","0","cue","","<div class = upperbox><div class = ""center-text"" >Orange-Bleu</div></div><div class = lowerbox><div class = fixation>+</div></div>","none","100","test","Orange-Bleu","orange","8","color","stay","switch","30","","","",""
"725","89","poldrack-single-stim","182","245801","0.0-103.0","sub-04_ses-01_2","","2000","0","stim","","<div class = upperbox><div class = ""center-text"" >Orange-Bleu</div></div><div class = lowerbox><div class = ""stim-text"" style=color:orange;>8</div>","89,71","1000","test","Orange-Bleu","orange","8","color","stay","switch","30","true","89","",""
"","","call-function","183","245802","0.0-104.0","sub-04_ses-01_2","","","","set_stims","","","","","","","","","","","","","","","",""
"-1","-1","poldrack-single-stim","184","245922","0.0-105.0","sub-04_ses-01_2","","100","0","cue","","<div class = upperbox><div class = ""center-text"" >Amplitude</div></div><div class = lowerbox><div class = fixation>+</div></div>","none","100","test","Amplitude","orange","8","magnitude","switch","switch","31","","","",""
"676","71","poldrack-single-stim","185","248061","0.0-106.0","sub-04_ses-01_2","","2136","0","stim","","<div class = upperbox><div class = ""center-text"" >Amplitude</div></div><div class = lowerbox><div class = ""stim-text"" style=color:orange;>8</div>","89,71","1000","test","Amplitude","orange","8","magnitude","switch","switch","31","true","71","",""
"","","call-function","186","248063","0.0-107.0","sub-04_ses-01_2","","","","set_stims","","","","","","","","","","","","","","","",""
"-1","-1","poldrack-single-stim","187","248181","0.0-108.0","sub-04_ses-01_2","","100","0","cue","","<div class = upperbox><div class = ""center-text"" >Orange-Bleu</div></div><div class = lowerbox><div class = fixation>+</div></div>","none","100","test","Orange-Bleu","#1F45FC","6","color","switch","switch","32","","","",""
"972","71","poldrack-single-stim","188","250884","0.0-109.0","sub-04_ses-01_2","","2680","0","stim","","<div class = upperbox><div class = ""center-text"" >Orange-Bleu</div></div><div class = lowerbox><div class = ""stim-text"" style=color:#1F45FC;>6</div>","89,71","1000","test","Orange-Bleu","#1F45FC","6","color","switch","switch","32","true","71","",""
"","","call-function","189","250884","0.0-110.0","sub-04_ses-01_2","","","","set_stims","","","","","","","","","","","","","","","",""
"-1","-1","poldrack-single-stim","190","251802","0.0-111.0","sub-04_ses-01_2","","900","0","cue","","<div class = upperbox><div class = ""center-text"" >Orange-Bleu</div></div><div class = lowerbox><div class = fixation>+</div></div>","none","900","test","Orange-Bleu","orange","2","color","stay","stay","33","","","",""
"397","89","poldrack-single-stim","191","254091","0.0-112.0","sub-04_ses-01_2","","2272","0","stim","","<div class = upperbox><div class = ""center-text"" >Orange-Bleu</div></div><div class = lowerbox><div class = ""stim-text"" style=color:orange;>2</div>","89,71","1000","test","Orange-Bleu","orange","2","color","stay","stay","33","true","89","",""
"","","call-function","192","254092","0.0-113.0","sub-04_ses-01_2","","","","set_stims","","","","","","","","","","","","","","","",""
"-1","-1","poldrack-single-stim","193","255012","0.0-114.0","sub-04_ses-01_2","","900","0","cue","","<div class = upperbox><div class = ""center-text"" >Orange-Bleu</div></div><div class = lowerbox><div class = fixation>+</div></div>","none","900","test","Orange-Bleu","orange","8","color","stay","stay","34","","","",""
"586","89","poldrack-single-stim","194","257162","0.0-115.0","sub-04_ses-01_2","","2136","0","stim","","<div class = upperbox><div class = ""center-text"" >Orange-Bleu</div></div><div class = lowerbox><div class = ""stim-text"" style=color:orange;>8</div>","89,71","1000","test","Orange-Bleu","orange","8","color","stay","stay","34","true","89","",""
"","","call-function","195","257163","0.0-116.0","sub-04_ses-01_2","","","","set_stims","","","","","","","","","","","","","","","",""
"-1","-1","poldrack-single-stim","196","257282","0.0-117.0","sub-04_ses-01_2","","100","0","cue","","<div class = upperbox><div class = ""center-text"" >Amplitude</div></div><div class = lowerbox><div class = fixation>+</div></div>","none","100","test","Amplitude","#1F45FC","7","magnitude","switch","stay","35","","","",""
"699","71","poldrack-single-stim","197","259303","0.0-118.0","sub-04_ses-01_2","","2000","0","stim","","<div class = upperbox><div class = ""center-text"" >Amplitude</div></div><div class = lowerbox><div class = ""stim-text"" style=color:#1F45FC;>7</div>","89,71","1000","test","Amplitude","#1F45FC","7","magnitude","switch","stay","35","true","71","",""
"","","call-function","198","259304","0.0-119.0","sub-04_ses-01_2","","","","set_stims","","","","","","","","","","","","","","","",""
"-1","-1","poldrack-single-stim","199","260222","0.0-120.0","sub-04_ses-01_2","","900","0","cue","","<div class = upperbox><div class = ""center-text"" >Orange-Bleu</div></div><div class = lowerbox><div class = fixation>+</div></div>","none","900","test","Orange-Bleu","orange","7","color","switch","stay","36","","","",""
"607","89","poldrack-single-stim","200","262362","0.0-121.0","sub-04_ses-01_2","","2136","0","stim","","<div class = upperbox><div class = ""center-text"" >Orange-Bleu</div></div><div class = lowerbox><div class = ""stim-text"" style=color:orange;>7</div>","89,71","1000","test","Orange-Bleu","orange","7","color","switch","stay","36","true","89","",""
"","","call-function","201","262363","0.0-122.0","sub-04_ses-01_2","","","","set_stims","","","","","","","","","","","","","","","",""
"-1","-1","poldrack-single-stim","202","263273","0.0-123.0","sub-04_ses-01_2","","900","0","cue","","<div class = upperbox><div class = ""center-text"" >Amplitude</div></div><div class = lowerbox><div class = fixation>+</div></div>","none","900","test","Amplitude","orange","6","magnitude","switch","switch","37","","","",""
"730","89","poldrack-single-stim","203","265972","0.0-124.0","sub-04_ses-01_2","","2680","0","stim","","<div class = upperbox><div class = ""center-text"" >Amplitude</div></div><div class = lowerbox><div class = ""stim-text"" style=color:orange;>6</div>","89,71","1000","test","Amplitude","orange","6","magnitude","switch","switch","37","false","71","",""
"","","call-function","204","265972","0.0-125.0","sub-04_ses-01_2","","","","set_stims","","","","","","","","","","","","","","","",""
"-1","-1","poldrack-single-stim","205","266892","0.0-126.0","sub-04_ses-01_2","","900","0","cue","","<div class = upperbox><div class = ""center-text"" >Couleur</div></div><div class = lowerbox><div class = fixation>+</div></div>","none","900","test","Couleur","#1F45FC","9","color","switch","stay","38","","","",""
"757","71","poldrack-single-stim","206","269182","0.0-127.0","sub-04_ses-01_2","","2272","0","stim","","<div class = upperbox><div class = ""center-text"" >Couleur</div></div><div class = lowerbox><div class = ""stim-text"" style=color:#1F45FC;>9</div>","89,71","1000","test","Couleur","#1F45FC","9","color","switch","stay","38","true","71","",""
"","","call-function","207","269183","0.0-128.0","sub-04_ses-01_2","","","","set_stims","","","","","","","","","","","","","","","",""
"-1","-1","poldrack-single-stim","208","269302","0.0-129.0","sub-04_ses-01_2","","100","0","cue","","<div class = upperbox><div class = ""center-text"" >Orange-Bleu</div></div><div class = lowerbox><div class = fixation>+</div></div>","none","100","test","Orange-Bleu","#1F45FC","8","color","stay","switch","39","","","",""
"802","71","poldrack-single-stim","209","271321","0.0-130.0","sub-04_ses-01_2","","2000","0","stim","","<div class = upperbox><div class = ""center-text"" >Orange-Bleu</div></div><div class = lowerbox><div class = ""stim-text"" style=color:#1F45FC;>8</div>","89,71","1000","test","Orange-Bleu","#1F45FC","8","color","stay","switch","39","true","71","",""
"","","call-function","210","271323","0.0-131.0","sub-04_ses-01_2","","","","set_stims","","","","","","","","","","","","","","","",""
"-1","-1","poldrack-single-stim","211","272232","0.0-132.0","sub-04_ses-01_2","","900","0","cue","","<div class = upperbox><div class = ""center-text"" >Haut-Bas</div></div><div class = lowerbox><div class = fixation>+</div></div>","none","900","test","Haut-Bas","orange","4","magnitude","switch","stay","40","","","",""
"624","89","poldrack-single-stim","212","274242","0.0-133.0","sub-04_ses-01_2","","2000","0","stim","","<div class = upperbox><div class = ""center-text"" >Haut-Bas</div></div><div class = lowerbox><div class = ""stim-text"" style=color:orange;>4</div>","89,71","1000","test","Haut-Bas","orange","4","magnitude","switch","stay","40","true","89","",""
"","","call-function","213","274243","0.0-134.0","sub-04_ses-01_2","","","","set_stims","","","","","","","","","","","","","","","",""
"-1","-1","poldrack-single-stim","214","275162","0.0-135.0","sub-04_ses-01_2","","900","0","cue","","<div class = upperbox><div class = ""center-text"" >Haut-Bas</div></div><div class = lowerbox><div class = fixation>+</div></div>","none","900","test","Haut-Bas","#1F45FC","8","magnitude","stay","stay","41","","","",""
"484","71","poldrack-single-stim","215","277302","0.0-136.0","sub-04_ses-01_2","","2136","0","stim","","<div class = upperbox><div class = ""center-text"" >Haut-Bas</div></div><div class = lowerbox><div class = ""stim-text"" style=color:#1F45FC;>8</div>","89,71","1000","test","Haut-Bas","#1F45FC","8","magnitude","stay","stay","41","true","71","",""
"","","call-function","216","277303","0.0-137.0","sub-04_ses-01_2","","","","set_stims","","","","","","","","","","","","","","","",""
"-1","-1","poldrack-single-stim","217","278223","0.0-138.0","sub-04_ses-01_2","","900","0","cue","","<div class = upperbox><div class = ""center-text"" >Haut-Bas</div></div><div class = lowerbox><div class = fixation>+</div></div>","none","900","test","Haut-Bas","#1F45FC","9","magnitude","stay","stay","42","","","",""
"500","71","poldrack-single-stim","218","280241","0.0-139.0","sub-04_ses-01_2","","2000","0","stim","","<div class = upperbox><div class = ""center-text"" >Haut-Bas</div></div><div class = lowerbox><div class = ""stim-text"" style=color:#1F45FC;>9</div>","89,71","1000","test","Haut-Bas","#1F45FC","9","magnitude","stay","stay","42","true","71","",""
"","","call-function","219","280242","0.0-140.0","sub-04_ses-01_2","","","","set_stims","","","","","","","","","","","","","","","",""
"-1","-1","poldrack-single-stim","220","280362","0.0-141.0","sub-04_ses-01_2","","100","0","cue","","<div class = upperbox><div class = ""center-text"" >Haut-Bas</div></div><div class = lowerbox><div class = fixation>+</div></div>","none","100","test","Haut-Bas","orange","9","magnitude","stay","stay","43","","","",""
"763","71","poldrack-single-stim","221","282372","0.0-142.0","sub-04_ses-01_2","","2000","0","stim","","<div class = upperbox><div class = ""center-text"" >Haut-Bas</div></div><div class = lowerbox><div class = ""stim-text"" style=color:orange;>9</div>","89,71","1000","test","Haut-Bas","orange","9","magnitude","stay","stay","43","true","71","",""
"","","call-function","222","282374","0.0-143.0","sub-04_ses-01_2","","","","set_stims","","","","","","","","","","","","","","","",""
"-1","-1","poldrack-single-stim","223","282493","0.0-144.0","sub-04_ses-01_2","","100","0","cue","","<div class = upperbox><div class = ""center-text"" >Amplitude</div></div><div class = lowerbox><div class = fixation>+</div></div>","none","100","test","Amplitude","orange","3","magnitude","stay","switch","44","","","",""
"700","89","poldrack-single-stim","224","284511","0.0-145.0","sub-04_ses-01_2","","2000","0","stim","","<div class = upperbox><div class = ""center-text"" >Amplitude</div></div><div class = lowerbox><div class = ""stim-text"" style=color:orange;>3</div>","89,71","1000","test","Amplitude","orange","3","magnitude","stay","switch","44","true","89","",""
"","","call-function","225","284512","0.0-146.0","sub-04_ses-01_2","","","","set_stims","","","","","","","","","","","","","","","",""
"-1","-1","poldrack-single-stim","226","285433","0.0-147.0","sub-04_ses-01_2","","900","0","cue","","<div class = upperbox><div class = ""center-text"" >Orange-Bleu</div></div><div class = lowerbox><div class = fixation>+</div></div>","none","900","test","Orange-Bleu","#1F45FC","6","color","switch","switch","45","","","",""
"389","71","poldrack-single-stim","227","287715","0.0-148.0","sub-04_ses-01_2","","2272","0","stim","","<div class = upperbox><div class = ""center-text"" >Orange-Bleu</div></div><div class = lowerbox><div class = ""stim-text"" style=color:#1F45FC;>6</div>","89,71","1000","test","Orange-Bleu","#1F45FC","6","color","switch","switch","45","true","71","",""
"","","call-function","228","287716","0.0-149.0","sub-04_ses-01_2","","","","set_stims","","","","","","","","","","","","","","","",""
"-1","-1","poldrack-single-stim","229","287833","0.0-150.0","sub-04_ses-01_2","","100","0","cue","","<div class = upperbox><div class = ""center-text"" >Haut-Bas</div></div><div class = lowerbox><div class = fixation>+</div></div>","none","100","test","Haut-Bas","#1F45FC","6","magnitude","switch","stay","46","","","",""
"802","71","poldrack-single-stim","230","290252","0.0-151.0","sub-04_ses-01_2","","2408","0","stim","","<div class = upperbox><div class = ""center-text"" >Haut-Bas</div></div><div class = lowerbox><div class = ""stim-text"" style=color:#1F45FC;>6</div>","89,71","1000","test","Haut-Bas","#1F45FC","6","magnitude","switch","stay","46","true","71","",""
"","","call-function","231","290253","0.0-152.0","sub-04_ses-01_2","","","","set_stims","","","","","","","","","","","","","","","",""
"-1","-1","poldrack-single-stim","232","291172","0.0-153.0","sub-04_ses-01_2","","900","0","cue","","<div class = upperbox><div class = ""center-text"" >Haut-Bas</div></div><div class = lowerbox><div class = fixation>+</div></div>","none","900","test","Haut-Bas","orange","8","magnitude","stay","stay","47","","","",""
"492","71","poldrack-single-stim","233","293192","0.0-154.0","sub-04_ses-01_2","","2000","0","stim","","<div class = upperbox><div class = ""center-text"" >Haut-Bas</div></div><div class = lowerbox><div class = ""stim-text"" style=color:orange;>8</div>","89,71","1000","test","Haut-Bas","orange","8","magnitude","stay","stay","47","true","71","",""
"","","call-function","234","293193","0.0-155.0","sub-04_ses-01_2","","","","set_stims","","","","","","","","","","","","","","","",""
"-1","-1","poldrack-single-stim","235","294102","0.0-156.0","sub-04_ses-01_2","","900","0","cue","","<div class = upperbox><div class = ""center-text"" >Haut-Bas</div></div><div class = lowerbox><div class = fixation>+</div></div>","none","900","test","Haut-Bas","#1F45FC","8","magnitude","stay","stay","48","","","",""
"491","71","poldrack-single-stim","236","296111","0.0-157.0","sub-04_ses-01_2","","2000","0","stim","","<div class = upperbox><div class = ""center-text"" >Haut-Bas</div></div><div class = lowerbox><div class = ""stim-text"" style=color:#1F45FC;>8</div>","89,71","1000","test","Haut-Bas","#1F45FC","8","magnitude","stay","stay","48","true","71","",""
"","","call-function","237","296112","0.0-158.0","sub-04_ses-01_2","","","","set_stims","","","","","","","","","","","","","","","",""
"-1","-1","poldrack-single-stim","238","297032","0.0-159.0","sub-04_ses-01_2","","900","0","cue","","<div class = upperbox><div class = ""center-text"" >Orange-Bleu</div></div><div class = lowerbox><div class = fixation>+</div></div>","none","900","test","Orange-Bleu","orange","4","color","switch","stay","49","","","",""
"732","89","poldrack-single-stim","239","299043","0.0-160.0","sub-04_ses-01_2","","2000","0","stim","","<div class = upperbox><div class = ""center-text"" >Orange-Bleu</div></div><div class = lowerbox><div class = ""stim-text"" style=color:orange;>4</div>","89,71","1000","test","Orange-Bleu","orange","4","color","switch","stay","49","true","89","",""
"","","call-function","240","299044","0.0-161.0","sub-04_ses-01_2","","","","set_stims","","","","","","","","","","","","","","","",""
"-1","-1","poldrack-single-stim","241","299962","0.0-162.0","sub-04_ses-01_2","","900","0","cue","","<div class = upperbox><div class = ""center-text"" >Haut-Bas</div></div><div class = lowerbox><div class = fixation>+</div></div>","none","900","test","Haut-Bas","orange","6","magnitude","switch","stay","50","","","",""
"620","71","poldrack-single-stim","242","302252","0.0-163.0","sub-04_ses-01_2","","2272","0","stim","","<div class = upperbox><div class = ""center-text"" >Haut-Bas</div></div><div class = lowerbox><div class = ""stim-text"" style=color:orange;>6</div>","89,71","1000","test","Haut-Bas","orange","6","magnitude","switch","stay","50","true","71","",""
"","","call-function","243","302252","0.0-164.0","sub-04_ses-01_2","","","","set_stims","","","","","","","","","","","","","","","",""
"-1","-1","poldrack-single-stim","244","302372","0.0-165.0","sub-04_ses-01_2","","100","0","cue","","<div class = upperbox><div class = ""center-text"" >Haut-Bas</div></div><div class = lowerbox><div class = fixation>+</div></div>","none","100","test","Haut-Bas","#1F45FC","1","magnitude","stay","stay","51","","","",""
"818","89","poldrack-single-stim","245","304522","0.0-166.0","sub-04_ses-01_2","","2136","0","stim","","<div class = upperbox><div class = ""center-text"" >Haut-Bas</div></div><div class = lowerbox><div class = ""stim-text"" style=color:#1F45FC;>1</div>","89,71","1000","test","Haut-Bas","#1F45FC","1","magnitude","stay","stay","51","true","89","",""
"","","call-function","246","304523","0.0-167.0","sub-04_ses-01_2","","","","set_stims","","","","","","","","","","","","","","","",""
"-1","-1","poldrack-single-stim","247","305443","0.0-168.0","sub-04_ses-01_2","","900","0","cue","","<div class = upperbox><div class = ""center-text"" >Couleur</div></div><div class = lowerbox><div class = fixation>+</div></div>","none","900","test","Couleur","#1F45FC","1","color","switch","stay","52","","","",""
"393","71","poldrack-single-stim","248","307463","0.0-169.0","sub-04_ses-01_2","","2000","0","stim","","<div class = upperbox><div class = ""center-text"" >Couleur</div></div><div class = lowerbox><div class = ""stim-text"" style=color:#1F45FC;>1</div>","89,71","1000","test","Couleur","#1F45FC","1","color","switch","stay","52","true","71","",""
"","","call-function","249","307464","0.0-170.0","sub-04_ses-01_2","","","","set_stims","","","","","","","","","","","","","","","",""
"-1","-1","poldrack-single-stim","250","307582","0.0-171.0","sub-04_ses-01_2","","100","0","cue","","<div class = upperbox><div class = ""center-text"" >Orange-Bleu</div></div><div class = lowerbox><div class = fixation>+</div></div>","none","100","test","Orange-Bleu","orange","6","color","stay","switch","53","","","",""
"732","89","poldrack-single-stim","251","310142","0.0-172.0","sub-04_ses-01_2","","2544","0","stim","","<div class = upperbox><div class = ""center-text"" >Orange-Bleu</div></div><div class = lowerbox><div class = ""stim-text"" style=color:orange;>6</div>","89,71","1000","test","Orange-Bleu","orange","6","color","stay","switch","53","true","89","",""
"","","call-function","252","310142","0.0-173.0","sub-04_ses-01_2","","","","set_stims","","","","","","","","","","","","","","","",""
"-1","-1","poldrack-single-stim","253","310261","0.0-174.0","sub-04_ses-01_2","","100","0","cue","","<div class = upperbox><div class = ""center-text"" >Amplitude</div></div><div class = lowerbox><div class = fixation>+</div></div>","none","100","test","Amplitude","orange","2","magnitude","switch","switch","54","","","",""
"847","89","poldrack-single-stim","254","312542","0.0-175.0","sub-04_ses-01_2","","2272","0","stim","","<div class = upperbox><div class = ""center-text"" >Amplitude</div></div><div class = lowerbox><div class = ""stim-text"" style=color:orange;>2</div>","89,71","1000","test","Amplitude","orange","2","magnitude","switch","switch","54","true","89","",""
"","","call-function","255","312544","0.0-176.0","sub-04_ses-01_2","","","","set_stims","","","","","","","","","","","","","","","",""
"-1","-1","poldrack-single-stim","256","312662","0.0-177.0","sub-04_ses-01_2","","100","0","cue","","<div class = upperbox><div class = ""center-text"" >Amplitude</div></div><div class = lowerbox><div class = fixation>+</div></div>","none","100","test","Amplitude","#1F45FC","9","magnitude","stay","stay","55","","","",""
"718","71","poldrack-single-stim","257","314942","0.0-178.0","sub-04_ses-01_2","","2272","0","stim","","<div class = upperbox><div class = ""center-text"" >Amplitude</div></div><div class = lowerbox><div class = ""stim-text"" style=color:#1F45FC;>9</div>","89,71","1000","test","Amplitude","#1F45FC","9","magnitude","stay","stay","55","true","71","",""
"","","call-function","258","314942","0.0-179.0","sub-04_ses-01_2","","","","set_stims","","","","","","","","","","","","","","","",""
"-1","-1","poldrack-single-stim","259","315862","0.0-180.0","sub-04_ses-01_2","","900","0","cue","","<div class = upperbox><div class = ""center-text"" >Haut-Bas</div></div><div class = lowerbox><div class = fixation>+</div></div>","none","900","test","Haut-Bas","#1F45FC","7","magnitude","stay","switch","56","","","",""
"499","71","poldrack-single-stim","260","317881","0.0-181.0","sub-04_ses-01_2","","2000","0","stim","","<div class = upperbox><div class = ""center-text"" >Haut-Bas</div></div><div class = lowerbox><div class = ""stim-text"" style=color:#1F45FC;>7</div>","89,71","1000","test","Haut-Bas","#1F45FC","7","magnitude","stay","switch","56","true","71","",""
"","","call-function","261","317883","0.0-182.0","sub-04_ses-01_2","","","","set_stims","","","","","","","","","","","","","","","",""
"-1","-1","poldrack-single-stim","262","318802","0.0-183.0","sub-04_ses-01_2","","900","0","cue","","<div class = upperbox><div class = ""center-text"" >Haut-Bas</div></div><div class = lowerbox><div class = fixation>+</div></div>","none","900","test","Haut-Bas","#1F45FC","3","magnitude","stay","stay","57","","","",""
"661","89","poldrack-single-stim","263","320822","0.0-184.0","sub-04_ses-01_2","","2000","0","stim","","<div class = upperbox><div class = ""center-text"" >Haut-Bas</div></div><div class = lowerbox><div class = ""stim-text"" style=color:#1F45FC;>3</div>","89,71","1000","test","Haut-Bas","#1F45FC","3","magnitude","stay","stay","57","true","89","",""
"","","call-function","264","320823","0.0-185.0","sub-04_ses-01_2","","","","set_stims","","","","","","","","","","","","","","","",""
"-1","-1","poldrack-single-stim","265","320942","0.0-186.0","sub-04_ses-01_2","","100","0","cue","","<div class = upperbox><div class = ""center-text"" >Couleur</div></div><div class = lowerbox><div class = fixation>+</div></div>","none","100","test","Couleur","#1F45FC","3","color","switch","stay","58","","","",""
"839","71","poldrack-single-stim","266","323092","0.0-187.0","sub-04_ses-01_2","","2136","0","stim","","<div class = upperbox><div class = ""center-text"" >Couleur</div></div><div class = lowerbox><div class = ""stim-text"" style=color:#1F45FC;>3</div>","89,71","1000","test","Couleur","#1F45FC","3","color","switch","stay","58","true","71","",""
"","","call-function","267","323092","0.0-188.0","sub-04_ses-01_2","","","","set_stims","","","","","","","","","","","","","","","",""
"-1","-1","poldrack-single-stim","268","323212","0.0-189.0","sub-04_ses-01_2","","100","0","cue","","<div class = upperbox><div class = ""center-text"" >Amplitude</div></div><div class = lowerbox><div class = fixation>+</div></div>","none","100","test","Amplitude","#1F45FC","9","magnitude","switch","stay","59","","","",""
"1065","71","poldrack-single-stim","269","325232","0.0-190.0","sub-04_ses-01_2","","2000","0","stim","","<div class = upperbox><div class = ""center-text"" >Amplitude</div></div><div class = lowerbox><div class = ""stim-text"" style=color:#1F45FC;>9</div>","89,71","1000","test","Amplitude","#1F45FC","9","magnitude","switch","stay","59","true","71","",""
"","","call-function","270","325233","0.0-191.0","sub-04_ses-01_2","","","","set_stims","","","","","","","","","","","","","","","",""
"-1","-1","poldrack-single-stim","271","325352","0.0-192.0","sub-04_ses-01_2","","100","0","cue","","<div class = upperbox><div class = ""center-text"" >Haut-Bas</div></div><div class = lowerbox><div class = fixation>+</div></div>","none","100","test","Haut-Bas","#1F45FC","1","magnitude","stay","switch","60","","","",""
"653","89","poldrack-single-stim","272","327493","0.0-193.0","sub-04_ses-01_2","","2136","0","stim","","<div class = upperbox><div class = ""center-text"" >Haut-Bas</div></div><div class = lowerbox><div class = ""stim-text"" style=color:#1F45FC;>1</div>","89,71","1000","test","Haut-Bas","#1F45FC","1","magnitude","stay","switch","60","true","89","",""
"","","call-function","273","327493","0.0-194.0","sub-04_ses-01_2","","","","set_stims","","","","","","","","","","","","","","","",""
"-1","-1","poldrack-single-stim","274","328412","0.0-195.0","sub-04_ses-01_2","","900","0","cue","","<div class = upperbox><div class = ""center-text"" >Orange-Bleu</div></div><div class = lowerbox><div class = fixation>+</div></div>","none","900","test","Orange-Bleu","#1F45FC","9","color","switch","stay","61","","","",""
"498","71","poldrack-single-stim","275","330692","0.0-196.0","sub-04_ses-01_2","","2272","0","stim","","<div class = upperbox><div class = ""center-text"" >Orange-Bleu</div></div><div class = lowerbox><div class = ""stim-text"" style=color:#1F45FC;>9</div>","89,71","1000","test","Orange-Bleu","#1F45FC","9","color","switch","stay","61","true","71","",""
"","","call-function","276","330694","0.0-197.0","sub-04_ses-01_2","","","","set_stims","","","","","","","","","","","","","","","",""
"-1","-1","poldrack-single-stim","277","331612","0.0-198.0","sub-04_ses-01_2","","900","0","cue","","<div class = upperbox><div class = ""center-text"" >Amplitude</div></div><div class = lowerbox><div class = fixation>+</div></div>","none","900","test","Amplitude","orange","9","magnitude","switch","switch","62","","","",""
"433","71","poldrack-single-stim","278","333751","0.0-199.0","sub-04_ses-01_2","","2136","0","stim","","<div class = upperbox><div class = ""center-text"" >Amplitude</div></div><div class = lowerbox><div class = ""stim-text"" style=color:orange;>9</div>","89,71","1000","test","Amplitude","orange","9","magnitude","switch","switch","62","true","71","",""
"","","call-function","279","333753","0.0-200.0","sub-04_ses-01_2","","","","set_stims","","","","","","","","","","","","","","","",""
"-1","-1","poldrack-single-stim","280","333872","0.0-201.0","sub-04_ses-01_2","","100","0","cue","","<div class = upperbox><div class = ""center-text"" >Amplitude</div></div><div class = lowerbox><div class = fixation>+</div></div>","none","100","test","Amplitude","#1F45FC","8","magnitude","stay","stay","63","","","",""
"584","71","poldrack-single-stim","281","336152","0.0-202.0","sub-04_ses-01_2","","2272","0","stim","","<div class = upperbox><div class = ""center-text"" >Amplitude</div></div><div class = lowerbox><div class = ""stim-text"" style=color:#1F45FC;>8</div>","89,71","1000","test","Amplitude","#1F45FC","8","magnitude","stay","stay","63","true","71","",""
"","","call-function","282","336153","0.0-203.0","sub-04_ses-01_2","","","","set_stims","","","","","","","","","","","","","","","",""
"-1","-1","poldrack-single-stim","283","337062","0.0-204.0","sub-04_ses-01_2","","900","0","cue","","<div class = upperbox><div class = ""center-text"" >Couleur</div></div><div class = lowerbox><div class = fixation>+</div></div>","none","900","test","Couleur","#1F45FC","8","color","switch","stay","64","","","",""
"802","71","poldrack-single-stim","284","339073","0.0-205.0","sub-04_ses-01_2","","2000","0","stim","","<div class = upperbox><div class = ""center-text"" >Couleur</div></div><div class = lowerbox><div class = ""stim-text"" style=color:#1F45FC;>8</div>","89,71","1000","test","Couleur","#1F45FC","8","color","switch","stay","64","true","71","",""
"","","call-function","285","339074","0.0-206.0","sub-04_ses-01_2","","","","set_stims","","","","","","","","","","","","","","","",""
"-1","-1","poldrack-single-stim","286","339993","0.0-207.0","sub-04_ses-01_2","","900","0","cue","","<div class = upperbox><div class = ""center-text"" >Couleur</div></div><div class = lowerbox><div class = fixation>+</div></div>","none","900","test","Couleur","orange","9","color","stay","stay","65","","","",""
"796","89","poldrack-single-stim","287","342823","0.0-208.0","sub-04_ses-01_2","","2816","0","stim","","<div class = upperbox><div class = ""center-text"" >Couleur</div></div><div class = lowerbox><div class = ""stim-text"" style=color:orange;>9</div>","89,71","1000","test","Couleur","orange","9","color","stay","stay","65","true","89","",""
"","","call-function","288","342824","0.0-209.0","sub-04_ses-01_2","","","","set_stims","","","","","","","","","","","","","","","",""
"-1","-1","poldrack-single-stim","289","343742","0.0-210.0","sub-04_ses-01_2","","900","0","cue","","<div class = upperbox><div class = ""center-text"" >Orange-Bleu</div></div><div class = lowerbox><div class = fixation>+</div></div>","none","900","test","Orange-Bleu","orange","8","color","stay","switch","66","","","",""
"627","89","poldrack-single-stim","290","346162","0.0-211.0","sub-04_ses-01_2","","2408","0","stim","","<div class = upperbox><div class = ""center-text"" >Orange-Bleu</div></div><div class = lowerbox><div class = ""stim-text"" style=color:orange;>8</div>","89,71","1000","test","Orange-Bleu","orange","8","color","stay","switch","66","true","89","",""
"","","call-function","291","346162","0.0-212.0","sub-04_ses-01_2","","","","set_stims","","","","","","","","","","","","","","","",""
"-1","-1","poldrack-single-stim","292","346282","0.0-213.0","sub-04_ses-01_2","","100","0","cue","","<div class = upperbox><div class = ""center-text"" >Orange-Bleu</div></div><div class = lowerbox><div class = fixation>+</div></div>","none","100","test","Orange-Bleu","orange","3","color","stay","stay","67","","","",""
"512","89","poldrack-single-stim","293","348303","0.0-214.0","sub-04_ses-01_2","","2000","0","stim","","<div class = upperbox><div class = ""center-text"" >Orange-Bleu</div></div><div class = lowerbox><div class = ""stim-text"" style=color:orange;>3</div>","89,71","1000","test","Orange-Bleu","orange","3","color","stay","stay","67","true","89","",""
"","","call-function","294","348303","0.0-215.0","sub-04_ses-01_2","","","","set_stims","","","","","","","","","","","","","","","",""
"-1","-1","poldrack-single-stim","295","349212","0.0-216.0","sub-04_ses-01_2","","900","0","cue","","<div class = upperbox><div class = ""center-text"" >Orange-Bleu</div></div><div class = lowerbox><div class = fixation>+</div></div>","none","900","test","Orange-Bleu","#1F45FC","3","color","stay","stay","68","","","",""
"359","71","poldrack-single-stim","296","351762","0.0-217.0","sub-04_ses-01_2","","2544","0","stim","","<div class = upperbox><div class = ""center-text"" >Orange-Bleu</div></div><div class = lowerbox><div class = ""stim-text"" style=color:#1F45FC;>3</div>","89,71","1000","test","Orange-Bleu","#1F45FC","3","color","stay","stay","68","true","71","",""
"","","call-function","297","351763","0.0-218.0","sub-04_ses-01_2","","","","set_stims","","","","","","","","","","","","","","","",""
"-1","-1","poldrack-single-stim","298","352682","0.0-219.0","sub-04_ses-01_2","","900","0","cue","","<div class = upperbox><div class = ""center-text"" >Amplitude</div></div><div class = lowerbox><div class = fixation>+</div></div>","none","900","test","Amplitude","#1F45FC","8","magnitude","switch","switch","69","","","",""
"460","71","poldrack-single-stim","299","354823","0.0-220.0","sub-04_ses-01_2","","2136","0","stim","","<div class = upperbox><div class = ""center-text"" >Amplitude</div></div><div class = lowerbox><div class = ""stim-text"" style=color:#1F45FC;>8</div>","89,71","1000","test","Amplitude","#1F45FC","8","magnitude","switch","switch","69","true","71","",""
"","","call-function","300","354823","0.0-221.0","sub-04_ses-01_2","","","","set_stims","","","","","","","","","","","","","","","",""
"-1","-1","poldrack-single-stim","301","355741","0.0-222.0","sub-04_ses-01_2","","900","0","cue","","<div class = upperbox><div class = ""center-text"" >Couleur</div></div><div class = lowerbox><div class = fixation>+</div></div>","none","900","test","Couleur","#1F45FC","9","color","switch","stay","70","","","",""
"800","71","poldrack-single-stim","302","357762","0.0-223.0","sub-04_ses-01_2","","2000","0","stim","","<div class = upperbox><div class = ""center-text"" >Couleur</div></div><div class = lowerbox><div class = ""stim-text"" style=color:#1F45FC;>9</div>","89,71","1000","test","Couleur","#1F45FC","9","color","switch","stay","70","true","71","",""
"","","call-function","303","357762","0.0-224.0","sub-04_ses-01_2","","","","set_stims","","","","","","","","","","","","","","","",""
"-1","-1","poldrack-single-stim","304","357882","0.0-225.0","sub-04_ses-01_2","","100","0","cue","","<div class = upperbox><div class = ""center-text"" >Couleur</div></div><div class = lowerbox><div class = fixation>+</div></div>","none","100","test","Couleur","#1F45FC","2","color","stay","stay","71","","","",""
"666","71","poldrack-single-stim","305","359902","0.0-226.0","sub-04_ses-01_2","","2000","0","stim","","<div class = upperbox><div class = ""center-text"" >Couleur</div></div><div class = lowerbox><div class = ""stim-text"" style=color:#1F45FC;>2</div>","89,71","1000","test","Couleur","#1F45FC","2","color","stay","stay","71","true","71","",""
"","","call-function","306","359902","0.0-227.0","sub-04_ses-01_2","","","","set_stims","","","","","","","","","","","","","","","",""
"-1","-1","poldrack-single-stim","307","360022","0.0-228.0","sub-04_ses-01_2","","100","0","cue","","<div class = upperbox><div class = ""center-text"" >Orange-Bleu</div></div><div class = lowerbox><div class = fixation>+</div></div>","none","100","test","Orange-Bleu","orange","7","color","stay","switch","72","","","",""
"747","89","poldrack-single-stim","308","362162","0.0-229.0","sub-04_ses-01_2","","2136","0","stim","","<div class = upperbox><div class = ""center-text"" >Orange-Bleu</div></div><div class = lowerbox><div class = ""stim-text"" style=color:orange;>7</div>","89,71","1000","test","Orange-Bleu","orange","7","color","stay","switch","72","true","89","",""
"","","call-function","309","362163","0.0-230.0","sub-04_ses-01_2","","","","set_stims","","","","","","","","","","","","","","","",""
"-1","-1","poldrack-single-stim","310","362282","0.0-231.0","sub-04_ses-01_2","","100","0","cue","","<div class = upperbox><div class = ""center-text"" >Orange-Bleu</div></div><div class = lowerbox><div class = fixation>+</div></div>","none","100","test","Orange-Bleu","orange","8","color","stay","stay","73","","","",""
"695","89","poldrack-single-stim","311","364422","0.0-232.0","sub-04_ses-01_2","","2136","0","stim","","<div class = upperbox><div class = ""center-text"" >Orange-Bleu</div></div><div class = lowerbox><div class = ""stim-text"" style=color:orange;>8</div>","89,71","1000","test","Orange-Bleu","orange","8","color","stay","stay","73","true","89","",""
"","","call-function","312","364422","0.0-233.0","sub-04_ses-01_2","","","","set_stims","","","","","","","","","","","","","","","",""
"-1","-1","poldrack-single-stim","313","365342","0.0-234.0","sub-04_ses-01_2","","900","0","cue","","<div class = upperbox><div class = ""center-text"" >Haut-Bas</div></div><div class = lowerbox><div class = fixation>+</div></div>","none","900","test","Haut-Bas","orange","2","magnitude","switch","stay","74","","","",""
"379","89","poldrack-single-stim","314","367622","0.0-235.0","sub-04_ses-01_2","","2272","0","stim","","<div class = upperbox><div class = ""center-text"" >Haut-Bas</div></div><div class = lowerbox><div class = ""stim-text"" style=color:orange;>2</div>","89,71","1000","test","Haut-Bas","orange","2","magnitude","switch","stay","74","true","89","",""
"","","call-function","315","367624","0.0-236.0","sub-04_ses-01_2","","","","set_stims","","","","","","","","","","","","","","","",""
"-1","-1","poldrack-single-stim","316","368542","0.0-237.0","sub-04_ses-01_2","","900","0","cue","","<div class = upperbox><div class = ""center-text"" >Amplitude</div></div><div class = lowerbox><div class = fixation>+</div></div>","none","900","test","Amplitude","#1F45FC","4","magnitude","stay","switch","75","","","",""
"799","89","poldrack-single-stim","317","371782","0.0-238.0","sub-04_ses-01_2","","3224","0","stim","","<div class = upperbox><div class = ""center-text"" >Amplitude</div></div><div class = lowerbox><div class = ""stim-text"" style=color:#1F45FC;>4</div>","89,71","1000","test","Amplitude","#1F45FC","4","magnitude","stay","switch","75","true","89","",""
"","","call-function","318","371783","0.0-239.0","sub-04_ses-01_2","","","","set_stims","","","","","","","","","","","","","","","",""
"-1","-1","poldrack-single-stim","319","371903","0.0-240.0","sub-04_ses-01_2","","100","0","cue","","<div class = upperbox><div class = ""center-text"" >Haut-Bas</div></div><div class = lowerbox><div class = fixation>+</div></div>","none","100","test","Haut-Bas","orange","2","magnitude","stay","switch","76","","","",""
"590","89","poldrack-single-stim","320","373923","0.0-241.0","sub-04_ses-01_2","","2000","0","stim","","<div class = upperbox><div class = ""center-text"" >Haut-Bas</div></div><div class = lowerbox><div class = ""stim-text"" style=color:orange;>2</div>","89,71","1000","test","Haut-Bas","orange","2","magnitude","stay","switch","76","true","89","",""
"","","call-function","321","373924","0.0-242.0","sub-04_ses-01_2","","","","set_stims","","","","","","","","","","","","","","","",""
"-1","-1","poldrack-single-stim","322","374841","0.0-243.0","sub-04_ses-01_2","","900","0","cue","","<div class = upperbox><div class = ""center-text"" >Couleur</div></div><div class = lowerbox><div class = fixation>+</div></div>","none","900","test","Couleur","orange","1","color","switch","switch","77","","","",""
"438","89","poldrack-single-stim","323","376861","0.0-244.0","sub-04_ses-01_2","","2000","0","stim","","<div class = upperbox><div class = ""center-text"" >Couleur</div></div><div class = lowerbox><div class = ""stim-text"" style=color:orange;>1</div>","89,71","1000","test","Couleur","orange","1","color","switch","switch","77","true","89","",""
"","","call-function","324","376861","0.0-245.0","sub-04_ses-01_2","","","","set_stims","","","","","","","","","","","","","","","",""
"-1","-1","poldrack-single-stim","325","376981","0.0-246.0","sub-04_ses-01_2","","100","0","cue","","<div class = upperbox><div class = ""center-text"" >Amplitude</div></div><div class = lowerbox><div class = fixation>+</div></div>","none","100","test","Amplitude","orange","8","magnitude","switch","switch","78","","","",""
"830","71","poldrack-single-stim","326","379271","0.0-247.0","sub-04_ses-01_2","","2272","0","stim","","<div class = upperbox><div class = ""center-text"" >Amplitude</div></div><div class = lowerbox><div class = ""stim-text"" style=color:orange;>8</div>","89,71","1000","test","Amplitude","orange","8","magnitude","switch","switch","78","true","71","",""
"","","call-function","327","379272","0.0-248.0","sub-04_ses-01_2","","","","set_stims","","","","","","","","","","","","","","","",""
"-1","-1","poldrack-single-stim","328","379392","0.0-249.0","sub-04_ses-01_2","","100","0","cue","","<div class = upperbox><div class = ""center-text"" >Couleur</div></div><div class = lowerbox><div class = fixation>+</div></div>","none","100","test","Couleur","orange","8","color","switch","stay","79","","","",""
"718","89","poldrack-single-stim","329","381552","0.0-250.0","sub-04_ses-01_2","","2136","0","stim","","<div class = upperbox><div class = ""center-text"" >Couleur</div></div><div class = lowerbox><div class = ""stim-text"" style=color:orange;>8</div>","89,71","1000","test","Couleur","orange","8","color","switch","stay","79","true","89","",""
"-1","-1","poldrack-single-stim","330","391565","0.0-251.0","sub-04_ses-01_2","","10000","1000","rest_block","","<div class = centerbox><div class = center-text>+</div></div>","none","10000","","","","","","","","","","","",""
"-1","-1","poldrack-single-stim","331","394093","0.0-252.0","sub-04_ses-01_2","","1500","500","test_start_block","","<div class = centerbox><div class = center-text>Preparez-vous!</p></div>","none","1500","","","","","","","","","","","",""
"-1","-1","poldrack-single-stim","332","395131","0.0-253.0","sub-04_ses-01_2","","500","0","fixation","","<div class = upperbox><div class = fixation>+</div></div><div class = lowerbox><div class = fixation>+</div></div>","none","500","test","","","","","","","","","","",""
"","","call-function","333","395132","0.0-254.0","sub-04_ses-01_2","","","","set_stims","","","","","","","","","","","","","","","",""
"-1","-1","poldrack-single-stim","334","396042","0.0-255.0","sub-04_ses-01_2","","900","0","cue","","<div class = upperbox><div class = ""center-text"" >Amplitude</div></div><div class = lowerbox><div class = fixation>+</div></div>","none","900","test","Amplitude","orange","3","magnitude","stay","stay","0","","","",""
"439","89","poldrack-single-stim","335","398052","0.0-256.0","sub-04_ses-01_2","","2000","0","stim","","<div class = upperbox><div class = ""center-text"" >Amplitude</div></div><div class = lowerbox><div class = ""stim-text"" style=color:orange;>3</div>","89,71","1000","test","Amplitude","orange","3","magnitude","stay","stay","0","true","89","",""
"","","call-function","336","398053","0.0-257.0","sub-04_ses-01_2","","","","set_stims","","","","","","","","","","","","","","","",""
"-1","-1","poldrack-single-stim","337","398172","0.0-258.0","sub-04_ses-01_2","","100","0","cue","","<div class = upperbox><div class = ""center-text"" >Orange-Bleu</div></div><div class = lowerbox><div class = fixation>+</div></div>","none","100","test","Orange-Bleu","orange","6","color","switch","switch","1","","","",""
"593","89","poldrack-single-stim","338","400192","0.0-259.0","sub-04_ses-01_2","","2000","0","stim","","<div class = upperbox><div class = ""center-text"" >Orange-Bleu</div></div><div class = lowerbox><div class = ""stim-text"" style=color:orange;>6</div>","89,71","1000","test","Orange-Bleu","orange","6","color","switch","switch","1","true","89","",""
"","","call-function","339","400193","0.0-260.0","sub-04_ses-01_2","","","","set_stims","","","","","","","","","","","","","","","",""
"-1","-1","poldrack-single-stim","340","400310","0.0-261.0","sub-04_ses-01_2","","100","0","cue","","<div class = upperbox><div class = ""center-text"" >Amplitude</div></div><div class = lowerbox><div class = fixation>+</div></div>","none","100","test","Amplitude","#1F45FC","9","magnitude","switch","stay","2","","","",""
"706","71","poldrack-single-stim","341","402331","0.0-262.0","sub-04_ses-01_2","","2000","0","stim","","<div class = upperbox><div class = ""center-text"" >Amplitude</div></div><div class = lowerbox><div class = ""stim-text"" style=color:#1F45FC;>9</div>","89,71","1000","test","Amplitude","#1F45FC","9","magnitude","switch","stay","2","true","71","",""
"","","call-function","342","402332","0.0-263.0","sub-04_ses-01_2","","","","set_stims","","","","","","","","","","","","","","","",""
"-1","-1","poldrack-single-stim","343","402452","0.0-264.0","sub-04_ses-01_2","","100","0","cue","","<div class = upperbox><div class = ""center-text"" >Couleur</div></div><div class = lowerbox><div class = fixation>+</div></div>","none","100","test","Couleur","orange","9","color","switch","switch","3","","","",""
"671","89","poldrack-single-stim","344","405141","0.0-265.0","sub-04_ses-01_2","","2680","0","stim","","<div class = upperbox><div class = ""center-text"" >Couleur</div></div><div class = lowerbox><div class = ""stim-text"" style=color:orange;>9</div>","89,71","1000","test","Couleur","orange","9","color","switch","switch","3","true","89","",""
"","","call-function","345","405142","0.0-266.0","sub-04_ses-01_2","","","","set_stims","","","","","","","","","","","","","","","",""
"-1","-1","poldrack-single-stim","346","406062","0.0-267.0","sub-04_ses-01_2","","900","0","cue","","<div class = upperbox><div class = ""center-text"" >Amplitude</div></div><div class = lowerbox><div class = fixation>+</div></div>","none","900","test","Amplitude","orange","9","magnitude","switch","stay","4","","","",""
"423","71","poldrack-single-stim","347","408071","0.0-268.0","sub-04_ses-01_2","","2000","0","stim","","<div class = upperbox><div class = ""center-text"" >Amplitude</div></div><div class = lowerbox><div class = ""stim-text"" style=color:orange;>9</div>","89,71","1000","test","Amplitude","orange","9","magnitude","switch","stay","4","true","71","",""
"","","call-function","348","408072","0.0-269.0","sub-04_ses-01_2","","","","set_stims","","","","","","","","","","","","","","","",""
"-1","-1","poldrack-single-stim","349","408181","0.0-270.0","sub-04_ses-01_2","","100","0","cue","","<div class = upperbox><div class = ""center-text"" >Amplitude</div></div><div class = lowerbox><div class = fixation>+</div></div>","none","100","test","Amplitude","orange","6","magnitude","stay","stay","5","","","",""
"912","71","poldrack-single-stim","350","410471","0.0-271.0","sub-04_ses-01_2","","2272","0","stim","","<div class = upperbox><div class = ""center-text"" >Amplitude</div></div><div class = lowerbox><div class = ""stim-text"" style=color:orange;>6</div>","89,71","1000","test","Amplitude","orange","6","magnitude","stay","stay","5","true","71","",""
"","","call-function","351","410472","0.0-272.0","sub-04_ses-01_2","","","","set_stims","","","","","","","","","","","","","","","",""
"-1","-1","poldrack-single-stim","352","410591","0.0-273.0","sub-04_ses-01_2","","100","0","cue","","<div class = upperbox><div class = ""center-text"" >Haut-Bas</div></div><div class = lowerbox><div class = fixation>+</div></div>","none","100","test","Haut-Bas","orange","7","magnitude","stay","switch","6","","","",""
"817","71","poldrack-single-stim","353","412611","0.0-274.0","sub-04_ses-01_2","","2000","0","stim","","<div class = upperbox><div class = ""center-text"" >Haut-Bas</div></div><div class = lowerbox><div class = ""stim-text"" style=color:orange;>7</div>","89,71","1000","test","Haut-Bas","orange","7","magnitude","stay","switch","6","true","71","",""
"","","call-function","354","412612","0.0-275.0","sub-04_ses-01_2","","","","set_stims","","","","","","","","","","","","","","","",""
"-1","-1","poldrack-single-stim","355","413532","0.0-276.0","sub-04_ses-01_2","","900","0","cue","","<div class = upperbox><div class = ""center-text"" >Amplitude</div></div><div class = lowerbox><div class = fixation>+</div></div>","none","900","test","Amplitude","#1F45FC","7","magnitude","stay","switch","7","","","",""
"527","71","poldrack-single-stim","356","415812","0.0-277.0","sub-04_ses-01_2","","2272","0","stim","","<div class = upperbox><div class = ""center-text"" >Amplitude</div></div><div class = lowerbox><div class = ""stim-text"" style=color:#1F45FC;>7</div>","89,71","1000","test","Amplitude","#1F45FC","7","magnitude","stay","switch","7","true","71","",""
"","","call-function","357","415813","0.0-278.0","sub-04_ses-01_2","","","","set_stims","","","","","","","","","","","","","","","",""
"-1","-1","poldrack-single-stim","358","415932","0.0-279.0","sub-04_ses-01_2","","100","0","cue","","<div class = upperbox><div class = ""center-text"" >Couleur</div></div><div class = lowerbox><div class = fixation>+</div></div>","none","100","test","Couleur","#1F45FC","3","color","switch","stay","8","","","",""
"943","71","poldrack-single-stim","359","418891","0.0-280.0","sub-04_ses-01_2","","2952","0","stim","","<div class = upperbox><div class = ""center-text"" >Couleur</div></div><div class = lowerbox><div class = ""stim-text"" style=color:#1F45FC;>3</div>","89,71","1000","test","Couleur","#1F45FC","3","color","switch","stay","8","true","71","",""
"","","call-function","360","418892","0.0-281.0","sub-04_ses-01_2","","","","set_stims","","","","","","","","","","","","","","","",""
"-1","-1","poldrack-single-stim","361","419013","0.0-282.0","sub-04_ses-01_2","","100","0","cue","","<div class = upperbox><div class = ""center-text"" >Haut-Bas</div></div><div class = lowerbox><div class = fixation>+</div></div>","none","100","test","Haut-Bas","orange","7","magnitude","switch","stay","9","","","",""
"743","71","poldrack-single-stim","362","421031","0.0-283.0","sub-04_ses-01_2","","2000","0","stim","","<div class = upperbox><div class = ""center-text"" >Haut-Bas</div></div><div class = lowerbox><div class = ""stim-text"" style=color:orange;>7</div>","89,71","1000","test","Haut-Bas","orange","7","magnitude","switch","stay","9","true","71","",""
"","","call-function","363","421032","0.0-284.0","sub-04_ses-01_2","","","","set_stims","","","","","","","","","","","","","","","",""
"-1","-1","poldrack-single-stim","364","421952","0.0-285.0","sub-04_ses-01_2","","900","0","cue","","<div class = upperbox><div class = ""center-text"" >Orange-Bleu</div></div><div class = lowerbox><div class = fixation>+</div></div>","none","900","test","Orange-Bleu","orange","8","color","switch","stay","10","","","",""
"817","89","poldrack-single-stim","365","423961","0.0-286.0","sub-04_ses-01_2","","2000","0","stim","","<div class = upperbox><div class = ""center-text"" >Orange-Bleu</div></div><div class = lowerbox><div class = ""stim-text"" style=color:orange;>8</div>","89,71","1000","test","Orange-Bleu","orange","8","color","switch","stay","10","true","89","",""
"","","call-function","366","423962","0.0-287.0","sub-04_ses-01_2","","","","set_stims","","","","","","","","","","","","","","","",""
"-1","-1","poldrack-single-stim","367","424082","0.0-288.0","sub-04_ses-01_2","","100","0","cue","","<div class = upperbox><div class = ""center-text"" >Couleur</div></div><div class = lowerbox><div class = fixation>+</div></div>","none","100","test","Couleur","orange","1","color","stay","switch","11","","","",""
"885","89","poldrack-single-stim","368","426091","0.0-289.0","sub-04_ses-01_2","","2000","0","stim","","<div class = upperbox><div class = ""center-text"" >Couleur</div></div><div class = lowerbox><div class = ""stim-text"" style=color:orange;>1</div>","89,71","1000","test","Couleur","orange","1","color","stay","switch","11","true","89","",""
"","","call-function","369","426092","0.0-290.0","sub-04_ses-01_2","","","","set_stims","","","","","","","","","","","","","","","",""
"-1","-1","poldrack-single-stim","370","426214","0.0-291.0","sub-04_ses-01_2","","100","0","cue","","<div class = upperbox><div class = ""center-text"" >Haut-Bas</div></div><div class = lowerbox><div class = fixation>+</div></div>","none","100","test","Haut-Bas","#1F45FC","6","magnitude","switch","stay","12","","","",""
"630","71","poldrack-single-stim","371","428231","0.0-292.0","sub-04_ses-01_2","","2000","0","stim","","<div class = upperbox><div class = ""center-text"" >Haut-Bas</div></div><div class = lowerbox><div class = ""stim-text"" style=color:#1F45FC;>6</div>","89,71","1000","test","Haut-Bas","#1F45FC","6","magnitude","switch","stay","12","true","71","",""
"","","call-function","372","428232","0.0-293.0","sub-04_ses-01_2","","","","set_stims","","","","","","","","","","","","","","","",""
"-1","-1","poldrack-single-stim","373","429151","0.0-294.0","sub-04_ses-01_2","","900","0","cue","","<div class = upperbox><div class = ""center-text"" >Orange-Bleu</div></div><div class = lowerbox><div class = fixation>+</div></div>","none","900","test","Orange-Bleu","#1F45FC","7","color","switch","switch","13","","","",""
"358","71","poldrack-single-stim","374","431301","0.0-295.0","sub-04_ses-01_2","","2136","0","stim","","<div class = upperbox><div class = ""center-text"" >Orange-Bleu</div></div><div class = lowerbox><div class = ""stim-text"" style=color:#1F45FC;>7</div>","89,71","1000","test","Orange-Bleu","#1F45FC","7","color","switch","switch","13","true","71","",""
"","","call-function","375","431301","0.0-296.0","sub-04_ses-01_2","","","","set_stims","","","","","","","","","","","","","","","",""
"-1","-1","poldrack-single-stim","376","432212","0.0-297.0","sub-04_ses-01_2","","900","0","cue","","<div class = upperbox><div class = ""center-text"" >Couleur</div></div><div class = lowerbox><div class = fixation>+</div></div>","none","900","test","Couleur","#1F45FC","9","color","stay","switch","14","","","",""
