"rt","key_press","trial_type","trial_index","time_elapsed","internal_node_id","subject","text","block_duration","timing_post_trial","trial_id","stimulus","possible_responses","stim_duration","exp_stage","small_amount","large_amount","later_delay","choice","exp_id","bonus"
"2128","13","text","0","2131","0.0-0.0","sub-11_sess-02_2","","","","","","","","","","","","","",""
"1096","89","poldrack-text","1","4248","0.0-1.0","sub-11_sess-02_2","<div class = centerbox><div style = 'font-size: 50px' class = center-text>Veuillez appuyer avec votre index</p></div>","1096","500","fmri_response_test","","","","","","","","","",""
"330","71","poldrack-text","2","5100","0.0-2.0","sub-11_sess-02_2","<div class = centerbox><div style = 'font-size: 50px' class = center-text>Veuillez appuyer avec votre majeur</p></div>","330","500","fmri_response_test","","","","","","","","","",""
"4353","32","poldrack-single-stim","3","9969","0.0-3.0","sub-11_sess-02_2","","4353","500","instructions","<div class = centerbox><div class = center-text><font size=""+3"">Choisissez entre <strong>20€ aujourd'hui</strong> ou l'option presentee.<br><strong>Index:</strong> Accepter l'option a l'ecran (rejeter 20€ aujourd'hui). <br><strong>Majeur:</strong> Rejeter l'option a l'ecran (accept 20€ today)<br>Nous commencerons par un essai d'entrainement.</font></div></div>","32","4353","","","","","","",""
"2666","89","poldrack-single-stim","4","13148","0.0-4.0","sub-11_sess-02_2","","2666","1000","stim","<div class = dd-stim><div class = amtbox style = ""color:white"">53.75€</div><br><br><div class = delbox style = ""color:white"">34 days</div></div>","89,71","2666","practice","","","","","",""
"1649","32","poldrack-text","5","15818","0.0-5.0","sub-11_sess-02_2","<div class = centerbox><div  class = center-text>Scanner Setup</div></div>","1649","0","fmri_scanner_wait","","","","","","","","","",""
"54747","84","poldrack-text","6","70566","0.0-6.0","sub-11_sess-02_2","<div class = centerbox><div style='color:red'; class = center-text>+</div></div>","54747","0","fmri_trigger_wait","","","","","","","","","",""
"-1","-1","poldrack-single-stim","7","71590","0.0-7.0","sub-11_sess-02_2","","1000","0","fmri_buffer","","none","1000","","","","","","",""
"-1","-1","poldrack-single-stim","8","73098","0.0-8.0","sub-11_sess-02_2","","1500","500","test_start_block","<div class = centerbox><div class = center-text>Preparez-vous!</p></div>","none","1500","","","","","","",""
"1149","89","poldrack-single-stim","9","78939","0.0-9.0","sub-11_sess-02_2","","5316","0","","<div class = dd-stim><div class = amtbox style = ""color:white"">31€</div><br><br><div class = delbox style = ""color:white"">76 jours</div></div>","89,71","4000","","20","31","76","larger_later","",""
"771","89","poldrack-single-stim","10","83518","0.0-10.0","sub-11_sess-02_2","","4568","0","","<div class = dd-stim><div class = amtbox style = ""color:white"">43€</div><br><br><div class = delbox style = ""color:white"">19 jours</div></div>","89,71","4000","","20","43","19","larger_later","",""
"725","89","poldrack-single-stim","11","88159","0.0-11.0","sub-11_sess-02_2","","4636","0","","<div class = dd-stim><div class = amtbox style = ""color:white"">60€</div><br><br><div class = delbox style = ""color:white"">124 jours</div></div>","89,71","4000","","20","60","124","larger_later","",""
"637","71","poldrack-single-stim","12","93087","0.0-12.0","sub-11_sess-02_2","","4908","0","","<div class = dd-stim><div class = amtbox style = ""color:white"">27€</div><br><br><div class = delbox style = ""color:white"">142 jours</div></div>","89,71","4000","","20","27","142","smaller_sooner","",""
"740","71","poldrack-single-stim","13","97598","0.0-13.0","sub-11_sess-02_2","","4500","0","","<div class = dd-stim><div class = amtbox style = ""color:white"">25€</div><br><br><div class = delbox style = ""color:white"">70 jours</div></div>","89,71","4000","","20","25","70","smaller_sooner","",""
"908","89","poldrack-single-stim","14","102577","0.0-14.0","sub-11_sess-02_2","","4976","0","","<div class = dd-stim><div class = amtbox style = ""color:white"">44€</div><br><br><div class = delbox style = ""color:white"">92 jours</div></div>","89,71","4000","","20","44","92","larger_later","",""
"739","89","poldrack-single-stim","15","107507","0.0-15.0","sub-11_sess-02_2","","4908","0","","<div class = dd-stim><div class = amtbox style = ""color:white"">41€</div><br><br><div class = delbox style = ""color:white"">27 jours</div></div>","89,71","4000","","20","41","27","larger_later","",""
"695","89","poldrack-single-stim","16","112087","0.0-16.0","sub-11_sess-02_2","","4568","0","","<div class = dd-stim><div class = amtbox style = ""color:white"">64€</div><br><br><div class = delbox style = ""color:white"">89 jours</div></div>","89,71","4000","","20","64","89","larger_later","",""
"503","89","poldrack-single-stim","17","116598","0.0-17.0","sub-11_sess-02_2","","4500","0","","<div class = dd-stim><div class = amtbox style = ""color:white"">78€</div><br><br><div class = delbox style = ""color:white"">108 jours</div></div>","89,71","4000","","20","78","108","larger_later","",""
"433","89","poldrack-single-stim","18","122818","0.0-18.0","sub-11_sess-02_2","","6200","0","","<div class = dd-stim><div class = amtbox style = ""color:white"">80€</div><br><br><div class = delbox style = ""color:white"">145 jours</div></div>","89,71","4000","","20","80","145","larger_later","",""
"1624","89","poldrack-single-stim","19","127528","0.0-19.0","sub-11_sess-02_2","","4704","0","","<div class = dd-stim><div class = amtbox style = ""color:white"">41€</div><br><br><div class = delbox style = ""color:white"">174 jours</div></div>","89,71","4000","","20","41","174","larger_later","",""
"720","89","poldrack-single-stim","20","132588","0.0-20.0","sub-11_sess-02_2","","5044","0","","<div class = dd-stim><div class = amtbox style = ""color:white"">42€</div><br><br><div class = delbox style = ""color:white"">145 jours</div></div>","89,71","4000","","20","42","145","larger_later","",""
"965","89","poldrack-single-stim","21","137647","0.0-21.0","sub-11_sess-02_2","","5044","0","","<div class = dd-stim><div class = amtbox style = ""color:white"">36€</div><br><br><div class = delbox style = ""color:white"">114 jours</div></div>","89,71","4000","","20","36","114","larger_later","",""
"837","89","poldrack-single-stim","22","142848","0.0-22.0","sub-11_sess-02_2","","5180","0","","<div class = dd-stim><div class = amtbox style = ""color:white"">58€</div><br><br><div class = delbox style = ""color:white"">55 jours</div></div>","89,71","4000","","20","58","55","larger_later","",""
"530","89","poldrack-single-stim","23","147827","0.0-23.0","sub-11_sess-02_2","","4976","0","","<div class = dd-stim><div class = amtbox style = ""color:white"">81€</div><br><br><div class = delbox style = ""color:white"">58 jours</div></div>","89,71","4000","","20","81","58","larger_later","",""
"1449","71","poldrack-single-stim","24","152617","0.0-24.0","sub-11_sess-02_2","","4772","0","","<div class = dd-stim><div class = amtbox style = ""color:white"">32€</div><br><br><div class = delbox style = ""color:white"">111 jours</div></div>","89,71","4000","","20","32","111","smaller_sooner","",""
"904","71","poldrack-single-stim","25","157398","0.0-25.0","sub-11_sess-02_2","","4772","0","","<div class = dd-stim><div class = amtbox style = ""color:white"">25€</div><br><br><div class = delbox style = ""color:white"">141 jours</div></div>","89,71","4000","","20","25","141","smaller_sooner","",""
"1435","89","poldrack-single-stim","26","162594","0.0-26.0","sub-11_sess-02_2","","5180","0","","<div class = dd-stim><div class = amtbox style = ""color:white"">67€</div><br><br><div class = delbox style = ""color:white"">23 jours</div></div>","89,71","4000","","20","67","23","larger_later","",""
"865","89","poldrack-single-stim","27","167787","0.0-27.0","sub-11_sess-02_2","","5180","0","","<div class = dd-stim><div class = amtbox style = ""color:white"">77€</div><br><br><div class = delbox style = ""color:white"">161 jours</div></div>","89,71","4000","","20","77","161","larger_later","",""
"665","89","poldrack-single-stim","28","173037","0.0-28.0","sub-11_sess-02_2","","5248","0","","<div class = dd-stim><div class = amtbox style = ""color:white"">55€</div><br><br><div class = delbox style = ""color:white"">163 jours</div></div>","89,71","4000","","20","55","163","larger_later","",""
"1945","71","poldrack-single-stim","29","177629","0.0-29.0","sub-11_sess-02_2","","4568","0","","<div class = dd-stim><div class = amtbox style = ""color:white"">40€</div><br><br><div class = delbox style = ""color:white"">159 jours</div></div>","89,71","4000","","20","40","159","smaller_sooner","",""
"638","89","poldrack-single-stim","30","182148","0.0-30.0","sub-11_sess-02_2","","4500","0","","<div class = dd-stim><div class = amtbox style = ""color:white"">76€</div><br><br><div class = delbox style = ""color:white"">161 jours</div></div>","89,71","4000","","20","76","161","larger_later","",""
"789","89","poldrack-single-stim","31","187067","0.0-31.0","sub-11_sess-02_2","","4908","0","","<div class = dd-stim><div class = amtbox style = ""color:white"">48€</div><br><br><div class = delbox style = ""color:white"">128 jours</div></div>","89,71","4000","","20","48","128","larger_later","",""
"1261","89","poldrack-single-stim","32","191637","0.0-32.0","sub-11_sess-02_2","","4568","0","","<div class = dd-stim><div class = amtbox style = ""color:white"">39€</div><br><br><div class = delbox style = ""color:white"">95 jours</div></div>","89,71","4000","","20","39","95","larger_later","",""
"480","89","poldrack-single-stim","33","197856","0.0-33.0","sub-11_sess-02_2","","6200","0","","<div class = dd-stim><div class = amtbox style = ""color:white"">83€</div><br><br><div class = delbox style = ""color:white"">105 jours</div></div>","89,71","4000","","20","83","105","larger_later","",""
"692","89","poldrack-single-stim","34","202777","0.0-34.0","sub-11_sess-02_2","","4908","0","","<div class = dd-stim><div class = amtbox style = ""color:white"">67€</div><br><br><div class = delbox style = ""color:white"">41 jours</div></div>","89,71","4000","","20","67","41","larger_later","",""
"510","89","poldrack-single-stim","35","208048","0.0-35.0","sub-11_sess-02_2","","5248","0","","<div class = dd-stim><div class = amtbox style = ""color:white"">56€</div><br><br><div class = delbox style = ""color:white"">172 jours</div></div>","89,71","4000","","20","56","172","larger_later","",""
"959","71","poldrack-single-stim","36","213097","0.0-36.0","sub-11_sess-02_2","","5044","0","","<div class = dd-stim><div class = amtbox style = ""color:white"">28€</div><br><br><div class = delbox style = ""color:white"">123 jours</div></div>","89,71","4000","","20","28","123","smaller_sooner","",""
"697","89","poldrack-single-stim","37","217747","0.0-37.0","sub-11_sess-02_2","","4636","0","","<div class = dd-stim><div class = amtbox style = ""color:white"">50€</div><br><br><div class = delbox style = ""color:white"">129 jours</div></div>","89,71","4000","","20","50","129","larger_later","",""
"1096","71","poldrack-single-stim","38","222456","0.0-38.0","sub-11_sess-02_2","","4704","0","","<div class = dd-stim><div class = amtbox style = ""color:white"">23€</div><br><br><div class = delbox style = ""color:white"">61 jours</div></div>","89,71","4000","","20","23","61","smaller_sooner","",""
"501","89","poldrack-single-stim","39","227097","0.0-39.0","sub-11_sess-02_2","","4636","0","","<div class = dd-stim><div class = amtbox style = ""color:white"">79€</div><br><br><div class = delbox style = ""color:white"">92 jours</div></div>","89,71","4000","","20","79","92","larger_later","",""
"541","89","poldrack-single-stim","40","231677","0.0-40.0","sub-11_sess-02_2","","4568","0","","<div class = dd-stim><div class = amtbox style = ""color:white"">61€</div><br><br><div class = delbox style = ""color:white"">141 jours</div></div>","89,71","4000","","20","61","141","larger_later","",""
"1005","89","poldrack-single-stim","41","236256","0.0-41.0","sub-11_sess-02_2","","4568","0","","<div class = dd-stim><div class = amtbox style = ""color:white"">43€</div><br><br><div class = delbox style = ""color:white"">38 jours</div></div>","89,71","4000","","20","43","38","larger_later","",""
"545","89","poldrack-single-stim","42","241167","0.0-42.0","sub-11_sess-02_2","","4908","0","","<div class = dd-stim><div class = amtbox style = ""color:white"">66€</div><br><br><div class = delbox style = ""color:white"">145 jours</div></div>","89,71","4000","","20","66","145","larger_later","",""
"956","71","poldrack-single-stim","43","246028","0.0-43.0","sub-11_sess-02_2","","4840","0","","<div class = dd-stim><div class = amtbox style = ""color:white"">30€</div><br><br><div class = delbox style = ""color:white"">23 jours</div></div>","89,71","4000","","20","30","23","smaller_sooner","",""
"1041","71","poldrack-single-stim","44","251286","0.0-44.0","sub-11_sess-02_2","","5248","0","","<div class = dd-stim><div class = amtbox style = ""color:white"">32€</div><br><br><div class = delbox style = ""color:white"">57 jours</div></div>","89,71","4000","","20","32","57","smaller_sooner","",""
"1331","71","poldrack-single-stim","45","256076","0.0-45.0","sub-11_sess-02_2","","4772","0","","<div class = dd-stim><div class = amtbox style = ""color:white"">27€</div><br><br><div class = delbox style = ""color:white"">91 jours</div></div>","89,71","4000","","20","27","91","smaller_sooner","",""
"2550","89","poldrack-single-stim","46","262088","0.0-46.0","sub-11_sess-02_2","","5996","0","","<div class = dd-stim><div class = amtbox style = ""color:white"">43€</div><br><br><div class = delbox style = ""color:white"">120 jours</div></div>","89,71","4000","","20","43","120","larger_later","",""
"566","89","poldrack-single-stim","47","267697","0.0-47.0","sub-11_sess-02_2","","5588","0","","<div class = dd-stim><div class = amtbox style = ""color:white"">75€</div><br><br><div class = delbox style = ""color:white"">60 jours</div></div>","89,71","4000","","20","75","60","larger_later","",""
"1690","71","poldrack-single-stim","48","272276","0.0-48.0","sub-11_sess-02_2","","4568","0","","<div class = dd-stim><div class = amtbox style = ""color:white"">34€</div><br><br><div class = delbox style = ""color:white"">176 jours</div></div>","89,71","4000","","20","34","176","smaller_sooner","",""
"729","71","poldrack-single-stim","49","277407","0.0-49.0","sub-11_sess-02_2","","5112","0","","<div class = dd-stim><div class = amtbox style = ""color:white"">24€</div><br><br><div class = delbox style = ""color:white"">38 jours</div></div>","89,71","4000","","20","24","38","smaller_sooner","",""
"816","89","poldrack-single-stim","50","283067","0.0-50.0","sub-11_sess-02_2","","5656","0","","<div class = dd-stim><div class = amtbox style = ""color:white"">82€</div><br><br><div class = delbox style = ""color:white"">74 jours</div></div>","89,71","4000","","20","82","74","larger_later","",""
"965","89","poldrack-single-stim","51","287647","0.0-51.0","sub-11_sess-02_2","","4568","0","","<div class = dd-stim><div class = amtbox style = ""color:white"">58€</div><br><br><div class = delbox style = ""color:white"">53 jours</div></div>","89,71","4000","","20","58","53","larger_later","",""
"974","89","poldrack-single-stim","52","292437","0.0-52.0","sub-11_sess-02_2","","4772","0","","<div class = dd-stim><div class = amtbox style = ""color:white"">54€</div><br><br><div class = delbox style = ""color:white"">23 jours</div></div>","89,71","4000","","20","54","23","larger_later","",""
"591","89","poldrack-single-stim","53","297496","0.0-53.0","sub-11_sess-02_2","","5044","0","","<div class = dd-stim><div class = amtbox style = ""color:white"">41€</div><br><br><div class = delbox style = ""color:white"">55 jours</div></div>","89,71","4000","","20","41","55","larger_later","",""
"544","89","poldrack-single-stim","54","302357","0.0-54.0","sub-11_sess-02_2","","4840","0","","<div class = dd-stim><div class = amtbox style = ""color:white"">77€</div><br><br><div class = delbox style = ""color:white"">142 jours</div></div>","89,71","4000","","20","77","142","larger_later","",""
"854","71","poldrack-single-stim","55","307547","0.0-55.0","sub-11_sess-02_2","","5180","0","","<div class = dd-stim><div class = amtbox style = ""color:white"">25€</div><br><br><div class = delbox style = ""color:white"">108 jours</div></div>","89,71","4000","","20","25","108","smaller_sooner","",""
"1538","71","poldrack-single-stim","56","312596","0.0-56.0","sub-11_sess-02_2","","5044","0","","<div class = dd-stim><div class = amtbox style = ""color:white"">33€</div><br><br><div class = delbox style = ""color:white"">163 jours</div></div>","89,71","4000","","20","33","163","smaller_sooner","",""
"1489","71","poldrack-single-stim","57","317577","0.0-57.0","sub-11_sess-02_2","","4976","0","","<div class = dd-stim><div class = amtbox style = ""color:white"">29€</div><br><br><div class = delbox style = ""color:white"">75 jours</div></div>","89,71","4000","","20","29","75","smaller_sooner","",""
"943","89","poldrack-single-stim","58","322557","0.0-58.0","sub-11_sess-02_2","","4976","0","","<div class = dd-stim><div class = amtbox style = ""color:white"">45€</div><br><br><div class = delbox style = ""color:white"">157 jours</div></div>","89,71","4000","","20","45","157","larger_later","",""
"804","71","poldrack-single-stim","59","327877","0.0-59.0","sub-11_sess-02_2","","5316","0","","<div class = dd-stim><div class = amtbox style = ""color:white"">31€</div><br><br><div class = delbox style = ""color:white"">74 jours</div></div>","89,71","4000","","20","31","74","smaller_sooner","",""
"570","89","poldrack-single-stim","60","332396","0.0-60.0","sub-11_sess-02_2","","4500","0","","<div class = dd-stim><div class = amtbox style = ""color:white"">80€</div><br><br><div class = delbox style = ""color:white"">39 jours</div></div>","89,71","4000","","20","80","39","larger_later","",""
"555","71","poldrack-single-stim","61","337457","0.0-61.0","sub-11_sess-02_2","","5044","0","","<div class = dd-stim><div class = amtbox style = ""color:white"">22€</div><br><br><div class = delbox style = ""color:white"">21 jours</div></div>","89,71","4000","","20","22","21","smaller_sooner","",""
"522","89","poldrack-single-stim","62","342177","0.0-62.0","sub-11_sess-02_2","","4704","0","","<div class = dd-stim><div class = amtbox style = ""color:white"">52€</div><br><br><div class = delbox style = ""color:white"">139 jours</div></div>","89,71","4000","","20","52","139","larger_later","",""
"651","89","poldrack-single-stim","63","347037","0.0-63.0","sub-11_sess-02_2","","4840","0","","<div class = dd-stim><div class = amtbox style = ""color:white"">54€</div><br><br><div class = delbox style = ""color:white"">126 jours</div></div>","89,71","4000","","20","54","126","larger_later","",""
"905","71","poldrack-single-stim","64","353847","0.0-64.0","sub-11_sess-02_2","","6744","0","","<div class = dd-stim><div class = amtbox style = ""color:white"">23€</div><br><br><div class = delbox style = ""color:white"">176 jours</div></div>","89,71","4000","","20","23","176","smaller_sooner","",""
"970","71","poldrack-single-stim","65","358358","0.0-65.0","sub-11_sess-02_2","","4500","0","","<div class = dd-stim><div class = amtbox style = ""color:white"">24€</div><br><br><div class = delbox style = ""color:white"">87 jours</div></div>","89,71","4000","","20","24","87","smaller_sooner","",""
"1584","89","poldrack-single-stim","66","362946","0.0-66.0","sub-11_sess-02_2","","4568","0","","<div class = dd-stim><div class = amtbox style = ""color:white"">36€</div><br><br><div class = delbox style = ""color:white"">140 jours</div></div>","89,71","4000","","20","36","140","larger_later","",""
"749","89","poldrack-single-stim","67","367657","0.0-67.0","sub-11_sess-02_2","","4704","0","","<div class = dd-stim><div class = amtbox style = ""color:white"">35€</div><br><br><div class = delbox style = ""color:white"">171 jours</div></div>","89,71","4000","","20","35","171","larger_later","",""
"1258","89","poldrack-single-stim","68","372578","0.0-68.0","sub-11_sess-02_2","","4908","0","","<div class = dd-stim><div class = amtbox style = ""color:white"">34€</div><br><br><div class = delbox style = ""color:white"">43 jours</div></div>","89,71","4000","","20","34","43","larger_later","",""
"994","89","poldrack-single-stim","69","377165","0.0-69.0","sub-11_sess-02_2","","4568","0","","<div class = dd-stim><div class = amtbox style = ""color:white"">74€</div><br><br><div class = delbox style = ""color:white"">121 jours</div></div>","89,71","4000","","20","74","121","larger_later","",""
"-1","-1","poldrack-single-stim","70","384676","0.0-70.0","sub-11_sess-02_2","","7500","1000","rest_block","<div class = centerbox><div class = center-text>+</div></div>","none","7500","","","","","","",""
"1435","89","poldrack-single-stim","71","390476","0.0-71.0","sub-11_sess-02_2","","4772","0","","<div class = dd-stim><div class = amtbox style = ""color:white"">45€</div><br><br><div class = delbox style = ""color:white"">107 jours</div></div>","89,71","4000","","20","45","107","larger_later","",""
"455","89","poldrack-single-stim","72","395116","0.0-72.0","sub-11_sess-02_2","","4636","0","","<div class = dd-stim><div class = amtbox style = ""color:white"">77€</div><br><br><div class = delbox style = ""color:white"">24 jours</div></div>","89,71","4000","","20","77","24","larger_later","",""
"653","89","poldrack-single-stim","73","399708","0.0-73.0","sub-11_sess-02_2","","4568","0","","<div class = dd-stim><div class = amtbox style = ""color:white"">39€</div><br><br><div class = delbox style = ""color:white"">161 jours</div></div>","89,71","4000","","20","39","161","larger_later","",""
"543","89","poldrack-single-stim","74","405177","0.0-74.0","sub-11_sess-02_2","","5452","0","","<div class = dd-stim><div class = amtbox style = ""color:white"">62€</div><br><br><div class = delbox style = ""color:white"">180 jours</div></div>","89,71","4000","","20","62","180","larger_later","",""
"674","71","poldrack-single-stim","75","410578","0.0-75.0","sub-11_sess-02_2","","5384","0","","<div class = dd-stim><div class = amtbox style = ""color:white"">24€</div><br><br><div class = delbox style = ""color:white"">139 jours</div></div>","89,71","4000","","20","24","139","smaller_sooner","",""
"686","89","poldrack-single-stim","76","415157","0.0-76.0","sub-11_sess-02_2","","4568","0","","<div class = dd-stim><div class = amtbox style = ""color:white"">58€</div><br><br><div class = delbox style = ""color:white"">72 jours</div></div>","89,71","4000","","20","58","72","larger_later","",""
"622","89","poldrack-single-stim","77","421446","0.0-77.0","sub-11_sess-02_2","","6268","0","","<div class = dd-stim><div class = amtbox style = ""color:white"">56€</div><br><br><div class = delbox style = ""color:white"">93 jours</div></div>","89,71","4000","","20","56","93","larger_later","",""
"690","89","poldrack-single-stim","78","426977","0.0-78.0","sub-11_sess-02_2","","5520","0","","<div class = dd-stim><div class = amtbox style = ""color:white"">45€</div><br><br><div class = delbox style = ""color:white"">26 jours</div></div>","89,71","4000","","20","45","26","larger_later","",""
"984","71","poldrack-single-stim","79","431566","0.0-79.0","sub-11_sess-02_2","","4568","0","","<div class = dd-stim><div class = amtbox style = ""color:white"">23€</div><br><br><div class = delbox style = ""color:white"">42 jours</div></div>","89,71","4000","","20","23","42","smaller_sooner","",""
"961","89","poldrack-single-stim","80","436208","0.0-80.0","sub-11_sess-02_2","","4636","0","","<div class = dd-stim><div class = amtbox style = ""color:white"">50€</div><br><br><div class = delbox style = ""color:white"">41 jours</div></div>","89,71","4000","","20","50","41","larger_later","",""
"924","71","poldrack-single-stim","81","440847","0.0-81.0","sub-11_sess-02_2","","4636","0","","<div class = dd-stim><div class = amtbox style = ""color:white"">25€</div><br><br><div class = delbox style = ""color:white"">176 jours</div></div>","89,71","4000","","20","25","176","smaller_sooner","",""
"745","89","poldrack-single-stim","82","445976","0.0-82.0","sub-11_sess-02_2","","5112","0","","<div class = dd-stim><div class = amtbox style = ""color:white"">54€</div><br><br><div class = delbox style = ""color:white"">22 jours</div></div>","89,71","4000","","20","54","22","larger_later","",""
"1611","71","poldrack-single-stim","83","451296","0.0-83.0","sub-11_sess-02_2","","5316","0","","<div class = dd-stim><div class = amtbox style = ""color:white"">29€</div><br><br><div class = delbox style = ""color:white"">44 jours</div></div>","89,71","4000","","20","29","44","smaller_sooner","",""
"793","71","poldrack-single-stim","84","455877","0.0-84.0","sub-11_sess-02_2","","4568","0","","<div class = dd-stim><div class = amtbox style = ""color:white"">24€</div><br><br><div class = delbox style = ""color:white"">89 jours</div></div>","89,71","4000","","20","24","89","smaller_sooner","",""
"556","71","poldrack-single-stim","85","460466","0.0-85.0","sub-11_sess-02_2","","4568","0","","<div class = dd-stim><div class = amtbox style = ""color:white"">23€</div><br><br><div class = delbox style = ""color:white"">77 jours</div></div>","89,71","4000","","20","23","77","smaller_sooner","",""
"1197","71","poldrack-single-stim","86","465047","0.0-86.0","sub-11_sess-02_2","","4568","0","","<div class = dd-stim><div class = amtbox style = ""color:white"">27€</div><br><br><div class = delbox style = ""color:white"">130 jours</div></div>","89,71","4000","","20","27","130","smaller_sooner","",""
"1044","71","poldrack-single-stim","87","469907","0.0-87.0","sub-11_sess-02_2","","4840","0","","<div class = dd-stim><div class = amtbox style = ""color:white"">23€</div><br><br><div class = delbox style = ""color:white"">134 jours</div></div>","89,71","4000","","20","23","134","smaller_sooner","",""
"773","89","poldrack-single-stim","88","474427","0.0-88.0","sub-11_sess-02_2","","4500","0","","<div class = dd-stim><div class = amtbox style = ""color:white"">55€</div><br><br><div class = delbox style = ""color:white"">107 jours</div></div>","89,71","4000","","20","55","107","larger_later","",""
"450","89","poldrack-single-stim","89","480087","0.0-89.0","sub-11_sess-02_2","","5656","0","","<div class = dd-stim><div class = amtbox style = ""color:white"">44€</div><br><br><div class = delbox style = ""color:white"">143 jours</div></div>","89,71","4000","","20","44","143","larger_later","",""
"540","71","poldrack-single-stim","90","485006","0.0-90.0","sub-11_sess-02_2","","4908","0","","<div class = dd-stim><div class = amtbox style = ""color:white"">23€</div><br><br><div class = delbox style = ""color:white"">110 jours</div></div>","89,71","4000","","20","23","110","smaller_sooner","",""
"1341","89","poldrack-single-stim","91","489656","0.0-91.0","sub-11_sess-02_2","","4636","0","","<div class = dd-stim><div class = amtbox style = ""color:white"">65€</div><br><br><div class = delbox style = ""color:white"">156 jours</div></div>","89,71","4000","","20","65","156","larger_later","",""
"586","71","poldrack-single-stim","92","494190","0.0-92.0","sub-11_sess-02_2","","4500","0","","<div class = dd-stim><div class = amtbox style = ""color:white"">22€</div><br><br><div class = delbox style = ""color:white"">27 jours</div></div>","89,71","4000","","20","22","27","smaller_sooner","",""
"741","89","poldrack-single-stim","93","498708","0.0-93.0","sub-11_sess-02_2","","4500","0","","<div class = dd-stim><div class = amtbox style = ""color:white"">50€</div><br><br><div class = delbox style = ""color:white"">59 jours</div></div>","89,71","4000","","20","50","59","larger_later","",""
"591","89","poldrack-single-stim","94","503827","0.0-94.0","sub-11_sess-02_2","","5112","0","","<div class = dd-stim><div class = amtbox style = ""color:white"">85€</div><br><br><div class = delbox style = ""color:white"">129 jours</div></div>","89,71","4000","","20","85","129","larger_later","",""
"731","89","poldrack-single-stim","95","509967","0.0-95.0","sub-11_sess-02_2","","6132","0","","<div class = dd-stim><div class = amtbox style = ""color:white"">66€</div><br><br><div class = delbox style = ""color:white"">58 jours</div></div>","89,71","4000","","20","66","58","larger_later","",""
"718","89","poldrack-single-stim","96","514826","0.0-96.0","sub-11_sess-02_2","","4840","0","","<div class = dd-stim><div class = amtbox style = ""color:white"">49€</div><br><br><div class = delbox style = ""color:white"">172 jours</div></div>","89,71","4000","","20","49","172","larger_later","",""
"634","89","poldrack-single-stim","97","519407","0.0-97.0","sub-11_sess-02_2","","4568","0","","<div class = dd-stim><div class = amtbox style = ""color:white"">73€</div><br><br><div class = delbox style = ""color:white"">44 jours</div></div>","89,71","4000","","20","73","44","larger_later","",""
"786","89","poldrack-single-stim","98","524117","0.0-98.0","sub-11_sess-02_2","","4704","0","","<div class = dd-stim><div class = amtbox style = ""color:white"">58€</div><br><br><div class = delbox style = ""color:white"">73 jours</div></div>","89,71","4000","","20","58","73","larger_later","",""
"656","89","poldrack-single-stim","99","529997","0.0-99.0","sub-11_sess-02_2","","5860","0","","<div class = dd-stim><div class = amtbox style = ""color:white"">71€</div><br><br><div class = delbox style = ""color:white"">76 jours</div></div>","89,71","4000","","20","71","76","larger_later","",""
"617","89","poldrack-single-stim","100","534637","0.0-100.0","sub-11_sess-02_2","","4636","0","","<div class = dd-stim><div class = amtbox style = ""color:white"">67€</div><br><br><div class = delbox style = ""color:white"">74 jours</div></div>","89,71","4000","","20","67","74","larger_later","",""
"593","71","poldrack-single-stim","101","539957","0.0-101.0","sub-11_sess-02_2","","5316","0","","<div class = dd-stim><div class = amtbox style = ""color:white"">29€</div><br><br><div class = delbox style = ""color:white"">58 jours</div></div>","89,71","4000","","20","29","58","smaller_sooner","",""
"1224","89","poldrack-single-stim","102","544947","0.0-102.0","sub-11_sess-02_2","","4976","0","","<div class = dd-stim><div class = amtbox style = ""color:white"">39€</div><br><br><div class = delbox style = ""color:white"">104 jours</div></div>","89,71","4000","","20","39","104","larger_later","",""
"1293","71","poldrack-single-stim","103","549536","0.0-103.0","sub-11_sess-02_2","","4568","0","","<div class = dd-stim><div class = amtbox style = ""color:white"">33€</div><br><br><div class = delbox style = ""color:white"">103 jours</div></div>","89,71","4000","","20","33","103","smaller_sooner","",""
"1713","89","poldrack-single-stim","104","555068","0.0-104.0","sub-11_sess-02_2","","5520","0","","<div class = dd-stim><div class = amtbox style = ""color:white"">33€</div><br><br><div class = delbox style = ""color:white"">78 jours</div></div>","89,71","4000","","20","33","78","larger_later","",""
"721","89","poldrack-single-stim","105","560666","0.0-105.0","sub-11_sess-02_2","","5588","0","","<div class = dd-stim><div class = amtbox style = ""color:white"">74€</div><br><br><div class = delbox style = ""color:white"">52 jours</div></div>","89,71","4000","","20","74","52","larger_later","",""
"1112","71","poldrack-single-stim","106","566478","0.0-106.0","sub-11_sess-02_2","","5792","0","","<div class = dd-stim><div class = amtbox style = ""color:white"">28€</div><br><br><div class = delbox style = ""color:white"">132 jours</div></div>","89,71","4000","","20","28","132","smaller_sooner","",""
"557","71","poldrack-single-stim","107","571066","0.0-107.0","sub-11_sess-02_2","","4568","0","","<div class = dd-stim><div class = amtbox style = ""color:white"">28€</div><br><br><div class = delbox style = ""color:white"">59 jours</div></div>","89,71","4000","","20","28","59","smaller_sooner","",""
"1197","71","poldrack-single-stim","108","576197","0.0-108.0","sub-11_sess-02_2","","5112","0","","<div class = dd-stim><div class = amtbox style = ""color:white"">28€</div><br><br><div class = delbox style = ""color:white"">163 jours</div></div>","89,71","4000","","20","28","163","smaller_sooner","",""
"1522","89","poldrack-single-stim","109","580716","0.0-109.0","sub-11_sess-02_2","","4500","0","","<div class = dd-stim><div class = amtbox style = ""color:white"">32€</div><br><br><div class = delbox style = ""color:white"">74 jours</div></div>","89,71","4000","","20","32","74","larger_later","",""
"696","89","poldrack-single-stim","110","585577","0.0-110.0","sub-11_sess-02_2","","4840","0","","<div class = dd-stim><div class = amtbox style = ""color:white"">57€</div><br><br><div class = delbox style = ""color:white"">89 jours</div></div>","89,71","4000","","20","57","89","larger_later","",""
"541","89","poldrack-single-stim","111","590156","0.0-111.0","sub-11_sess-02_2","","4568","0","","<div class = dd-stim><div class = amtbox style = ""color:white"">70€</div><br><br><div class = delbox style = ""color:white"">108 jours</div></div>","89,71","4000","","20","70","108","larger_later","",""
"399","89","poldrack-single-stim","112","595546","0.0-112.0","sub-11_sess-02_2","","5384","0","","<div class = dd-stim><div class = amtbox style = ""color:white"">72€</div><br><br><div class = delbox style = ""color:white"">95 jours</div></div>","89,71","4000","","20","72","95","larger_later","",""
"1003","89","poldrack-single-stim","113","600607","0.0-113.0","sub-11_sess-02_2","","5044","0","","<div class = dd-stim><div class = amtbox style = ""color:white"">30€</div><br><br><div class = delbox style = ""color:white"">36 jours</div></div>","89,71","4000","","20","30","36","larger_later","",""
"715","89","poldrack-single-stim","114","605336","0.0-114.0","sub-11_sess-02_2","","4704","0","","<div class = dd-stim><div class = amtbox style = ""color:white"">41€</div><br><br><div class = delbox style = ""color:white"">129 jours</div></div>","89,71","4000","","20","41","129","larger_later","",""
"694","89","poldrack-single-stim","115","610257","0.0-115.0","sub-11_sess-02_2","","4908","0","","<div class = dd-stim><div class = amtbox style = ""color:white"">78€</div><br><br><div class = delbox style = ""color:white"">129 jours</div></div>","89,71","4000","","20","78","129","larger_later","",""
"632","89","poldrack-single-stim","116","615186","0.0-116.0","sub-11_sess-02_2","","4908","0","","<div class = dd-stim><div class = amtbox style = ""color:white"">71€</div><br><br><div class = delbox style = ""color:white"">88 jours</div></div>","89,71","4000","","20","71","88","larger_later","",""
"547","89","poldrack-single-stim","117","620047","0.0-117.0","sub-11_sess-02_2","","4840","0","","<div class = dd-stim><div class = amtbox style = ""color:white"">65€</div><br><br><div class = delbox style = ""color:white"">159 jours</div></div>","89,71","4000","","20","65","159","larger_later","",""
"727","71","poldrack-single-stim","118","625168","0.0-118.0","sub-11_sess-02_2","","5112","0","","<div class = dd-stim><div class = amtbox style = ""color:white"">24€</div><br><br><div class = delbox style = ""color:white"">125 jours</div></div>","89,71","4000","","20","24","125","smaller_sooner","",""
"791","89","poldrack-single-stim","119","630296","0.0-119.0","sub-11_sess-02_2","","5112","0","","<div class = dd-stim><div class = amtbox style = ""color:white"">58€</div><br><br><div class = delbox style = ""color:white"">36 jours</div></div>","89,71","4000","","20","58","36","larger_later","",""
"481","89","poldrack-single-stim","120","635018","0.0-120.0","sub-11_sess-02_2","","4704","0","","<div class = dd-stim><div class = amtbox style = ""color:white"">63€</div><br><br><div class = delbox style = ""color:white"">37 jours</div></div>","89,71","4000","","20","63","37","larger_later","",""
"387","89","poldrack-single-stim","121","639876","0.0-121.0","sub-11_sess-02_2","","4840","0","","<div class = dd-stim><div class = amtbox style = ""color:white"">75€</div><br><br><div class = delbox style = ""color:white"">41 jours</div></div>","89,71","4000","","20","75","41","larger_later","",""
"703","89","poldrack-single-stim","122","644727","0.0-122.0","sub-11_sess-02_2","","4840","0","","<div class = dd-stim><div class = amtbox style = ""color:white"">45€</div><br><br><div class = delbox style = ""color:white"">72 jours</div></div>","89,71","4000","","20","45","72","larger_later","",""
"771","71","poldrack-single-stim","123","651627","0.0-123.0","sub-11_sess-02_2","","6880","0","","<div class = dd-stim><div class = amtbox style = ""color:white"">25€</div><br><br><div class = delbox style = ""color:white"">74 jours</div></div>","89,71","4000","","20","25","74","smaller_sooner","",""
"699","89","poldrack-single-stim","124","656216","0.0-124.0","sub-11_sess-02_2","","4568","0","","<div class = dd-stim><div class = amtbox style = ""color:white"">65€</div><br><br><div class = delbox style = ""color:white"">137 jours</div></div>","89,71","4000","","20","65","137","larger_later","",""
"1313","89","poldrack-single-stim","125","660996","0.0-125.0","sub-11_sess-02_2","","4772","0","","<div class = dd-stim><div class = amtbox style = ""color:white"">49€</div><br><br><div class = delbox style = ""color:white"">140 jours</div></div>","89,71","4000","","20","49","140","larger_later","",""
"736","89","poldrack-single-stim","126","668026","0.0-126.0","sub-11_sess-02_2","","7016","0","","<div class = dd-stim><div class = amtbox style = ""color:white"">67€</div><br><br><div class = delbox style = ""color:white"">103 jours</div></div>","89,71","4000","","20","67","103","larger_later","",""
"529","89","poldrack-single-stim","127","672748","0.0-127.0","sub-11_sess-02_2","","4704","0","","<div class = dd-stim><div class = amtbox style = ""color:white"">69€</div><br><br><div class = delbox style = ""color:white"">172 jours</div></div>","89,71","4000","","20","69","172","larger_later","",""
"762","89","poldrack-single-stim","128","677947","0.0-128.0","sub-11_sess-02_2","","5180","0","","<div class = dd-stim><div class = amtbox style = ""color:white"">66€</div><br><br><div class = delbox style = ""color:white"">71 jours</div></div>","89,71","4000","","20","66","71","larger_later","",""
"841","89","poldrack-single-stim","129","682996","0.0-129.0","sub-11_sess-02_2","","5044","0","","<div class = dd-stim><div class = amtbox style = ""color:white"">71€</div><br><br><div class = delbox style = ""color:white"">176 jours</div></div>","89,71","4000","","20","71","176","larger_later","",""
"13240","32","poldrack-single-stim","130","696240","0.0-130.0","sub-11_sess-02_2","","13240","0","end","<div class = centerbox><div class = center-text><i>Fin</i></div></div>","32","13240","","","","","","discount_fixed","[object Object]"
"2376","13","text","131","698617","0.0-131.0","sub-11_sess-02_2","","","","","","","","","","","","","",""
