"rt","key_press","trial_type","trial_index","time_elapsed","internal_node_id","subject","text","block_duration","timing_post_trial","trial_id","responses","stimulus","possible_responses","stim_duration","exp_stage","cue","stim_color","stim_number","task","task_switch","cue_switch","trial_num","correct","correct_response","feedback_duration","exp_id"
"1960","13","text","0","1962","0.0-0.0","sub-11_2","","","","","","","","","","","","","","","","","","","",""
"2375","89","poldrack-text","1","5340","0.0-1.0","sub-11_2","<div class = centerbox><div style = 'font-size: 50px' class = center-text>Veuillez appuyer avec votre index</p></div>","2375","500","fmri_response_test","","","","","","","","","","","","","","","",""
"397","71","poldrack-text","2","6242","0.0-2.0","sub-11_2","<div class = centerbox><div style = 'font-size: 50px' class = center-text>Veuillez appuyer avec votre majeur</p></div>","397","500","fmri_response_test","","","","","","","","","","","","","","","",""
"6600","","survey-text","3","13360","0.0-3.0","sub-11_2","","","","task_setup","{""Q0"":""2"",""Q1"":""2""}","","","","","","","","","","","","","","",""
"5380","32","poldrack-single-stim","4","19762","0.0-4.0","sub-11_2","","5380","0","instructions","","<div class = centerbox><div class = center-text style=""font-size:40px""><strong>Couleur</strong> or <strong>Orange-Bleu</strong>: Majeur si orange et Index si bleu.<br><br><strong>Amplitude</strong> ou <strong>Haut-Bas</strong>: Majeur si >5 et Index si <5.</div></div>","32","5380","","","","","","","","","","","",""
"","","call-function","5","19764","0.0-5.0-0.0","sub-11_2","","","","set_stims","","","","","","","","","","","","","","","",""
"-1","-1","poldrack-single-stim","6","20276","0.0-5.0-1.0","sub-11_2","","500","0","fixation","","<div class = upperbox><div class = fixation>+</div></div><div class = lowerbox><div class = fixation>+</div></div>","none","500","practice","","","","","","","","","","",""
"-1","-1","poldrack-single-stim","7","21187","0.0-5.0-2.0","sub-11_2","","900","0","cue","","<div class = upperbox><div class = ""center-text"" >Couleur</div></div><div class = lowerbox><div class = fixation>+</div></div>","none","900","practice","Couleur","orange","4","color","stay","stay","0","","","",""
"1015","71","poldrack-categorize","8","23706","0.0-5.0-3.0","sub-11_2","","2000","0","stim","","<div class = upperbox><div class = ""center-text"" >Couleur</div></div><div class = lowerbox><div class = ""stim-text"" style=color:orange;>4</div>","89,71","1000","practice","Couleur","orange","4","color","stay","stay","0","true","71","500",""
"-1","-1","poldrack-single-stim","9","24213","0.0-5.0-4.0","sub-11_2","","500","0","gap",""," ","none","500","practice","","","","","","","","","","",""
"","","call-function","10","24215","0.0-5.0-5.0","sub-11_2","","","","set_stims","","","","","","","","","","","","","","","",""
"-1","-1","poldrack-single-stim","11","24722","0.0-5.0-6.0","sub-11_2","","500","0","fixation","","<div class = upperbox><div class = fixation>+</div></div><div class = lowerbox><div class = fixation>+</div></div>","none","500","practice","","","","","","","","","","",""
"-1","-1","poldrack-single-stim","12","25629","0.0-5.0-7.0","sub-11_2","","900","0","cue","","<div class = upperbox><div class = ""center-text"" >Amplitude</div></div><div class = lowerbox><div class = fixation>+</div></div>","none","900","practice","Amplitude","#1F45FC","7","magnitude","switch","stay","1","","","",""
"539","71","poldrack-categorize","13","28153","0.0-5.0-8.0","sub-11_2","","2000","0","stim","","<div class = upperbox><div class = ""center-text"" >Amplitude</div></div><div class = lowerbox><div class = ""stim-text"" style=color:#1F45FC;>7</div>","89,71","1000","practice","Amplitude","#1F45FC","7","magnitude","switch","stay","1","true","71","500",""
"-1","-1","poldrack-single-stim","14","28662","0.0-5.0-9.0","sub-11_2","","500","0","gap",""," ","none","500","practice","","","","","","","","","","",""
"","","call-function","15","28664","0.0-5.0-10.0","sub-11_2","","","","set_stims","","","","","","","","","","","","","","","",""
"-1","-1","poldrack-single-stim","16","29174","0.0-5.0-11.0","sub-11_2","","500","0","fixation","","<div class = upperbox><div class = fixation>+</div></div><div class = lowerbox><div class = fixation>+</div></div>","none","500","practice","","","","","","","","","","",""
"-1","-1","poldrack-single-stim","17","29281","0.0-5.0-12.0","sub-11_2","","100","0","cue","","<div class = upperbox><div class = ""center-text"" >Couleur</div></div><div class = lowerbox><div class = fixation>+</div></div>","none","100","practice","Couleur","orange","7","color","switch","switch","2","","","",""
"857","71","poldrack-categorize","18","31803","0.0-5.0-13.0","sub-11_2","","2000","0","stim","","<div class = upperbox><div class = ""center-text"" >Couleur</div></div><div class = lowerbox><div class = ""stim-text"" style=color:orange;>7</div>","89,71","1000","practice","Couleur","orange","7","color","switch","switch","2","true","71","500",""
"-1","-1","poldrack-single-stim","19","32314","0.0-5.0-14.0","sub-11_2","","500","0","gap",""," ","none","500","practice","","","","","","","","","","",""
"","","call-function","20","32314","0.0-5.0-15.0","sub-11_2","","","","set_stims","","","","","","","","","","","","","","","",""
"-1","-1","poldrack-single-stim","21","32821","0.0-5.0-16.0","sub-11_2","","500","0","fixation","","<div class = upperbox><div class = fixation>+</div></div><div class = lowerbox><div class = fixation>+</div></div>","none","500","practice","","","","","","","","","","",""
"-1","-1","poldrack-single-stim","22","33725","0.0-5.0-17.0","sub-11_2","","900","0","cue","","<div class = upperbox><div class = ""center-text"" >Haut-Bas</div></div><div class = lowerbox><div class = fixation>+</div></div>","none","900","practice","Haut-Bas","#1F45FC","6","magnitude","switch","switch","3","","","",""
"913","71","poldrack-categorize","23","36252","0.0-5.0-18.0","sub-11_2","","2000","0","stim","","<div class = upperbox><div class = ""center-text"" >Haut-Bas</div></div><div class = lowerbox><div class = ""stim-text"" style=color:#1F45FC;>6</div>","89,71","1000","practice","Haut-Bas","#1F45FC","6","magnitude","switch","switch","3","true","71","500",""
"-1","-1","poldrack-single-stim","24","36759","0.0-5.0-19.0","sub-11_2","","500","0","gap",""," ","none","500","practice","","","","","","","","","","",""
"","","call-function","25","36759","0.0-5.0-20.0","sub-11_2","","","","set_stims","","","","","","","","","","","","","","","",""
"-1","-1","poldrack-single-stim","26","37269","0.0-5.0-21.0","sub-11_2","","500","0","fixation","","<div class = upperbox><div class = fixation>+</div></div><div class = lowerbox><div class = fixation>+</div></div>","none","500","practice","","","","","","","","","","",""
"-1","-1","poldrack-single-stim","27","38187","0.0-5.0-22.0","sub-11_2","","900","0","cue","","<div class = upperbox><div class = ""center-text"" >Orange-Bleu</div></div><div class = lowerbox><div class = fixation>+</div></div>","none","900","practice","Orange-Bleu","orange","4","color","switch","stay","4","","","",""
"494","71","poldrack-categorize","28","40701","0.0-5.0-23.0","sub-11_2","","2000","0","stim","","<div class = upperbox><div class = ""center-text"" >Orange-Bleu</div></div><div class = lowerbox><div class = ""stim-text"" style=color:orange;>4</div>","89,71","1000","practice","Orange-Bleu","orange","4","color","switch","stay","4","true","71","500",""
"-1","-1","poldrack-single-stim","29","41209","0.0-5.0-24.0","sub-11_2","","500","0","gap",""," ","none","500","practice","","","","","","","","","","",""
"","","call-function","30","41210","0.0-5.0-25.0","sub-11_2","","","","set_stims","","","","","","","","","","","","","","","",""
"-1","-1","poldrack-single-stim","31","41717","0.0-5.0-26.0","sub-11_2","","500","0","fixation","","<div class = upperbox><div class = fixation>+</div></div><div class = lowerbox><div class = fixation>+</div></div>","none","500","practice","","","","","","","","","","",""
"-1","-1","poldrack-single-stim","32","41823","0.0-5.0-27.0","sub-11_2","","100","0","cue","","<div class = upperbox><div class = ""center-text"" >Orange-Bleu</div></div><div class = lowerbox><div class = fixation>+</div></div>","none","100","practice","Orange-Bleu","#1F45FC","2","color","stay","stay","5","","","",""
"582","89","poldrack-categorize","33","44348","0.0-5.0-28.0","sub-11_2","","2000","0","stim","","<div class = upperbox><div class = ""center-text"" >Orange-Bleu</div></div><div class = lowerbox><div class = ""stim-text"" style=color:#1F45FC;>2</div>","89,71","1000","practice","Orange-Bleu","#1F45FC","2","color","stay","stay","5","true","89","500",""
"-1","-1","poldrack-single-stim","34","44858","0.0-5.0-29.0","sub-11_2","","500","0","gap",""," ","none","500","practice","","","","","","","","","","",""
"","","call-function","35","44858","0.0-5.0-30.0","sub-11_2","","","","set_stims","","","","","","","","","","","","","","","",""
"-1","-1","poldrack-single-stim","36","45366","0.0-5.0-31.0","sub-11_2","","500","0","fixation","","<div class = upperbox><div class = fixation>+</div></div><div class = lowerbox><div class = fixation>+</div></div>","none","500","practice","","","","","","","","","","",""
"-1","-1","poldrack-single-stim","37","46276","0.0-5.0-32.0","sub-11_2","","900","0","cue","","<div class = upperbox><div class = ""center-text"" >Amplitude</div></div><div class = lowerbox><div class = fixation>+</div></div>","none","900","practice","Amplitude","#1F45FC","6","magnitude","switch","switch","6","","","",""
"642","71","poldrack-categorize","38","48803","0.0-5.0-33.0","sub-11_2","","2000","0","stim","","<div class = upperbox><div class = ""center-text"" >Amplitude</div></div><div class = lowerbox><div class = ""stim-text"" style=color:#1F45FC;>6</div>","89,71","1000","practice","Amplitude","#1F45FC","6","magnitude","switch","switch","6","true","71","500",""
"-1","-1","poldrack-single-stim","39","49312","0.0-5.0-34.0","sub-11_2","","500","0","gap",""," ","none","500","practice","","","","","","","","","","",""
"","","call-function","40","49313","0.0-5.0-35.0","sub-11_2","","","","set_stims","","","","","","","","","","","","","","","",""
"-1","-1","poldrack-single-stim","41","49820","0.0-5.0-36.0","sub-11_2","","500","0","fixation","","<div class = upperbox><div class = fixation>+</div></div><div class = lowerbox><div class = fixation>+</div></div>","none","500","practice","","","","","","","","","","",""
"-1","-1","poldrack-single-stim","42","49928","0.0-5.0-37.0","sub-11_2","","100","0","cue","","<div class = upperbox><div class = ""center-text"" >Couleur</div></div><div class = lowerbox><div class = fixation>+</div></div>","none","100","practice","Couleur","orange","6","color","switch","stay","7","","","",""
"661","71","poldrack-categorize","43","52458","0.0-5.0-38.0","sub-11_2","","2000","0","stim","","<div class = upperbox><div class = ""center-text"" >Couleur</div></div><div class = lowerbox><div class = ""stim-text"" style=color:orange;>6</div>","89,71","1000","practice","Couleur","orange","6","color","switch","stay","7","true","71","500",""
"-1","-1","poldrack-single-stim","44","52964","0.0-5.0-39.0","sub-11_2","","500","0","gap",""," ","none","500","practice","","","","","","","","","","",""
"","","call-function","45","52965","0.0-5.0-40.0","sub-11_2","","","","set_stims","","","","","","","","","","","","","","","",""
"-1","-1","poldrack-single-stim","46","53474","0.0-5.0-41.0","sub-11_2","","500","0","fixation","","<div class = upperbox><div class = fixation>+</div></div><div class = lowerbox><div class = fixation>+</div></div>","none","500","practice","","","","","","","","","","",""
"-1","-1","poldrack-single-stim","47","53582","0.0-5.0-42.0","sub-11_2","","100","0","cue","","<div class = upperbox><div class = ""center-text"" >Couleur</div></div><div class = lowerbox><div class = fixation>+</div></div>","none","100","practice","Couleur","orange","8","color","stay","stay","8","","","",""
"829","71","poldrack-categorize","48","56097","0.0-5.0-43.0","sub-11_2","","2000","0","stim","","<div class = upperbox><div class = ""center-text"" >Couleur</div></div><div class = lowerbox><div class = ""stim-text"" style=color:orange;>8</div>","89,71","1000","practice","Couleur","orange","8","color","stay","stay","8","true","71","500",""
"-1","-1","poldrack-single-stim","49","56603","0.0-5.0-44.0","sub-11_2","","500","0","gap",""," ","none","500","practice","","","","","","","","","","",""
"","","call-function","50","56603","0.0-5.0-45.0","sub-11_2","","","","set_stims","","","","","","","","","","","","","","","",""
"-1","-1","poldrack-single-stim","51","57111","0.0-5.0-46.0","sub-11_2","","500","0","fixation","","<div class = upperbox><div class = fixation>+</div></div><div class = lowerbox><div class = fixation>+</div></div>","none","500","practice","","","","","","","","","","",""
"-1","-1","poldrack-single-stim","52","58020","0.0-5.0-47.0","sub-11_2","","900","0","cue","","<div class = upperbox><div class = ""center-text"" >Couleur</div></div><div class = lowerbox><div class = fixation>+</div></div>","none","900","practice","Couleur","orange","6","color","stay","stay","9","","","",""
"470","71","poldrack-categorize","53","60544","0.0-5.0-48.0","sub-11_2","","2000","0","stim","","<div class = upperbox><div class = ""center-text"" >Couleur</div></div><div class = lowerbox><div class = ""stim-text"" style=color:orange;>6</div>","89,71","1000","practice","Couleur","orange","6","color","stay","stay","9","true","71","500",""
"-1","-1","poldrack-single-stim","54","61052","0.0-5.0-49.0","sub-11_2","","500","0","gap",""," ","none","500","practice","","","","","","","","","","",""
"","","call-function","55","61053","0.0-5.0-50.0","sub-11_2","","","","set_stims","","","","","","","","","","","","","","","",""
"-1","-1","poldrack-single-stim","56","61560","0.0-5.0-51.0","sub-11_2","","500","0","fixation","","<div class = upperbox><div class = fixation>+</div></div><div class = lowerbox><div class = fixation>+</div></div>","none","500","practice","","","","","","","","","","",""
"-1","-1","poldrack-single-stim","57","61668","0.0-5.0-52.0","sub-11_2","","100","0","cue","","<div class = upperbox><div class = ""center-text"" >Amplitude</div></div><div class = lowerbox><div class = fixation>+</div></div>","none","100","practice","Amplitude","#1F45FC","7","magnitude","switch","switch","10","","","",""
"1084","89","poldrack-categorize","58","64192","0.0-5.0-53.0","sub-11_2","","2000","0","stim","","<div class = upperbox><div class = ""center-text"" >Amplitude</div></div><div class = lowerbox><div class = ""stim-text"" style=color:#1F45FC;>7</div>","89,71","1000","practice","Amplitude","#1F45FC","7","magnitude","switch","switch","10","false","71","500",""
"-1","-1","poldrack-single-stim","59","64699","0.0-5.0-54.0","sub-11_2","","500","0","gap",""," ","none","500","practice","","","","","","","","","","",""
"","","call-function","60","64700","0.0-5.0-55.0","sub-11_2","","","","set_stims","","","","","","","","","","","","","","","",""
"-1","-1","poldrack-single-stim","61","65206","0.0-5.0-56.0","sub-11_2","","500","0","fixation","","<div class = upperbox><div class = fixation>+</div></div><div class = lowerbox><div class = fixation>+</div></div>","none","500","practice","","","","","","","","","","",""
"-1","-1","poldrack-single-stim","62","65323","0.0-5.0-57.0","sub-11_2","","100","0","cue","","<div class = upperbox><div class = ""center-text"" >Orange-Bleu</div></div><div class = lowerbox><div class = fixation>+</div></div>","none","100","practice","Orange-Bleu","#1F45FC","1","color","switch","stay","11","","","",""
"1062","89","poldrack-categorize","63","67848","0.0-5.0-58.0","sub-11_2","","2000","0","stim","","<div class = upperbox><div class = ""center-text"" >Orange-Bleu</div></div><div class = lowerbox><div class = ""stim-text"" style=color:#1F45FC;>1</div>","89,71","1000","practice","Orange-Bleu","#1F45FC","1","color","switch","stay","11","true","89","500",""
"-1","-1","poldrack-single-stim","64","68420","0.0-5.0-59.0","sub-11_2","","500","0","gap",""," ","none","500","practice","","","","","","","","","","",""
"","","call-function","65","68421","0.0-5.0-60.0","sub-11_2","","","","set_stims","","","","","","","","","","","","","","","",""
"-1","-1","poldrack-single-stim","66","68929","0.0-5.0-61.0","sub-11_2","","500","0","fixation","","<div class = upperbox><div class = fixation>+</div></div><div class = lowerbox><div class = fixation>+</div></div>","none","500","practice","","","","","","","","","","",""
"-1","-1","poldrack-single-stim","67","69836","0.0-5.0-62.0","sub-11_2","","900","0","cue","","<div class = upperbox><div class = ""center-text"" >Couleur</div></div><div class = lowerbox><div class = fixation>+</div></div>","none","900","practice","Couleur","#1F45FC","1","color","stay","switch","12","","","",""
"381","89","poldrack-categorize","68","72351","0.0-5.0-63.0","sub-11_2","","2000","0","stim","","<div class = upperbox><div class = ""center-text"" >Couleur</div></div><div class = lowerbox><div class = ""stim-text"" style=color:#1F45FC;>1</div>","89,71","1000","practice","Couleur","#1F45FC","1","color","stay","switch","12","true","89","500",""
"-1","-1","poldrack-single-stim","69","72859","0.0-5.0-64.0","sub-11_2","","500","0","gap",""," ","none","500","practice","","","","","","","","","","",""
"","","call-function","70","72859","0.0-5.0-65.0","sub-11_2","","","","set_stims","","","","","","","","","","","","","","","",""
"-1","-1","poldrack-single-stim","71","73365","0.0-5.0-66.0","sub-11_2","","500","0","fixation","","<div class = upperbox><div class = fixation>+</div></div><div class = lowerbox><div class = fixation>+</div></div>","none","500","practice","","","","","","","","","","",""
"-1","-1","poldrack-single-stim","72","74274","0.0-5.0-67.0","sub-11_2","","900","0","cue","","<div class = upperbox><div class = ""center-text"" >Orange-Bleu</div></div><div class = lowerbox><div class = fixation>+</div></div>","none","900","practice","Orange-Bleu","#1F45FC","7","color","stay","switch","13","","","",""
"423","89","poldrack-categorize","73","76789","0.0-5.0-68.0","sub-11_2","","2000","0","stim","","<div class = upperbox><div class = ""center-text"" >Orange-Bleu</div></div><div class = lowerbox><div class = ""stim-text"" style=color:#1F45FC;>7</div>","89,71","1000","practice","Orange-Bleu","#1F45FC","7","color","stay","switch","13","true","89","500",""
"-1","-1","poldrack-single-stim","74","77297","0.0-5.0-69.0","sub-11_2","","500","0","gap",""," ","none","500","practice","","","","","","","","","","",""
"","","call-function","75","77298","0.0-5.0-70.0","sub-11_2","","","","set_stims","","","","","","","","","","","","","","","",""
"-1","-1","poldrack-single-stim","76","77805","0.0-5.0-71.0","sub-11_2","","500","0","fixation","","<div class = upperbox><div class = fixation>+</div></div><div class = lowerbox><div class = fixation>+</div></div>","none","500","practice","","","","","","","","","","",""
"-1","-1","poldrack-single-stim","77","77914","0.0-5.0-72.0","sub-11_2","","100","0","cue","","<div class = upperbox><div class = ""center-text"" >Couleur</div></div><div class = lowerbox><div class = fixation>+</div></div>","none","100","practice","Couleur","orange","4","color","stay","switch","14","","","",""
"712","71","poldrack-categorize","78","80426","0.0-5.0-73.0","sub-11_2","","2000","0","stim","","<div class = upperbox><div class = ""center-text"" >Couleur</div></div><div class = lowerbox><div class = ""stim-text"" style=color:orange;>4</div>","89,71","1000","practice","Couleur","orange","4","color","stay","switch","14","true","71","500",""
"-1","-1","poldrack-single-stim","79","80934","0.0-5.0-74.0","sub-11_2","","500","0","gap",""," ","none","500","practice","","","","","","","","","","",""
"","","call-function","80","80935","0.0-5.0-75.0","sub-11_2","","","","set_stims","","","","","","","","","","","","","","","",""
"-1","-1","poldrack-single-stim","81","81440","0.0-5.0-76.0","sub-11_2","","500","0","fixation","","<div class = upperbox><div class = fixation>+</div></div><div class = lowerbox><div class = fixation>+</div></div>","none","500","practice","","","","","","","","","","",""
"-1","-1","poldrack-single-stim","82","81548","0.0-5.0-77.0","sub-11_2","","100","0","cue","","<div class = upperbox><div class = ""center-text"" >Orange-Bleu</div></div><div class = lowerbox><div class = fixation>+</div></div>","none","100","practice","Orange-Bleu","orange","4","color","stay","switch","15","","","",""
"722","71","poldrack-categorize","83","84063","0.0-5.0-78.0","sub-11_2","","2000","0","stim","","<div class = upperbox><div class = ""center-text"" >Orange-Bleu</div></div><div class = lowerbox><div class = ""stim-text"" style=color:orange;>4</div>","89,71","1000","practice","Orange-Bleu","orange","4","color","stay","switch","15","true","71","500",""
"-1","-1","poldrack-single-stim","84","84569","0.0-5.0-79.0","sub-11_2","","500","0","gap",""," ","none","500","practice","","","","","","","","","","",""
"4082","32","poldrack-text","85","88657","0.0-6.0","sub-11_2","<div class = centerbox><div  class = center-text>Scanner Setup</div></div>","4082","0","fmri_scanner_wait","","","","","","","","","","","","","","","",""
"53526","84","poldrack-text","86","142185","0.0-7.0","sub-11_2","<div class = centerbox><div style='color:red'; class = center-text>+</div></div>","53526","0","fmri_trigger_wait","","","","","","","","","","","","","","","",""
"-1","-1","poldrack-single-stim","87","143194","0.0-8.0","sub-11_2","","1000","0","fmri_buffer","","","none","1000","","","","","","","","","","","",""
"-1","-1","poldrack-single-stim","88","144710","0.0-9.0","sub-11_2","","1500","500","test_start_block","","<div class = centerbox><div class = center-text>Preparez-vous!</p></div>","none","1500","","","","","","","","","","","",""
"-1","-1","poldrack-single-stim","89","145727","0.0-10.0","sub-11_2","","500","0","fixation","","<div class = upperbox><div class = fixation>+</div></div><div class = lowerbox><div class = fixation>+</div></div>","none","500","test","","","","","","","","","","",""
"","","call-function","90","145727","0.0-11.0","sub-11_2","","","","set_stims","","","","","","","","","","","","","","","",""
"-1","-1","poldrack-single-stim","91","145835","0.0-12.0","sub-11_2","","100","0","cue","","<div class = upperbox><div class = ""center-text"" >Orange-Bleu</div></div><div class = lowerbox><div class = fixation>+</div></div>","none","100","test","Orange-Bleu","orange","4","color","stay","stay","0","","","",""
"795","71","poldrack-single-stim","92","149067","0.0-13.0","sub-11_2","","3224","0","stim","","<div class = upperbox><div class = ""center-text"" >Orange-Bleu</div></div><div class = lowerbox><div class = ""stim-text"" style=color:orange;>4</div>","89,71","1000","test","Orange-Bleu","orange","4","color","stay","stay","0","true","71","",""
"","","call-function","93","149069","0.0-14.0","sub-11_2","","","","set_stims","","","","","","","","","","","","","","","",""
"-1","-1","poldrack-single-stim","94","149174","0.0-15.0","sub-11_2","","100","0","cue","","<div class = upperbox><div class = ""center-text"" >Haut-Bas</div></div><div class = lowerbox><div class = fixation>+</div></div>","none","100","test","Haut-Bas","#1F45FC","7","magnitude","switch","stay","1","","","",""
"930","71","poldrack-single-stim","95","151593","0.0-16.0","sub-11_2","","2408","0","stim","","<div class = upperbox><div class = ""center-text"" >Haut-Bas</div></div><div class = lowerbox><div class = ""stim-text"" style=color:#1F45FC;>7</div>","89,71","1000","test","Haut-Bas","#1F45FC","7","magnitude","switch","stay","1","true","71","",""
"","","call-function","96","151594","0.0-17.0","sub-11_2","","","","set_stims","","","","","","","","","","","","","","","",""
"-1","-1","poldrack-single-stim","97","152501","0.0-18.0","sub-11_2","","900","0","cue","","<div class = upperbox><div class = ""center-text"" >Orange-Bleu</div></div><div class = lowerbox><div class = fixation>+</div></div>","none","900","test","Orange-Bleu","orange","7","color","switch","stay","2","","","",""
"575","71","poldrack-single-stim","98","155322","0.0-19.0","sub-11_2","","2816","0","stim","","<div class = upperbox><div class = ""center-text"" >Orange-Bleu</div></div><div class = lowerbox><div class = ""stim-text"" style=color:orange;>7</div>","89,71","1000","test","Orange-Bleu","orange","7","color","switch","stay","2","true","71","",""
"","","call-function","99","155323","0.0-20.0","sub-11_2","","","","set_stims","","","","","","","","","","","","","","","",""
"-1","-1","poldrack-single-stim","100","155431","0.0-21.0","sub-11_2","","100","0","cue","","<div class = upperbox><div class = ""center-text"" >Haut-Bas</div></div><div class = lowerbox><div class = fixation>+</div></div>","none","100","test","Haut-Bas","#1F45FC","6","magnitude","switch","stay","3","","","",""
"734","71","poldrack-single-stim","101","157848","0.0-22.0","sub-11_2","","2408","0","stim","","<div class = upperbox><div class = ""center-text"" >Haut-Bas</div></div><div class = lowerbox><div class = ""stim-text"" style=color:#1F45FC;>6</div>","89,71","1000","test","Haut-Bas","#1F45FC","6","magnitude","switch","stay","3","true","71","",""
"","","call-function","102","157850","0.0-23.0","sub-11_2","","","","set_stims","","","","","","","","","","","","","","","",""
"-1","-1","poldrack-single-stim","103","157956","0.0-24.0","sub-11_2","","100","0","cue","","<div class = upperbox><div class = ""center-text"" >Couleur</div></div><div class = lowerbox><div class = fixation>+</div></div>","none","100","test","Couleur","orange","4","color","switch","switch","4","","","",""
"753","71","poldrack-single-stim","104","160108","0.0-25.0","sub-11_2","","2136","0","stim","","<div class = upperbox><div class = ""center-text"" >Couleur</div></div><div class = lowerbox><div class = ""stim-text"" style=color:orange;>4</div>","89,71","1000","test","Couleur","orange","4","color","switch","switch","4","true","71","",""
"","","call-function","105","160109","0.0-26.0","sub-11_2","","","","set_stims","","","","","","","","","","","","","","","",""
"-1","-1","poldrack-single-stim","106","160231","0.0-27.0","sub-11_2","","100","0","cue","","<div class = upperbox><div class = ""center-text"" >Couleur</div></div><div class = lowerbox><div class = fixation>+</div></div>","none","100","test","Couleur","#1F45FC","2","color","stay","stay","5","","","",""
"820","89","poldrack-single-stim","107","162372","0.0-28.0","sub-11_2","","2136","0","stim","","<div class = upperbox><div class = ""center-text"" >Couleur</div></div><div class = lowerbox><div class = ""stim-text"" style=color:#1F45FC;>2</div>","89,71","1000","test","Couleur","#1F45FC","2","color","stay","stay","5","true","89","",""
"","","call-function","108","162373","0.0-29.0","sub-11_2","","","","set_stims","","","","","","","","","","","","","","","",""
"-1","-1","poldrack-single-stim","109","162480","0.0-30.0","sub-11_2","","100","0","cue","","<div class = upperbox><div class = ""center-text"" >Orange-Bleu</div></div><div class = lowerbox><div class = fixation>+</div></div>","none","100","test","Orange-Bleu","#1F45FC","6","color","stay","switch","6","","","",""
"1163","89","poldrack-single-stim","110","164496","0.0-31.0","sub-11_2","","2000","0","stim","","<div class = upperbox><div class = ""center-text"" >Orange-Bleu</div></div><div class = lowerbox><div class = ""stim-text"" style=color:#1F45FC;>6</div>","89,71","1000","test","Orange-Bleu","#1F45FC","6","color","stay","switch","6","true","89","",""
"","","call-function","111","164497","0.0-32.0","sub-11_2","","","","set_stims","","","","","","","","","","","","","","","",""
"-1","-1","poldrack-single-stim","112","165407","0.0-33.0","sub-11_2","","900","0","cue","","<div class = upperbox><div class = ""center-text"" >Couleur</div></div><div class = lowerbox><div class = fixation>+</div></div>","none","900","test","Couleur","orange","6","color","stay","switch","7","","","",""
"337","71","poldrack-single-stim","113","167417","0.0-34.0","sub-11_2","","2000","0","stim","","<div class = upperbox><div class = ""center-text"" >Couleur</div></div><div class = lowerbox><div class = ""stim-text"" style=color:orange;>6</div>","89,71","1000","test","Couleur","orange","6","color","stay","switch","7","true","71","",""
"","","call-function","114","167417","0.0-35.0","sub-11_2","","","","set_stims","","","","","","","","","","","","","","","",""
"-1","-1","poldrack-single-stim","115","168327","0.0-36.0","sub-11_2","","900","0","cue","","<div class = upperbox><div class = ""center-text"" >Haut-Bas</div></div><div class = lowerbox><div class = fixation>+</div></div>","none","900","test","Haut-Bas","orange","8","magnitude","switch","stay","8","","","",""
"480","71","poldrack-single-stim","116","170617","0.0-37.0","sub-11_2","","2272","0","stim","","<div class = upperbox><div class = ""center-text"" >Haut-Bas</div></div><div class = lowerbox><div class = ""stim-text"" style=color:orange;>8</div>","89,71","1000","test","Haut-Bas","orange","8","magnitude","switch","stay","8","true","71","",""
"","","call-function","117","170617","0.0-38.0","sub-11_2","","","","set_stims","","","","","","","","","","","","","","","",""
"-1","-1","poldrack-single-stim","118","171525","0.0-39.0","sub-11_2","","900","0","cue","","<div class = upperbox><div class = ""center-text"" >Couleur</div></div><div class = lowerbox><div class = fixation>+</div></div>","none","900","test","Couleur","orange","6","color","switch","switch","9","","","",""
"439","71","poldrack-single-stim","119","173943","0.0-40.0","sub-11_2","","2408","0","stim","","<div class = upperbox><div class = ""center-text"" >Couleur</div></div><div class = lowerbox><div class = ""stim-text"" style=color:orange;>6</div>","89,71","1000","test","Couleur","orange","6","color","switch","switch","9","true","71","",""
"","","call-function","120","173944","0.0-41.0","sub-11_2","","","","set_stims","","","","","","","","","","","","","","","",""
"-1","-1","poldrack-single-stim","121","174052","0.0-42.0","sub-11_2","","100","0","cue","","<div class = upperbox><div class = ""center-text"" >Haut-Bas</div></div><div class = lowerbox><div class = fixation>+</div></div>","none","100","test","Haut-Bas","#1F45FC","7","magnitude","switch","stay","10","","","",""
"780","71","poldrack-single-stim","122","176064","0.0-43.0","sub-11_2","","2000","0","stim","","<div class = upperbox><div class = ""center-text"" >Haut-Bas</div></div><div class = lowerbox><div class = ""stim-text"" style=color:#1F45FC;>7</div>","89,71","1000","test","Haut-Bas","#1F45FC","7","magnitude","switch","stay","10","true","71","",""
"","","call-function","123","176064","0.0-44.0","sub-11_2","","","","set_stims","","","","","","","","","","","","","","","",""
"-1","-1","poldrack-single-stim","124","176973","0.0-45.0","sub-11_2","","900","0","cue","","<div class = upperbox><div class = ""center-text"" >Amplitude</div></div><div class = lowerbox><div class = fixation>+</div></div>","none","900","test","Amplitude","#1F45FC","1","magnitude","stay","switch","11","","","",""
"898","89","poldrack-single-stim","125","179126","0.0-46.0","sub-11_2","","2136","0","stim","","<div class = upperbox><div class = ""center-text"" >Amplitude</div></div><div class = lowerbox><div class = ""stim-text"" style=color:#1F45FC;>1</div>","89,71","1000","test","Amplitude","#1F45FC","1","magnitude","stay","switch","11","true","89","",""
"","","call-function","126","179128","0.0-47.0","sub-11_2","","","","set_stims","","","","","","","","","","","","","","","",""
"-1","-1","poldrack-single-stim","127","179236","0.0-48.0","sub-11_2","","100","0","cue","","<div class = upperbox><div class = ""center-text"" >Couleur</div></div><div class = lowerbox><div class = fixation>+</div></div>","none","100","test","Couleur","#1F45FC","1","color","switch","switch","12","","","",""
"781","89","poldrack-single-stim","128","181250","0.0-49.0","sub-11_2","","2000","0","stim","","<div class = upperbox><div class = ""center-text"" >Couleur</div></div><div class = lowerbox><div class = ""stim-text"" style=color:#1F45FC;>1</div>","89,71","1000","test","Couleur","#1F45FC","1","color","switch","switch","12","true","89","",""
"","","call-function","129","181251","0.0-50.0","sub-11_2","","","","set_stims","","","","","","","","","","","","","","","",""
"-1","-1","poldrack-single-stim","130","181357","0.0-51.0","sub-11_2","","100","0","cue","","<div class = upperbox><div class = ""center-text"" >Haut-Bas</div></div><div class = lowerbox><div class = fixation>+</div></div>","none","100","test","Haut-Bas","#1F45FC","7","magnitude","switch","stay","13","","","",""
"689","71","poldrack-single-stim","131","183779","0.0-52.0","sub-11_2","","2408","0","stim","","<div class = upperbox><div class = ""center-text"" >Haut-Bas</div></div><div class = lowerbox><div class = ""stim-text"" style=color:#1F45FC;>7</div>","89,71","1000","test","Haut-Bas","#1F45FC","7","magnitude","switch","stay","13","true","71","",""
"","","call-function","132","183780","0.0-53.0","sub-11_2","","","","set_stims","","","","","","","","","","","","","","","",""
"-1","-1","poldrack-single-stim","133","183886","0.0-54.0","sub-11_2","","100","0","cue","","<div class = upperbox><div class = ""center-text"" >Amplitude</div></div><div class = lowerbox><div class = fixation>+</div></div>","none","100","test","Amplitude","orange","4","magnitude","stay","switch","14","","","",""
"1006","89","poldrack-single-stim","134","186169","0.0-55.0","sub-11_2","","2272","0","stim","","<div class = upperbox><div class = ""center-text"" >Amplitude</div></div><div class = lowerbox><div class = ""stim-text"" style=color:orange;>4</div>","89,71","1000","test","Amplitude","orange","4","magnitude","stay","switch","14","true","89","",""
"","","call-function","135","186170","0.0-56.0","sub-11_2","","","","set_stims","","","","","","","","","","","","","","","",""
"-1","-1","poldrack-single-stim","136","187078","0.0-57.0","sub-11_2","","900","0","cue","","<div class = upperbox><div class = ""center-text"" >Orange-Bleu</div></div><div class = lowerbox><div class = fixation>+</div></div>","none","900","test","Orange-Bleu","orange","4","color","switch","stay","15","","","",""
"504","71","poldrack-single-stim","137","189092","0.0-58.0","sub-11_2","","2000","0","stim","","<div class = upperbox><div class = ""center-text"" >Orange-Bleu</div></div><div class = lowerbox><div class = ""stim-text"" style=color:orange;>4</div>","89,71","1000","test","Orange-Bleu","orange","4","color","switch","stay","15","true","71","",""
"","","call-function","138","189093","0.0-59.0","sub-11_2","","","","set_stims","","","","","","","","","","","","","","","",""
"-1","-1","poldrack-single-stim","139","190001","0.0-60.0","sub-11_2","","900","0","cue","","<div class = upperbox><div class = ""center-text"" >Couleur</div></div><div class = lowerbox><div class = fixation>+</div></div>","none","900","test","Couleur","#1F45FC","9","color","stay","switch","16","","","",""
"715","89","poldrack-single-stim","140","192281","0.0-61.0","sub-11_2","","2272","0","stim","","<div class = upperbox><div class = ""center-text"" >Couleur</div></div><div class = lowerbox><div class = ""stim-text"" style=color:#1F45FC;>9</div>","89,71","1000","test","Couleur","#1F45FC","9","color","stay","switch","16","true","89","",""
"","","call-function","141","192283","0.0-62.0","sub-11_2","","","","set_stims","","","","","","","","","","","","","","","",""
"-1","-1","poldrack-single-stim","142","192390","0.0-63.0","sub-11_2","","100","0","cue","","<div class = upperbox><div class = ""center-text"" >Haut-Bas</div></div><div class = lowerbox><div class = fixation>+</div></div>","none","100","test","Haut-Bas","orange","2","magnitude","switch","switch","17","","","",""
"880","89","poldrack-single-stim","143","194392","0.0-64.0","sub-11_2","","2000","0","stim","","<div class = upperbox><div class = ""center-text"" >Haut-Bas</div></div><div class = lowerbox><div class = ""stim-text"" style=color:orange;>2</div>","89,71","1000","test","Haut-Bas","orange","2","magnitude","switch","switch","17","true","89","",""
"","","call-function","144","194392","0.0-65.0","sub-11_2","","","","set_stims","","","","","","","","","","","","","","","",""
"-1","-1","poldrack-single-stim","145","194500","0.0-66.0","sub-11_2","","100","0","cue","","<div class = upperbox><div class = ""center-text"" >Couleur</div></div><div class = lowerbox><div class = fixation>+</div></div>","none","100","test","Couleur","#1F45FC","1","color","switch","stay","18","","","",""
"676","89","poldrack-single-stim","146","196515","0.0-67.0","sub-11_2","","2000","0","stim","","<div class = upperbox><div class = ""center-text"" >Couleur</div></div><div class = lowerbox><div class = ""stim-text"" style=color:#1F45FC;>1</div>","89,71","1000","test","Couleur","#1F45FC","1","color","switch","stay","18","true","89","",""
"","","call-function","147","196516","0.0-68.0","sub-11_2","","","","set_stims","","","","","","","","","","","","","","","",""
"-1","-1","poldrack-single-stim","148","197423","0.0-69.0","sub-11_2","","900","0","cue","","<div class = upperbox><div class = ""center-text"" >Couleur</div></div><div class = lowerbox><div class = fixation>+</div></div>","none","900","test","Couleur","#1F45FC","7","color","stay","stay","19","","","",""
"724","89","poldrack-single-stim","149","199698","0.0-70.0","sub-11_2","","2272","0","stim","","<div class = upperbox><div class = ""center-text"" >Couleur</div></div><div class = lowerbox><div class = ""stim-text"" style=color:#1F45FC;>7</div>","89,71","1000","test","Couleur","#1F45FC","7","color","stay","stay","19","true","89","",""
"","","call-function","150","199699","0.0-71.0","sub-11_2","","","","set_stims","","","","","","","","","","","","","","","",""
"-1","-1","poldrack-single-stim","151","200610","0.0-72.0","sub-11_2","","900","0","cue","","<div class = upperbox><div class = ""center-text"" >Haut-Bas</div></div><div class = lowerbox><div class = fixation>+</div></div>","none","900","test","Haut-Bas","orange","4","magnitude","switch","switch","20","","","",""
"689","89","poldrack-single-stim","152","202748","0.0-73.0","sub-11_2","","2136","0","stim","","<div class = upperbox><div class = ""center-text"" >Haut-Bas</div></div><div class = lowerbox><div class = ""stim-text"" style=color:orange;>4</div>","89,71","1000","test","Haut-Bas","orange","4","magnitude","switch","switch","20","true","89","",""
"","","call-function","153","202750","0.0-74.0","sub-11_2","","","","set_stims","","","","","","","","","","","","","","","",""
"-1","-1","poldrack-single-stim","154","203657","0.0-75.0","sub-11_2","","900","0","cue","","<div class = upperbox><div class = ""center-text"" >Orange-Bleu</div></div><div class = lowerbox><div class = fixation>+</div></div>","none","900","test","Orange-Bleu","#1F45FC","6","color","switch","switch","21","","","",""
"624","89","poldrack-single-stim","155","205675","0.0-76.0","sub-11_2","","2000","0","stim","","<div class = upperbox><div class = ""center-text"" >Orange-Bleu</div></div><div class = lowerbox><div class = ""stim-text"" style=color:#1F45FC;>6</div>","89,71","1000","test","Orange-Bleu","#1F45FC","6","color","switch","switch","21","true","89","",""
"","","call-function","156","205676","0.0-77.0","sub-11_2","","","","set_stims","","","","","","","","","","","","","","","",""
"-1","-1","poldrack-single-stim","157","206585","0.0-78.0","sub-11_2","","900","0","cue","","<div class = upperbox><div class = ""center-text"" >Orange-Bleu</div></div><div class = lowerbox><div class = fixation>+</div></div>","none","900","test","Orange-Bleu","orange","3","color","stay","stay","22","","","",""
"370","71","poldrack-single-stim","158","208590","0.0-79.0","sub-11_2","","2000","0","stim","","<div class = upperbox><div class = ""center-text"" >Orange-Bleu</div></div><div class = lowerbox><div class = ""stim-text"" style=color:orange;>3</div>","89,71","1000","test","Orange-Bleu","orange","3","color","stay","stay","22","true","71","",""
"","","call-function","159","208591","0.0-80.0","sub-11_2","","","","set_stims","","","","","","","","","","","","","","","",""
"-1","-1","poldrack-single-stim","160","208698","0.0-81.0","sub-11_2","","100","0","cue","","<div class = upperbox><div class = ""center-text"" >Amplitude</div></div><div class = lowerbox><div class = fixation>+</div></div>","none","100","test","Amplitude","orange","7","magnitude","switch","stay","23","","","",""
"772","71","poldrack-single-stim","161","210782","0.0-82.0","sub-11_2","","2000","0","stim","","<div class = upperbox><div class = ""center-text"" >Amplitude</div></div><div class = lowerbox><div class = ""stim-text"" style=color:orange;>7</div>","89,71","1000","test","Amplitude","orange","7","magnitude","switch","stay","23","true","71","",""
"","","call-function","162","210783","0.0-83.0","sub-11_2","","","","set_stims","","","","","","","","","","","","","","","",""
"-1","-1","poldrack-single-stim","163","210909","0.0-84.0","sub-11_2","","100","0","cue","","<div class = upperbox><div class = ""center-text"" >Haut-Bas</div></div><div class = lowerbox><div class = fixation>+</div></div>","none","100","test","Haut-Bas","orange","2","magnitude","stay","switch","24","","","",""
"671","89","poldrack-single-stim","164","212920","0.0-85.0","sub-11_2","","2000","0","stim","","<div class = upperbox><div class = ""center-text"" >Haut-Bas</div></div><div class = lowerbox><div class = ""stim-text"" style=color:orange;>2</div>","89,71","1000","test","Haut-Bas","orange","2","magnitude","stay","switch","24","true","89","",""
"","","call-function","165","212921","0.0-86.0","sub-11_2","","","","set_stims","","","","","","","","","","","","","","","",""
"-1","-1","poldrack-single-stim","166","213829","0.0-87.0","sub-11_2","","900","0","cue","","<div class = upperbox><div class = ""center-text"" >Haut-Bas</div></div><div class = lowerbox><div class = fixation>+</div></div>","none","900","test","Haut-Bas","#1F45FC","8","magnitude","stay","stay","25","","","",""
"528","71","poldrack-single-stim","167","215848","0.0-88.0","sub-11_2","","2000","0","stim","","<div class = upperbox><div class = ""center-text"" >Haut-Bas</div></div><div class = lowerbox><div class = ""stim-text"" style=color:#1F45FC;>8</div>","89,71","1000","test","Haut-Bas","#1F45FC","8","magnitude","stay","stay","25","true","71","",""
"","","call-function","168","215849","0.0-89.0","sub-11_2","","","","set_stims","","","","","","","","","","","","","","","",""
"-1","-1","poldrack-single-stim","169","216761","0.0-90.0","sub-11_2","","900","0","cue","","<div class = upperbox><div class = ""center-text"" >Couleur</div></div><div class = lowerbox><div class = fixation>+</div></div>","none","900","test","Couleur","orange","8","color","switch","stay","26","","","",""
"528","71","poldrack-single-stim","170","218901","0.0-91.0","sub-11_2","","2136","0","stim","","<div class = upperbox><div class = ""center-text"" >Couleur</div></div><div class = lowerbox><div class = ""stim-text"" style=color:orange;>8</div>","89,71","1000","test","Couleur","orange","8","color","switch","stay","26","true","71","",""
"","","call-function","171","218902","0.0-92.0","sub-11_2","","","","set_stims","","","","","","","","","","","","","","","",""
"-1","-1","poldrack-single-stim","172","219808","0.0-93.0","sub-11_2","","900","0","cue","","<div class = upperbox><div class = ""center-text"" >Couleur</div></div><div class = lowerbox><div class = fixation>+</div></div>","none","900","test","Couleur","orange","7","color","stay","stay","27","","","",""
"401","71","poldrack-single-stim","173","221815","0.0-94.0","sub-11_2","","2000","0","stim","","<div class = upperbox><div class = ""center-text"" >Couleur</div></div><div class = lowerbox><div class = ""stim-text"" style=color:orange;>7</div>","89,71","1000","test","Couleur","orange","7","color","stay","stay","27","true","71","",""
"","","call-function","174","221816","0.0-95.0","sub-11_2","","","","set_stims","","","","","","","","","","","","","","","",""
"-1","-1","poldrack-single-stim","175","222722","0.0-96.0","sub-11_2","","900","0","cue","","<div class = upperbox><div class = ""center-text"" >Haut-Bas</div></div><div class = lowerbox><div class = fixation>+</div></div>","none","900","test","Haut-Bas","#1F45FC","7","magnitude","switch","switch","28","","","",""
"715","89","poldrack-single-stim","176","224738","0.0-97.0","sub-11_2","","2000","0","stim","","<div class = upperbox><div class = ""center-text"" >Haut-Bas</div></div><div class = lowerbox><div class = ""stim-text"" style=color:#1F45FC;>7</div>","89,71","1000","test","Haut-Bas","#1F45FC","7","magnitude","switch","switch","28","false","71","",""
"","","call-function","177","224740","0.0-98.0","sub-11_2","","","","set_stims","","","","","","","","","","","","","","","",""
"-1","-1","poldrack-single-stim","178","224847","0.0-99.0","sub-11_2","","100","0","cue","","<div class = upperbox><div class = ""center-text"" >Amplitude</div></div><div class = lowerbox><div class = fixation>+</div></div>","none","100","test","Amplitude","orange","6","magnitude","stay","switch","29","","","",""
"799","71","poldrack-single-stim","179","226986","0.0-100.0","sub-11_2","","2136","0","stim","","<div class = upperbox><div class = ""center-text"" >Amplitude</div></div><div class = lowerbox><div class = ""stim-text"" style=color:orange;>6</div>","89,71","1000","test","Amplitude","orange","6","magnitude","stay","switch","29","true","71","",""
"","","call-function","180","226987","0.0-101.0","sub-11_2","","","","set_stims","","","","","","","","","","","","","","","",""
"-1","-1","poldrack-single-stim","181","227897","0.0-102.0","sub-11_2","","900","0","cue","","<div class = upperbox><div class = ""center-text"" >Haut-Bas</div></div><div class = lowerbox><div class = fixation>+</div></div>","none","900","test","Haut-Bas","#1F45FC","7","magnitude","stay","switch","30","","","",""
"475","71","poldrack-single-stim","182","229902","0.0-103.0","sub-11_2","","2000","0","stim","","<div class = upperbox><div class = ""center-text"" >Haut-Bas</div></div><div class = lowerbox><div class = ""stim-text"" style=color:#1F45FC;>7</div>","89,71","1000","test","Haut-Bas","#1F45FC","7","magnitude","stay","switch","30","true","71","",""
"","","call-function","183","229903","0.0-104.0","sub-11_2","","","","set_stims","","","","","","","","","","","","","","","",""
"-1","-1","poldrack-single-stim","184","230011","0.0-105.0","sub-11_2","","100","0","cue","","<div class = upperbox><div class = ""center-text"" >Couleur</div></div><div class = lowerbox><div class = fixation>+</div></div>","none","100","test","Couleur","#1F45FC","3","color","switch","switch","31","","","",""
"798","89","poldrack-single-stim","185","232151","0.0-106.0","sub-11_2","","2136","0","stim","","<div class = upperbox><div class = ""center-text"" >Couleur</div></div><div class = lowerbox><div class = ""stim-text"" style=color:#1F45FC;>3</div>","89,71","1000","test","Couleur","#1F45FC","3","color","switch","switch","31","true","89","",""
"","","call-function","186","232153","0.0-107.0","sub-11_2","","","","set_stims","","","","","","","","","","","","","","","",""
"-1","-1","poldrack-single-stim","187","233062","0.0-108.0","sub-11_2","","900","0","cue","","<div class = upperbox><div class = ""center-text"" >Amplitude</div></div><div class = lowerbox><div class = fixation>+</div></div>","none","900","test","Amplitude","#1F45FC","3","magnitude","switch","switch","32","","","",""
"522","89","poldrack-single-stim","188","235747","0.0-109.0","sub-11_2","","2680","0","stim","","<div class = upperbox><div class = ""center-text"" >Amplitude</div></div><div class = lowerbox><div class = ""stim-text"" style=color:#1F45FC;>3</div>","89,71","1000","test","Amplitude","#1F45FC","3","magnitude","switch","switch","32","true","89","",""
"","","call-function","189","235748","0.0-110.0","sub-11_2","","","","set_stims","","","","","","","","","","","","","","","",""
"-1","-1","poldrack-single-stim","190","236654","0.0-111.0","sub-11_2","","900","0","cue","","<div class = upperbox><div class = ""center-text"" >Amplitude</div></div><div class = lowerbox><div class = fixation>+</div></div>","none","900","test","Amplitude","orange","8","magnitude","stay","stay","33","","","",""
"540","71","poldrack-single-stim","191","238933","0.0-112.0","sub-11_2","","2272","0","stim","","<div class = upperbox><div class = ""center-text"" >Amplitude</div></div><div class = lowerbox><div class = ""stim-text"" style=color:orange;>8</div>","89,71","1000","test","Amplitude","orange","8","magnitude","stay","stay","33","true","71","",""
"","","call-function","192","238934","0.0-113.0","sub-11_2","","","","set_stims","","","","","","","","","","","","","","","",""
"-1","-1","poldrack-single-stim","193","239846","0.0-114.0","sub-11_2","","900","0","cue","","<div class = upperbox><div class = ""center-text"" >Amplitude</div></div><div class = lowerbox><div class = fixation>+</div></div>","none","900","test","Amplitude","orange","2","magnitude","stay","stay","34","","","",""
"744","89","poldrack-single-stim","194","241998","0.0-115.0","sub-11_2","","2136","0","stim","","<div class = upperbox><div class = ""center-text"" >Amplitude</div></div><div class = lowerbox><div class = ""stim-text"" style=color:orange;>2</div>","89,71","1000","test","Amplitude","orange","2","magnitude","stay","stay","34","true","89","",""
"","","call-function","195","241999","0.0-116.0","sub-11_2","","","","set_stims","","","","","","","","","","","","","","","",""
"-1","-1","poldrack-single-stim","196","242910","0.0-117.0","sub-11_2","","900","0","cue","","<div class = upperbox><div class = ""center-text"" >Orange-Bleu</div></div><div class = lowerbox><div class = fixation>+</div></div>","none","900","test","Orange-Bleu","orange","3","color","switch","switch","35","","","",""
"804","71","poldrack-single-stim","197","244918","0.0-118.0","sub-11_2","","2000","0","stim","","<div class = upperbox><div class = ""center-text"" >Orange-Bleu</div></div><div class = lowerbox><div class = ""stim-text"" style=color:orange;>3</div>","89,71","1000","test","Orange-Bleu","orange","3","color","switch","switch","35","true","71","",""
"","","call-function","198","244918","0.0-119.0","sub-11_2","","","","set_stims","","","","","","","","","","","","","","","",""
"-1","-1","poldrack-single-stim","199","245835","0.0-120.0","sub-11_2","","900","0","cue","","<div class = upperbox><div class = ""center-text"" >Amplitude</div></div><div class = lowerbox><div class = fixation>+</div></div>","none","900","test","Amplitude","orange","2","magnitude","switch","switch","36","","","",""
"697","89","poldrack-single-stim","200","247974","0.0-121.0","sub-11_2","","2136","0","stim","","<div class = upperbox><div class = ""center-text"" >Amplitude</div></div><div class = lowerbox><div class = ""stim-text"" style=color:orange;>2</div>","89,71","1000","test","Amplitude","orange","2","magnitude","switch","switch","36","true","89","",""
"","","call-function","201","247976","0.0-122.0","sub-11_2","","","","set_stims","","","","","","","","","","","","","","","",""
"-1","-1","poldrack-single-stim","202","248880","0.0-123.0","sub-11_2","","900","0","cue","","<div class = upperbox><div class = ""center-text"" >Couleur</div></div><div class = lowerbox><div class = fixation>+</div></div>","none","900","test","Couleur","#1F45FC","8","color","switch","switch","37","","","",""
"620","89","poldrack-single-stim","203","251574","0.0-124.0","sub-11_2","","2680","0","stim","","<div class = upperbox><div class = ""center-text"" >Couleur</div></div><div class = lowerbox><div class = ""stim-text"" style=color:#1F45FC;>8</div>","89,71","1000","test","Couleur","#1F45FC","8","color","switch","switch","37","true","89","",""
"","","call-function","204","251576","0.0-125.0","sub-11_2","","","","set_stims","","","","","","","","","","","","","","","",""
"-1","-1","poldrack-single-stim","205","252488","0.0-126.0","sub-11_2","","900","0","cue","","<div class = upperbox><div class = ""center-text"" >Amplitude</div></div><div class = lowerbox><div class = fixation>+</div></div>","none","900","test","Amplitude","orange","1","magnitude","switch","switch","38","","","",""
"584","89","poldrack-single-stim","206","254766","0.0-127.0","sub-11_2","","2272","0","stim","","<div class = upperbox><div class = ""center-text"" >Amplitude</div></div><div class = lowerbox><div class = ""stim-text"" style=color:orange;>1</div>","89,71","1000","test","Amplitude","orange","1","magnitude","switch","switch","38","true","89","",""
"","","call-function","207","254767","0.0-128.0","sub-11_2","","","","set_stims","","","","","","","","","","","","","","","",""
"-1","-1","poldrack-single-stim","208","255680","0.0-129.0","sub-11_2","","900","0","cue","","<div class = upperbox><div class = ""center-text"" >Haut-Bas</div></div><div class = lowerbox><div class = fixation>+</div></div>","none","900","test","Haut-Bas","#1F45FC","7","magnitude","stay","switch","39","","","",""
"719","71","poldrack-single-stim","209","257684","0.0-130.0","sub-11_2","","2000","0","stim","","<div class = upperbox><div class = ""center-text"" >Haut-Bas</div></div><div class = lowerbox><div class = ""stim-text"" style=color:#1F45FC;>7</div>","89,71","1000","test","Haut-Bas","#1F45FC","7","magnitude","stay","switch","39","true","71","",""
"","","call-function","210","257684","0.0-131.0","sub-11_2","","","","set_stims","","","","","","","","","","","","","","","",""
"-1","-1","poldrack-single-stim","211","258593","0.0-132.0","sub-11_2","","900","0","cue","","<div class = upperbox><div class = ""center-text"" >Orange-Bleu</div></div><div class = lowerbox><div class = fixation>+</div></div>","none","900","test","Orange-Bleu","orange","3","color","switch","stay","40","","","",""
"763","89","poldrack-single-stim","212","260611","0.0-133.0","sub-11_2","","2000","0","stim","","<div class = upperbox><div class = ""center-text"" >Orange-Bleu</div></div><div class = lowerbox><div class = ""stim-text"" style=color:orange;>3</div>","89,71","1000","test","Orange-Bleu","orange","3","color","switch","stay","40","false","71","",""
"","","call-function","213","260612","0.0-134.0","sub-11_2","","","","set_stims","","","","","","","","","","","","","","","",""
"-1","-1","poldrack-single-stim","214","260719","0.0-135.0","sub-11_2","","100","0","cue","","<div class = upperbox><div class = ""center-text"" >Orange-Bleu</div></div><div class = lowerbox><div class = fixation>+</div></div>","none","100","test","Orange-Bleu","#1F45FC","9","color","stay","stay","41","","","",""
"918","89","poldrack-single-stim","215","262858","0.0-136.0","sub-11_2","","2136","0","stim","","<div class = upperbox><div class = ""center-text"" >Orange-Bleu</div></div><div class = lowerbox><div class = ""stim-text"" style=color:#1F45FC;>9</div>","89,71","1000","test","Orange-Bleu","#1F45FC","9","color","stay","stay","41","true","89","",""
"","","call-function","216","262858","0.0-137.0","sub-11_2","","","","set_stims","","","","","","","","","","","","","","","",""
"-1","-1","poldrack-single-stim","217","263767","0.0-138.0","sub-11_2","","900","0","cue","","<div class = upperbox><div class = ""center-text"" >Orange-Bleu</div></div><div class = lowerbox><div class = fixation>+</div></div>","none","900","test","Orange-Bleu","#1F45FC","6","color","stay","stay","42","","","",""
"603","89","poldrack-single-stim","218","265785","0.0-139.0","sub-11_2","","2000","0","stim","","<div class = upperbox><div class = ""center-text"" >Orange-Bleu</div></div><div class = lowerbox><div class = ""stim-text"" style=color:#1F45FC;>6</div>","89,71","1000","test","Orange-Bleu","#1F45FC","6","color","stay","stay","42","true","89","",""
"","","call-function","219","265786","0.0-140.0","sub-11_2","","","","set_stims","","","","","","","","","","","","","","","",""
"-1","-1","poldrack-single-stim","220","265889","0.0-141.0","sub-11_2","","100","0","cue","","<div class = upperbox><div class = ""center-text"" >Orange-Bleu</div></div><div class = lowerbox><div class = fixation>+</div></div>","none","100","test","Orange-Bleu","#1F45FC","3","color","stay","stay","43","","","",""
"819","89","poldrack-single-stim","221","267904","0.0-142.0","sub-11_2","","2000","0","stim","","<div class = upperbox><div class = ""center-text"" >Orange-Bleu</div></div><div class = lowerbox><div class = ""stim-text"" style=color:#1F45FC;>3</div>","89,71","1000","test","Orange-Bleu","#1F45FC","3","color","stay","stay","43","true","89","",""
"","","call-function","222","267905","0.0-143.0","sub-11_2","","","","set_stims","","","","","","","","","","","","","","","",""
"-1","-1","poldrack-single-stim","223","268012","0.0-144.0","sub-11_2","","100","0","cue","","<div class = upperbox><div class = ""center-text"" >Couleur</div></div><div class = lowerbox><div class = fixation>+</div></div>","none","100","test","Couleur","orange","4","color","stay","switch","44","","","",""
"673","71","poldrack-single-stim","224","270029","0.0-145.0","sub-11_2","","2000","0","stim","","<div class = upperbox><div class = ""center-text"" >Couleur</div></div><div class = lowerbox><div class = ""stim-text"" style=color:orange;>4</div>","89,71","1000","test","Couleur","orange","4","color","stay","switch","44","true","71","",""
"","","call-function","225","270030","0.0-146.0","sub-11_2","","","","set_stims","","","","","","","","","","","","","","","",""
"-1","-1","poldrack-single-stim","226","270139","0.0-147.0","sub-11_2","","100","0","cue","","<div class = upperbox><div class = ""center-text"" >Amplitude</div></div><div class = lowerbox><div class = fixation>+</div></div>","none","100","test","Amplitude","orange","8","magnitude","switch","stay","45","","","",""
"793","71","poldrack-single-stim","227","272424","0.0-148.0","sub-11_2","","2272","0","stim","","<div class = upperbox><div class = ""center-text"" >Amplitude</div></div><div class = lowerbox><div class = ""stim-text"" style=color:orange;>8</div>","89,71","1000","test","Amplitude","orange","8","magnitude","switch","stay","45","true","71","",""
"","","call-function","228","272425","0.0-149.0","sub-11_2","","","","set_stims","","","","","","","","","","","","","","","",""
"-1","-1","poldrack-single-stim","229","273327","0.0-150.0","sub-11_2","","900","0","cue","","<div class = upperbox><div class = ""center-text"" >Orange-Bleu</div></div><div class = lowerbox><div class = fixation>+</div></div>","none","900","test","Orange-Bleu","orange","7","color","switch","stay","46","","","",""
"371","71","poldrack-single-stim","230","275738","0.0-151.0","sub-11_2","","2408","0","stim","","<div class = upperbox><div class = ""center-text"" >Orange-Bleu</div></div><div class = lowerbox><div class = ""stim-text"" style=color:orange;>7</div>","89,71","1000","test","Orange-Bleu","orange","7","color","switch","stay","46","true","71","",""
"","","call-function","231","275740","0.0-152.0","sub-11_2","","","","set_stims","","","","","","","","","","","","","","","",""
"-1","-1","poldrack-single-stim","232","275846","0.0-153.0","sub-11_2","","100","0","cue","","<div class = upperbox><div class = ""center-text"" >Orange-Bleu</div></div><div class = lowerbox><div class = fixation>+</div></div>","none","100","test","Orange-Bleu","orange","9","color","stay","stay","47","","","",""
"464","71","poldrack-single-stim","233","277852","0.0-154.0","sub-11_2","","2000","0","stim","","<div class = upperbox><div class = ""center-text"" >Orange-Bleu</div></div><div class = lowerbox><div class = ""stim-text"" style=color:orange;>9</div>","89,71","1000","test","Orange-Bleu","orange","9","color","stay","stay","47","true","71","",""
"","","call-function","234","277852","0.0-155.0","sub-11_2","","","","set_stims","","","","","","","","","","","","","","","",""
"-1","-1","poldrack-single-stim","235","278762","0.0-156.0","sub-11_2","","900","0","cue","","<div class = upperbox><div class = ""center-text"" >Orange-Bleu</div></div><div class = lowerbox><div class = fixation>+</div></div>","none","900","test","Orange-Bleu","orange","7","color","stay","stay","48","","","",""
"488","71","poldrack-single-stim","236","280766","0.0-157.0","sub-11_2","","2000","0","stim","","<div class = upperbox><div class = ""center-text"" >Orange-Bleu</div></div><div class = lowerbox><div class = ""stim-text"" style=color:orange;>7</div>","89,71","1000","test","Orange-Bleu","orange","7","color","stay","stay","48","true","71","",""
"","","call-function","237","280767","0.0-158.0","sub-11_2","","","","set_stims","","","","","","","","","","","","","","","",""
"-1","-1","poldrack-single-stim","238","281674","0.0-159.0","sub-11_2","","900","0","cue","","<div class = upperbox><div class = ""center-text"" >Amplitude</div></div><div class = lowerbox><div class = fixation>+</div></div>","none","900","test","Amplitude","#1F45FC","9","magnitude","switch","stay","49","","","",""
"523","71","poldrack-single-stim","239","283690","0.0-160.0","sub-11_2","","2000","0","stim","","<div class = upperbox><div class = ""center-text"" >Amplitude</div></div><div class = lowerbox><div class = ""stim-text"" style=color:#1F45FC;>9</div>","89,71","1000","test","Amplitude","#1F45FC","9","magnitude","switch","stay","49","true","71","",""
"","","call-function","240","283690","0.0-161.0","sub-11_2","","","","set_stims","","","","","","","","","","","","","","","",""
"-1","-1","poldrack-single-stim","241","283797","0.0-162.0","sub-11_2","","100","0","cue","","<div class = upperbox><div class = ""center-text"" >Couleur</div></div><div class = lowerbox><div class = fixation>+</div></div>","none","100","test","Couleur","orange","6","color","switch","stay","50","","","",""
"842","71","poldrack-single-stim","242","286071","0.0-163.0","sub-11_2","","2272","0","stim","","<div class = upperbox><div class = ""center-text"" >Couleur</div></div><div class = lowerbox><div class = ""stim-text"" style=color:orange;>6</div>","89,71","1000","test","Couleur","orange","6","color","switch","stay","50","true","71","",""
"","","call-function","243","286071","0.0-164.0","sub-11_2","","","","set_stims","","","","","","","","","","","","","","","",""
"-1","-1","poldrack-single-stim","244","286976","0.0-165.0","sub-11_2","","900","0","cue","","<div class = upperbox><div class = ""center-text"" >Couleur</div></div><div class = lowerbox><div class = fixation>+</div></div>","none","900","test","Couleur","orange","3","color","stay","stay","51","","","",""
"460","71","poldrack-single-stim","245","289129","0.0-166.0","sub-11_2","","2136","0","stim","","<div class = upperbox><div class = ""center-text"" >Couleur</div></div><div class = lowerbox><div class = ""stim-text"" style=color:orange;>3</div>","89,71","1000","test","Couleur","orange","3","color","stay","stay","51","true","71","",""
"","","call-function","246","289130","0.0-167.0","sub-11_2","","","","set_stims","","","","","","","","","","","","","","","",""
"-1","-1","poldrack-single-stim","247","289237","0.0-168.0","sub-11_2","","100","0","cue","","<div class = upperbox><div class = ""center-text"" >Amplitude</div></div><div class = lowerbox><div class = fixation>+</div></div>","none","100","test","Amplitude","orange","7","magnitude","switch","switch","52","","","",""
"552","71","poldrack-single-stim","248","291242","0.0-169.0","sub-11_2","","2000","0","stim","","<div class = upperbox><div class = ""center-text"" >Amplitude</div></div><div class = lowerbox><div class = ""stim-text"" style=color:orange;>7</div>","89,71","1000","test","Amplitude","orange","7","magnitude","switch","switch","52","true","71","",""
"","","call-function","249","291244","0.0-170.0","sub-11_2","","","","set_stims","","","","","","","","","","","","","","","",""
"-1","-1","poldrack-single-stim","250","291351","0.0-171.0","sub-11_2","","100","0","cue","","<div class = upperbox><div class = ""center-text"" >Haut-Bas</div></div><div class = lowerbox><div class = fixation>+</div></div>","none","100","test","Haut-Bas","orange","4","magnitude","stay","switch","53","","","",""
"674","89","poldrack-single-stim","251","293906","0.0-172.0","sub-11_2","","2544","0","stim","","<div class = upperbox><div class = ""center-text"" >Haut-Bas</div></div><div class = lowerbox><div class = ""stim-text"" style=color:orange;>4</div>","89,71","1000","test","Haut-Bas","orange","4","magnitude","stay","switch","53","true","89","",""
"","","call-function","252","293907","0.0-173.0","sub-11_2","","","","set_stims","","","","","","","","","","","","","","","",""
"-1","-1","poldrack-single-stim","253","294016","0.0-174.0","sub-11_2","","100","0","cue","","<div class = upperbox><div class = ""center-text"" >Couleur</div></div><div class = lowerbox><div class = fixation>+</div></div>","none","100","test","Couleur","#1F45FC","7","color","switch","switch","54","","","",""
"962","89","poldrack-single-stim","254","296301","0.0-175.0","sub-11_2","","2272","0","stim","","<div class = upperbox><div class = ""center-text"" >Couleur</div></div><div class = lowerbox><div class = ""stim-text"" style=color:#1F45FC;>7</div>","89,71","1000","test","Couleur","#1F45FC","7","color","switch","switch","54","true","89","",""
"","","call-function","255","296302","0.0-176.0","sub-11_2","","","","set_stims","","","","","","","","","","","","","","","",""
"-1","-1","poldrack-single-stim","256","296409","0.0-177.0","sub-11_2","","100","0","cue","","<div class = upperbox><div class = ""center-text"" >Couleur</div></div><div class = lowerbox><div class = fixation>+</div></div>","none","100","test","Couleur","#1F45FC","1","color","stay","stay","55","","","",""
"705","89","poldrack-single-stim","257","298690","0.0-178.0","sub-11_2","","2272","0","stim","","<div class = upperbox><div class = ""center-text"" >Couleur</div></div><div class = lowerbox><div class = ""stim-text"" style=color:#1F45FC;>1</div>","89,71","1000","test","Couleur","#1F45FC","1","color","stay","stay","55","true","89","",""
"","","call-function","258","298692","0.0-179.0","sub-11_2","","","","set_stims","","","","","","","","","","","","","","","",""
"-1","-1","poldrack-single-stim","259","298798","0.0-180.0","sub-11_2","","100","0","cue","","<div class = upperbox><div class = ""center-text"" >Orange-Bleu</div></div><div class = lowerbox><div class = fixation>+</div></div>","none","100","test","Orange-Bleu","#1F45FC","2","color","stay","switch","56","","","",""
"1029","89","poldrack-single-stim","260","300814","0.0-181.0","sub-11_2","","2000","0","stim","","<div class = upperbox><div class = ""center-text"" >Orange-Bleu</div></div><div class = lowerbox><div class = ""stim-text"" style=color:#1F45FC;>2</div>","89,71","1000","test","Orange-Bleu","#1F45FC","2","color","stay","switch","56","true","89","",""
"","","call-function","261","300814","0.0-182.0","sub-11_2","","","","set_stims","","","","","","","","","","","","","","","",""
"-1","-1","poldrack-single-stim","262","301726","0.0-183.0","sub-11_2","","900","0","cue","","<div class = upperbox><div class = ""center-text"" >Orange-Bleu</div></div><div class = lowerbox><div class = fixation>+</div></div>","none","900","test","Orange-Bleu","orange","7","color","stay","stay","57","","","",""
"652","71","poldrack-single-stim","263","303727","0.0-184.0","sub-11_2","","2000","0","stim","","<div class = upperbox><div class = ""center-text"" >Orange-Bleu</div></div><div class = lowerbox><div class = ""stim-text"" style=color:orange;>7</div>","89,71","1000","test","Orange-Bleu","orange","7","color","stay","stay","57","true","71","",""
"","","call-function","264","303727","0.0-185.0","sub-11_2","","","","set_stims","","","","","","","","","","","","","","","",""
"-1","-1","poldrack-single-stim","265","303836","0.0-186.0","sub-11_2","","100","0","cue","","<div class = upperbox><div class = ""center-text"" >Haut-Bas</div></div><div class = lowerbox><div class = fixation>+</div></div>","none","100","test","Haut-Bas","#1F45FC","4","magnitude","switch","stay","58","","","",""
"767","89","poldrack-single-stim","266","305981","0.0-187.0","sub-11_2","","2136","0","stim","","<div class = upperbox><div class = ""center-text"" >Haut-Bas</div></div><div class = lowerbox><div class = ""stim-text"" style=color:#1F45FC;>4</div>","89,71","1000","test","Haut-Bas","#1F45FC","4","magnitude","switch","stay","58","true","89","",""
"","","call-function","267","305982","0.0-188.0","sub-11_2","","","","set_stims","","","","","","","","","","","","","","","",""
"-1","-1","poldrack-single-stim","268","306887","0.0-189.0","sub-11_2","","900","0","cue","","<div class = upperbox><div class = ""center-text"" >Couleur</div></div><div class = lowerbox><div class = fixation>+</div></div>","none","900","test","Couleur","orange","7","color","switch","switch","59","","","",""
"365","71","poldrack-single-stim","269","308903","0.0-190.0","sub-11_2","","2000","0","stim","","<div class = upperbox><div class = ""center-text"" >Couleur</div></div><div class = lowerbox><div class = ""stim-text"" style=color:orange;>7</div>","89,71","1000","test","Couleur","orange","7","color","switch","switch","59","true","71","",""
"","","call-function","270","308904","0.0-191.0","sub-11_2","","","","set_stims","","","","","","","","","","","","","","","",""
"-1","-1","poldrack-single-stim","271","309010","0.0-192.0","sub-11_2","","100","0","cue","","<div class = upperbox><div class = ""center-text"" >Orange-Bleu</div></div><div class = lowerbox><div class = fixation>+</div></div>","none","100","test","Orange-Bleu","orange","8","color","stay","switch","60","","","",""
"805","71","poldrack-single-stim","272","311150","0.0-193.0","sub-11_2","","2136","0","stim","","<div class = upperbox><div class = ""center-text"" >Orange-Bleu</div></div><div class = lowerbox><div class = ""stim-text"" style=color:orange;>8</div>","89,71","1000","test","Orange-Bleu","orange","8","color","stay","switch","60","true","71","",""
"","","call-function","273","311152","0.0-194.0","sub-11_2","","","","set_stims","","","","","","","","","","","","","","","",""
"-1","-1","poldrack-single-stim","274","311258","0.0-195.0","sub-11_2","","100","0","cue","","<div class = upperbox><div class = ""center-text"" >Amplitude</div></div><div class = lowerbox><div class = fixation>+</div></div>","none","100","test","Amplitude","#1F45FC","2","magnitude","switch","stay","61","","","",""
"635","89","poldrack-single-stim","275","313534","0.0-196.0","sub-11_2","","2272","0","stim","","<div class = upperbox><div class = ""center-text"" >Amplitude</div></div><div class = lowerbox><div class = ""stim-text"" style=color:#1F45FC;>2</div>","89,71","1000","test","Amplitude","#1F45FC","2","magnitude","switch","stay","61","true","89","",""
"","","call-function","276","313534","0.0-197.0","sub-11_2","","","","set_stims","","","","","","","","","","","","","","","",""
"-1","-1","poldrack-single-stim","277","313642","0.0-198.0","sub-11_2","","100","0","cue","","<div class = upperbox><div class = ""center-text"" >Couleur</div></div><div class = lowerbox><div class = fixation>+</div></div>","none","100","test","Couleur","#1F45FC","2","color","switch","stay","62","","","",""
"616","89","poldrack-single-stim","278","315781","0.0-199.0","sub-11_2","","2136","0","stim","","<div class = upperbox><div class = ""center-text"" >Couleur</div></div><div class = lowerbox><div class = ""stim-text"" style=color:#1F45FC;>2</div>","89,71","1000","test","Couleur","#1F45FC","2","color","switch","stay","62","true","89","",""
"","","call-function","279","315782","0.0-200.0","sub-11_2","","","","set_stims","","","","","","","","","","","","","","","",""
"-1","-1","poldrack-single-stim","280","316689","0.0-201.0","sub-11_2","","900","0","cue","","<div class = upperbox><div class = ""center-text"" >Couleur</div></div><div class = lowerbox><div class = fixation>+</div></div>","none","900","test","Couleur","orange","8","color","stay","stay","63","","","",""
"539","71","poldrack-single-stim","281","318966","0.0-202.0","sub-11_2","","2272","0","stim","","<div class = upperbox><div class = ""center-text"" >Couleur</div></div><div class = lowerbox><div class = ""stim-text"" style=color:orange;>8</div>","89,71","1000","test","Couleur","orange","8","color","stay","stay","63","true","71","",""
"","","call-function","282","318968","0.0-203.0","sub-11_2","","","","set_stims","","","","","","","","","","","","","","","",""
"-1","-1","poldrack-single-stim","283","319075","0.0-204.0","sub-11_2","","100","0","cue","","<div class = upperbox><div class = ""center-text"" >Amplitude</div></div><div class = lowerbox><div class = fixation>+</div></div>","none","100","test","Amplitude","#1F45FC","4","magnitude","switch","stay","64","","","",""
"907","89","poldrack-single-stim","284","321076","0.0-205.0","sub-11_2","","2000","0","stim","","<div class = upperbox><div class = ""center-text"" >Amplitude</div></div><div class = lowerbox><div class = ""stim-text"" style=color:#1F45FC;>4</div>","89,71","1000","test","Amplitude","#1F45FC","4","magnitude","switch","stay","64","true","89","",""
"","","call-function","285","321078","0.0-206.0","sub-11_2","","","","set_stims","","","","","","","","","","","","","","","",""
"-1","-1","poldrack-single-stim","286","321983","0.0-207.0","sub-11_2","","900","0","cue","","<div class = upperbox><div class = ""center-text"" >Amplitude</div></div><div class = lowerbox><div class = fixation>+</div></div>","none","900","test","Amplitude","orange","6","magnitude","stay","stay","65","","","",""
"571","71","poldrack-single-stim","287","324804","0.0-208.0","sub-11_2","","2816","0","stim","","<div class = upperbox><div class = ""center-text"" >Amplitude</div></div><div class = lowerbox><div class = ""stim-text"" style=color:orange;>6</div>","89,71","1000","test","Amplitude","orange","6","magnitude","stay","stay","65","true","71","",""
"","","call-function","288","324805","0.0-209.0","sub-11_2","","","","set_stims","","","","","","","","","","","","","","","",""
"-1","-1","poldrack-single-stim","289","325711","0.0-210.0","sub-11_2","","900","0","cue","","<div class = upperbox><div class = ""center-text"" >Haut-Bas</div></div><div class = lowerbox><div class = fixation>+</div></div>","none","900","test","Haut-Bas","#1F45FC","7","magnitude","stay","switch","66","","","",""
"650","71","poldrack-single-stim","290","328134","0.0-211.0","sub-11_2","","2408","0","stim","","<div class = upperbox><div class = ""center-text"" >Haut-Bas</div></div><div class = lowerbox><div class = ""stim-text"" style=color:#1F45FC;>7</div>","89,71","1000","test","Haut-Bas","#1F45FC","7","magnitude","stay","switch","66","true","71","",""
"","","call-function","291","328135","0.0-212.0","sub-11_2","","","","set_stims","","","","","","","","","","","","","","","",""
"-1","-1","poldrack-single-stim","292","329042","0.0-213.0","sub-11_2","","900","0","cue","","<div class = upperbox><div class = ""center-text"" >Haut-Bas</div></div><div class = lowerbox><div class = fixation>+</div></div>","none","900","test","Haut-Bas","orange","2","magnitude","stay","stay","67","","","",""
"516","89","poldrack-single-stim","293","331043","0.0-214.0","sub-11_2","","2000","0","stim","","<div class = upperbox><div class = ""center-text"" >Haut-Bas</div></div><div class = lowerbox><div class = ""stim-text"" style=color:orange;>2</div>","89,71","1000","test","Haut-Bas","orange","2","magnitude","stay","stay","67","true","89","",""
"","","call-function","294","331043","0.0-215.0","sub-11_2","","","","set_stims","","","","","","","","","","","","","","","",""
"-1","-1","poldrack-single-stim","295","331950","0.0-216.0","sub-11_2","","900","0","cue","","<div class = upperbox><div class = ""center-text"" >Haut-Bas</div></div><div class = lowerbox><div class = fixation>+</div></div>","none","900","test","Haut-Bas","#1F45FC","6","magnitude","stay","stay","68","","","",""
"602","71","poldrack-single-stim","296","334504","0.0-217.0","sub-11_2","","2544","0","stim","","<div class = upperbox><div class = ""center-text"" >Haut-Bas</div></div><div class = lowerbox><div class = ""stim-text"" style=color:#1F45FC;>6</div>","89,71","1000","test","Haut-Bas","#1F45FC","6","magnitude","stay","stay","68","true","71","",""
"","","call-function","297","334504","0.0-218.0","sub-11_2","","","","set_stims","","","","","","","","","","","","","","","",""
"-1","-1","poldrack-single-stim","298","334612","0.0-219.0","sub-11_2","","100","0","cue","","<div class = upperbox><div class = ""center-text"" >Orange-Bleu</div></div><div class = lowerbox><div class = fixation>+</div></div>","none","100","test","Orange-Bleu","orange","8","color","switch","stay","69","","","",""
"992","71","poldrack-single-stim","299","336752","0.0-220.0","sub-11_2","","2136","0","stim","","<div class = upperbox><div class = ""center-text"" >Orange-Bleu</div></div><div class = lowerbox><div class = ""stim-text"" style=color:orange;>8</div>","89,71","1000","test","Orange-Bleu","orange","8","color","switch","stay","69","true","71","",""
"","","call-function","300","336753","0.0-221.0","sub-11_2","","","","set_stims","","","","","","","","","","","","","","","",""
"-1","-1","poldrack-single-stim","301","337664","0.0-222.0","sub-11_2","","900","0","cue","","<div class = upperbox><div class = ""center-text"" >Haut-Bas</div></div><div class = lowerbox><div class = fixation>+</div></div>","none","900","test","Haut-Bas","#1F45FC","8","magnitude","switch","stay","70","","","",""
"851","71","poldrack-single-stim","302","339675","0.0-223.0","sub-11_2","","2000","0","stim","","<div class = upperbox><div class = ""center-text"" >Haut-Bas</div></div><div class = lowerbox><div class = ""stim-text"" style=color:#1F45FC;>8</div>","89,71","1000","test","Haut-Bas","#1F45FC","8","magnitude","switch","stay","70","true","71","",""
"","","call-function","303","339677","0.0-224.0","sub-11_2","","","","set_stims","","","","","","","","","","","","","","","",""
"-1","-1","poldrack-single-stim","304","339783","0.0-225.0","sub-11_2","","100","0","cue","","<div class = upperbox><div class = ""center-text"" >Haut-Bas</div></div><div class = lowerbox><div class = fixation>+</div></div>","none","100","test","Haut-Bas","#1F45FC","7","magnitude","stay","stay","71","","","",""
"723","71","poldrack-single-stim","305","341788","0.0-226.0","sub-11_2","","2000","0","stim","","<div class = upperbox><div class = ""center-text"" >Haut-Bas</div></div><div class = lowerbox><div class = ""stim-text"" style=color:#1F45FC;>7</div>","89,71","1000","test","Haut-Bas","#1F45FC","7","magnitude","stay","stay","71","true","71","",""
"","","call-function","306","341789","0.0-227.0","sub-11_2","","","","set_stims","","","","","","","","","","","","","","","",""
"-1","-1","poldrack-single-stim","307","341896","0.0-228.0","sub-11_2","","100","0","cue","","<div class = upperbox><div class = ""center-text"" >Amplitude</div></div><div class = lowerbox><div class = fixation>+</div></div>","none","100","test","Amplitude","orange","9","magnitude","stay","switch","72","","","",""
"690","71","poldrack-single-stim","308","344049","0.0-229.0","sub-11_2","","2136","0","stim","","<div class = upperbox><div class = ""center-text"" >Amplitude</div></div><div class = lowerbox><div class = ""stim-text"" style=color:orange;>9</div>","89,71","1000","test","Amplitude","orange","9","magnitude","stay","switch","72","true","71","",""
"","","call-function","309","344050","0.0-230.0","sub-11_2","","","","set_stims","","","","","","","","","","","","","","","",""
"-1","-1","poldrack-single-stim","310","344957","0.0-231.0","sub-11_2","","900","0","cue","","<div class = upperbox><div class = ""center-text"" >Amplitude</div></div><div class = lowerbox><div class = fixation>+</div></div>","none","900","test","Amplitude","orange","3","magnitude","stay","stay","73","","","",""
"846","71","poldrack-single-stim","311","347098","0.0-232.0","sub-11_2","","2136","0","stim","","<div class = upperbox><div class = ""center-text"" >Amplitude</div></div><div class = lowerbox><div class = ""stim-text"" style=color:orange;>3</div>","89,71","1000","test","Amplitude","orange","3","magnitude","stay","stay","73","false","89","",""
"","","call-function","312","347099","0.0-233.0","sub-11_2","","","","set_stims","","","","","","","","","","","","","","","",""
"-1","-1","poldrack-single-stim","313","348008","0.0-234.0","sub-11_2","","900","0","cue","","<div class = upperbox><div class = ""center-text"" >Couleur</div></div><div class = lowerbox><div class = fixation>+</div></div>","none","900","test","Couleur","orange","2","color","switch","stay","74","","","",""
"613","71","poldrack-single-stim","314","350285","0.0-235.0","sub-11_2","","2272","0","stim","","<div class = upperbox><div class = ""center-text"" >Couleur</div></div><div class = lowerbox><div class = ""stim-text"" style=color:orange;>2</div>","89,71","1000","test","Couleur","orange","2","color","switch","stay","74","true","71","",""
"","","call-function","315","350286","0.0-236.0","sub-11_2","","","","set_stims","","","","","","","","","","","","","","","",""
"-1","-1","poldrack-single-stim","316","351191","0.0-237.0","sub-11_2","","900","0","cue","","<div class = upperbox><div class = ""center-text"" >Orange-Bleu</div></div><div class = lowerbox><div class = fixation>+</div></div>","none","900","test","Orange-Bleu","#1F45FC","8","color","stay","switch","75","","","",""
"629","89","poldrack-single-stim","317","354423","0.0-238.0","sub-11_2","","3224","0","stim","","<div class = upperbox><div class = ""center-text"" >Orange-Bleu</div></div><div class = lowerbox><div class = ""stim-text"" style=color:#1F45FC;>8</div>","89,71","1000","test","Orange-Bleu","#1F45FC","8","color","stay","switch","75","true","89","",""
"","","call-function","318","354424","0.0-239.0","sub-11_2","","","","set_stims","","","","","","","","","","","","","","","",""
"-1","-1","poldrack-single-stim","319","354531","0.0-240.0","sub-11_2","","100","0","cue","","<div class = upperbox><div class = ""center-text"" >Couleur</div></div><div class = lowerbox><div class = fixation>+</div></div>","none","100","test","Couleur","#1F45FC","6","color","stay","switch","76","","","",""
"679","89","poldrack-single-stim","320","356533","0.0-241.0","sub-11_2","","2000","0","stim","","<div class = upperbox><div class = ""center-text"" >Couleur</div></div><div class = lowerbox><div class = ""stim-text"" style=color:#1F45FC;>6</div>","89,71","1000","test","Couleur","#1F45FC","6","color","stay","switch","76","true","89","",""
"","","call-function","321","356534","0.0-242.0","sub-11_2","","","","set_stims","","","","","","","","","","","","","","","",""
"-1","-1","poldrack-single-stim","322","357444","0.0-243.0","sub-11_2","","900","0","cue","","<div class = upperbox><div class = ""center-text"" >Haut-Bas</div></div><div class = lowerbox><div class = fixation>+</div></div>","none","900","test","Haut-Bas","orange","4","magnitude","switch","switch","77","","","",""
"654","89","poldrack-single-stim","323","359460","0.0-244.0","sub-11_2","","2000","0","stim","","<div class = upperbox><div class = ""center-text"" >Haut-Bas</div></div><div class = lowerbox><div class = ""stim-text"" style=color:orange;>4</div>","89,71","1000","test","Haut-Bas","orange","4","magnitude","switch","switch","77","true","89","",""
"","","call-function","324","359461","0.0-245.0","sub-11_2","","","","set_stims","","","","","","","","","","","","","","","",""
"-1","-1","poldrack-single-stim","325","359573","0.0-246.0","sub-11_2","","100","0","cue","","<div class = upperbox><div class = ""center-text"" >Orange-Bleu</div></div><div class = lowerbox><div class = fixation>+</div></div>","none","100","test","Orange-Bleu","orange","4","color","switch","switch","78","","","",""
"965","71","poldrack-single-stim","326","361851","0.0-247.0","sub-11_2","","2272","0","stim","","<div class = upperbox><div class = ""center-text"" >Orange-Bleu</div></div><div class = lowerbox><div class = ""stim-text"" style=color:orange;>4</div>","89,71","1000","test","Orange-Bleu","orange","4","color","switch","switch","78","true","71","",""
"","","call-function","327","361852","0.0-248.0","sub-11_2","","","","set_stims","","","","","","","","","","","","","","","",""
"-1","-1","poldrack-single-stim","328","361974","0.0-249.0","sub-11_2","","100","0","cue","","<div class = upperbox><div class = ""center-text"" >Haut-Bas</div></div><div class = lowerbox><div class = fixation>+</div></div>","none","100","test","Haut-Bas","#1F45FC","6","magnitude","switch","switch","79","","","",""
"840","71","poldrack-single-stim","329","364129","0.0-250.0","sub-11_2","","2136","0","stim","","<div class = upperbox><div class = ""center-text"" >Haut-Bas</div></div><div class = lowerbox><div class = ""stim-text"" style=color:#1F45FC;>6</div>","89,71","1000","test","Haut-Bas","#1F45FC","6","magnitude","switch","switch","79","true","71","",""
"-1","-1","poldrack-single-stim","330","374151","0.0-251.0","sub-11_2","","10000","1000","rest_block","","<div class = centerbox><div class = center-text>+</div></div>","none","10000","","","","","","","","","","","",""
"-1","-1","poldrack-single-stim","331","376677","0.0-252.0","sub-11_2","","1500","500","test_start_block","","<div class = centerbox><div class = center-text>Preparez-vous!</p></div>","none","1500","","","","","","","","","","","",""
"-1","-1","poldrack-single-stim","332","377694","0.0-253.0","sub-11_2","","500","0","fixation","","<div class = upperbox><div class = fixation>+</div></div><div class = lowerbox><div class = fixation>+</div></div>","none","500","test","","","","","","","","","","",""
"","","call-function","333","377694","0.0-254.0","sub-11_2","","","","set_stims","","","","","","","","","","","","","","","",""
"-1","-1","poldrack-single-stim","334","377803","0.0-255.0","sub-11_2","","100","0","cue","","<div class = upperbox><div class = ""center-text"" >Orange-Bleu</div></div><div class = lowerbox><div class = fixation>+</div></div>","none","100","test","Orange-Bleu","orange","4","color","stay","stay","0","","","",""
"824","71","poldrack-single-stim","335","379810","0.0-256.0","sub-11_2","","2000","0","stim","","<div class = upperbox><div class = ""center-text"" >Orange-Bleu</div></div><div class = lowerbox><div class = ""stim-text"" style=color:orange;>4</div>","89,71","1000","test","Orange-Bleu","orange","4","color","stay","stay","0","true","71","",""
"","","call-function","336","379811","0.0-257.0","sub-11_2","","","","set_stims","","","","","","","","","","","","","","","",""
"-1","-1","poldrack-single-stim","337","379919","0.0-258.0","sub-11_2","","100","0","cue","","<div class = upperbox><div class = ""center-text"" >Haut-Bas</div></div><div class = lowerbox><div class = fixation>+</div></div>","none","100","test","Haut-Bas","#1F45FC","7","magnitude","switch","stay","1","","","",""
"761","71","poldrack-single-stim","338","381923","0.0-259.0","sub-11_2","","2000","0","stim","","<div class = upperbox><div class = ""center-text"" >Haut-Bas</div></div><div class = lowerbox><div class = ""stim-text"" style=color:#1F45FC;>7</div>","89,71","1000","test","Haut-Bas","#1F45FC","7","magnitude","switch","stay","1","true","71","",""
"","","call-function","339","381924","0.0-260.0","sub-11_2","","","","set_stims","","","","","","","","","","","","","","","",""
"-1","-1","poldrack-single-stim","340","382831","0.0-261.0","sub-11_2","","900","0","cue","","<div class = upperbox><div class = ""center-text"" >Couleur</div></div><div class = lowerbox><div class = fixation>+</div></div>","none","900","test","Couleur","orange","7","color","switch","stay","2","","","",""
"444","71","poldrack-single-stim","341","384836","0.0-262.0","sub-11_2","","2000","0","stim","","<div class = upperbox><div class = ""center-text"" >Couleur</div></div><div class = lowerbox><div class = ""stim-text"" style=color:orange;>7</div>","89,71","1000","test","Couleur","orange","7","color","switch","stay","2","true","71","",""
"","","call-function","342","384836","0.0-263.0","sub-11_2","","","","set_stims","","","","","","","","","","","","","","","",""
"-1","-1","poldrack-single-stim","343","384944","0.0-264.0","sub-11_2","","100","0","cue","","<div class = upperbox><div class = ""center-text"" >Haut-Bas</div></div><div class = lowerbox><div class = fixation>+</div></div>","none","100","test","Haut-Bas","#1F45FC","6","magnitude","switch","stay","3","","","",""
"889","71","poldrack-single-stim","344","387638","0.0-265.0","sub-11_2","","2680","0","stim","","<div class = upperbox><div class = ""center-text"" >Haut-Bas</div></div><div class = lowerbox><div class = ""stim-text"" style=color:#1F45FC;>6</div>","89,71","1000","test","Haut-Bas","#1F45FC","6","magnitude","switch","stay","3","true","71","",""
"","","call-function","345","387640","0.0-266.0","sub-11_2","","","","set_stims","","","","","","","","","","","","","","","",""
"-1","-1","poldrack-single-stim","346","387747","0.0-267.0","sub-11_2","","100","0","cue","","<div class = upperbox><div class = ""center-text"" >Couleur</div></div><div class = lowerbox><div class = fixation>+</div></div>","none","100","test","Couleur","orange","4","color","switch","switch","4","","","",""
"737","71","poldrack-single-stim","347","389762","0.0-268.0","sub-11_2","","2000","0","stim","","<div class = upperbox><div class = ""center-text"" >Couleur</div></div><div class = lowerbox><div class = ""stim-text"" style=color:orange;>4</div>","89,71","1000","test","Couleur","orange","4","color","switch","switch","4","true","71","",""
"","","call-function","348","389763","0.0-269.0","sub-11_2","","","","set_stims","","","","","","","","","","","","","","","",""
"-1","-1","poldrack-single-stim","349","389870","0.0-270.0","sub-11_2","","100","0","cue","","<div class = upperbox><div class = ""center-text"" >Couleur</div></div><div class = lowerbox><div class = fixation>+</div></div>","none","100","test","Couleur","#1F45FC","2","color","stay","stay","5","","","",""
"961","89","poldrack-single-stim","350","392150","0.0-271.0","sub-11_2","","2272","0","stim","","<div class = upperbox><div class = ""center-text"" >Couleur</div></div><div class = lowerbox><div class = ""stim-text"" style=color:#1F45FC;>2</div>","89,71","1000","test","Couleur","#1F45FC","2","color","stay","stay","5","true","89","",""
"","","call-function","351","392150","0.0-272.0","sub-11_2","","","","set_stims","","","","","","","","","","","","","","","",""
"-1","-1","poldrack-single-stim","352","392276","0.0-273.0","sub-11_2","","100","0","cue","","<div class = upperbox><div class = ""center-text"" >Orange-Bleu</div></div><div class = lowerbox><div class = fixation>+</div></div>","none","100","test","Orange-Bleu","#1F45FC","6","color","stay","switch","6","","","",""
"840","89","poldrack-single-stim","353","394288","0.0-274.0","sub-11_2","","2000","0","stim","","<div class = upperbox><div class = ""center-text"" >Orange-Bleu</div></div><div class = lowerbox><div class = ""stim-text"" style=color:#1F45FC;>6</div>","89,71","1000","test","Orange-Bleu","#1F45FC","6","color","stay","switch","6","true","89","",""
"","","call-function","354","394289","0.0-275.0","sub-11_2","","","","set_stims","","","","","","","","","","","","","","","",""
"-1","-1","poldrack-single-stim","355","395197","0.0-276.0","sub-11_2","","900","0","cue","","<div class = upperbox><div class = ""center-text"" >Couleur</div></div><div class = lowerbox><div class = fixation>+</div></div>","none","900","test","Couleur","orange","6","color","stay","switch","7","","","",""
"368","71","poldrack-single-stim","356","397488","0.0-277.0","sub-11_2","","2272","0","stim","","<div class = upperbox><div class = ""center-text"" >Couleur</div></div><div class = lowerbox><div class = ""stim-text"" style=color:orange;>6</div>","89,71","1000","test","Couleur","orange","6","color","stay","switch","7","true","71","",""
"","","call-function","357","397489","0.0-278.0","sub-11_2","","","","set_stims","","","","","","","","","","","","","","","",""
"-1","-1","poldrack-single-stim","358","398397","0.0-279.0","sub-11_2","","900","0","cue","","<div class = upperbox><div class = ""center-text"" >Amplitude</div></div><div class = lowerbox><div class = fixation>+</div></div>","none","900","test","Amplitude","orange","8","magnitude","switch","stay","8","","","",""
"472","71","poldrack-single-stim","359","401356","0.0-280.0","sub-11_2","","2952","0","stim","","<div class = upperbox><div class = ""center-text"" >Amplitude</div></div><div class = lowerbox><div class = ""stim-text"" style=color:orange;>8</div>","89,71","1000","test","Amplitude","orange","8","magnitude","switch","stay","8","true","71","",""
"","","call-function","360","401357","0.0-281.0","sub-11_2","","","","set_stims","","","","","","","","","","","","","","","",""
"-1","-1","poldrack-single-stim","361","402268","0.0-282.0","sub-11_2","","900","0","cue","","<div class = upperbox><div class = ""center-text"" >Couleur</div></div><div class = lowerbox><div class = fixation>+</div></div>","none","900","test","Couleur","orange","6","color","switch","switch","9","","","",""
"477","71","poldrack-single-stim","362","404282","0.0-283.0","sub-11_2","","2000","0","stim","","<div class = upperbox><div class = ""center-text"" >Couleur</div></div><div class = lowerbox><div class = ""stim-text"" style=color:orange;>6</div>","89,71","1000","test","Couleur","orange","6","color","switch","switch","9","true","71","",""
"","","call-function","363","404283","0.0-284.0","sub-11_2","","","","set_stims","","","","","","","","","","","","","","","",""
"-1","-1","poldrack-single-stim","364","404390","0.0-285.0","sub-11_2","","100","0","cue","","<div class = upperbox><div class = ""center-text"" >Amplitude</div></div><div class = lowerbox><div class = fixation>+</div></div>","none","100","test","Amplitude","#1F45FC","7","magnitude","switch","stay","10","","","",""
"749","71","poldrack-single-stim","365","406404","0.0-286.0","sub-11_2","","2000","0","stim","","<div class = upperbox><div class = ""center-text"" >Amplitude</div></div><div class = lowerbox><div class = ""stim-text"" style=color:#1F45FC;>7</div>","89,71","1000","test","Amplitude","#1F45FC","7","magnitude","switch","stay","10","true","71","",""
"","","call-function","366","406406","0.0-287.0","sub-11_2","","","","set_stims","","","","","","","","","","","","","","","",""
"-1","-1","poldrack-single-stim","367","407315","0.0-288.0","sub-11_2","","900","0","cue","","<div class = upperbox><div class = ""center-text"" >Haut-Bas</div></div><div class = lowerbox><div class = fixation>+</div></div>","none","900","test","Haut-Bas","#1F45FC","1","magnitude","stay","switch","11","","","",""
"772","89","poldrack-single-stim","368","409327","0.0-289.0","sub-11_2","","2000","0","stim","","<div class = upperbox><div class = ""center-text"" >Haut-Bas</div></div><div class = lowerbox><div class = ""stim-text"" style=color:#1F45FC;>1</div>","89,71","1000","test","Haut-Bas","#1F45FC","1","magnitude","stay","switch","11","true","89","",""
"","","call-function","369","409328","0.0-290.0","sub-11_2","","","","set_stims","","","","","","","","","","","","","","","",""
"-1","-1","poldrack-single-stim","370","409435","0.0-291.0","sub-11_2","","100","0","cue","","<div class = upperbox><div class = ""center-text"" >Orange-Bleu</div></div><div class = lowerbox><div class = fixation>+</div></div>","none","100","test","Orange-Bleu","#1F45FC","1","color","switch","switch","12","","","",""
"939","89","poldrack-single-stim","371","411438","0.0-292.0","sub-11_2","","2000","0","stim","","<div class = upperbox><div class = ""center-text"" >Orange-Bleu</div></div><div class = lowerbox><div class = ""stim-text"" style=color:#1F45FC;>1</div>","89,71","1000","test","Orange-Bleu","#1F45FC","1","color","switch","switch","12","true","89","",""
"","","call-function","372","411439","0.0-293.0","sub-11_2","","","","set_stims","","","","","","","","","","","","","","","",""
"-1","-1","poldrack-single-stim","373","411543","0.0-294.0","sub-11_2","","100","0","cue","","<div class = upperbox><div class = ""center-text"" >Haut-Bas</div></div><div class = lowerbox><div class = fixation>+</div></div>","none","100","test","Haut-Bas","#1F45FC","7","magnitude","switch","stay","13","","","",""
"868","71","poldrack-single-stim","374","413697","0.0-295.0","sub-11_2","","2136","0","stim","","<div class = upperbox><div class = ""center-text"" >Haut-Bas</div></div><div class = lowerbox><div class = ""stim-text"" style=color:#1F45FC;>7</div>","89,71","1000","test","Haut-Bas","#1F45FC","7","magnitude","switch","stay","13","true","71","",""
"","","call-function","375","413698","0.0-296.0","sub-11_2","","","","set_stims","","","","","","","","","","","","","","","",""
"-1","-1","poldrack-single-stim","376","413805","0.0-297.0","sub-11_2","","100","0","cue","","<div class = upperbox><div class = ""center-text"" >Amplitude</div></div><div class = lowerbox><div class = fixation>+</div></div>","none","100","test","Amplitude","orange","4","magnitude","stay","switch","14","","","",""
"941","89","poldrack-single-stim","377","415813","0.0-298.0","sub-11_2","","2000","0","stim","","<div class = upperbox><div class = ""center-text"" >Amplitude</div></div><div class = lowerbox><div class = ""stim-text"" style=color:orange;>4</div>","89,71","1000","test","Amplitude","orange","4","magnitude","stay","switch","14","true","89","",""
"","","call-function","378","415813","0.0-299.0","sub-11_2","","","","set_stims","","","","","","","","","","","","","","","",""
"-1","-1","poldrack-single-stim","379","416724","0.0-300.0","sub-11_2","","900","0","cue","","<div class = upperbox><div class = ""center-text"" >Orange-Bleu</div></div><div class = lowerbox><div class = fixation>+</div></div>","none","900","test","Orange-Bleu","orange","4","color","switch","stay","15","","","",""
"502","71","poldrack-single-stim","380","418739","0.0-301.0","sub-11_2","","2000","0","stim","","<div class = upperbox><div class = ""center-text"" >Orange-Bleu</div></div><div class = lowerbox><div class = ""stim-text"" style=color:orange;>4</div>","89,71","1000","test","Orange-Bleu","orange","4","color","switch","stay","15","true","71","",""
"","","call-function","381","418740","0.0-302.0","sub-11_2","","","","set_stims","","","","","","","","","","","","","","","",""
"-1","-1","poldrack-single-stim","382","419645","0.0-303.0","sub-11_2","","900","0","cue","","<div class = upperbox><div class = ""center-text"" >Couleur</div></div><div class = lowerbox><div class = fixation>+</div></div>","none","900","test","Couleur","#1F45FC","9","color","stay","switch","16","","","",""
"725","89","poldrack-single-stim","383","421663","0.0-304.0","sub-11_2","","2000","0","stim","","<div class = upperbox><div class = ""center-text"" >Couleur</div></div><div class = lowerbox><div class = ""stim-text"" style=color:#1F45FC;>9</div>","89,71","1000","test","Couleur","#1F45FC","9","color","stay","switch","16","true","89","",""
"","","call-function","384","421664","0.0-305.0","sub-11_2","","","","set_stims","","","","","","","","","","","","","","","",""
"-1","-1","poldrack-single-stim","385","421770","0.0-306.0","sub-11_2","","100","0","cue","","<div class = upperbox><div class = ""center-text"" >Haut-Bas</div></div><div class = lowerbox><div class = fixation>+</div></div>","none","100","test","Haut-Bas","orange","2","magnitude","switch","switch","17","","","",""
"805","89","poldrack-single-stim","386","424049","0.0-307.0","sub-11_2","","2272","0","stim","","<div class = upperbox><div class = ""center-text"" >Haut-Bas</div></div><div class = lowerbox><div class = ""stim-text"" style=color:orange;>2</div>","89,71","1000","test","Haut-Bas","orange","2","magnitude","switch","switch","17","true","89","",""
