"rt","key_press","trial_type","trial_index","time_elapsed","internal_node_id","subject","text","block_duration","timing_post_trial","trial_id","stimulus","possible_responses","stim_duration","exp_stage","small_amount","large_amount","later_delay","choice","exp_id","bonus"
"2135","13","text","0","2137","0.0-0.0","sub-09_sess-02_2","","","","","","","","","","","","","",""
"657","89","poldrack-text","1","3812","0.0-1.0","sub-09_sess-02_2","<div class = centerbox><div style = 'font-size: 50px' class = center-text>Veuillez appuyer avec votre index</p></div>","657","500","fmri_response_test","","","","","","","","","",""
"541","71","poldrack-text","2","4874","0.0-2.0","sub-09_sess-02_2","<div class = centerbox><div style = 'font-size: 50px' class = center-text>Veuillez appuyer avec votre majeur</p></div>","541","500","fmri_response_test","","","","","","","","","",""
"13783","32","poldrack-single-stim","3","19176","0.0-3.0","sub-09_sess-02_2","","13783","500","instructions","<div class = centerbox><div class = center-text><font size=""+3"">Choisissez entre <strong>20€ aujourd'hui</strong> ou l'option presentee.<br><strong>Index:</strong> Accepter l'option a l'ecran (rejeter 20€ aujourd'hui). <br><strong>Majeur:</strong> Rejeter l'option a l'ecran (accept 20€ today)<br>Nous commencerons par un essai d'entrainement.</font></div></div>","32","13783","","","","","","",""
"1678","89","poldrack-single-stim","4","21371","0.0-4.0","sub-09_sess-02_2","","1678","1000","stim","<div class = dd-stim><div class = amtbox style = ""color:white"">53.75€</div><br><br><div class = delbox style = ""color:white"">34 days</div></div>","89,71","1678","practice","","","","","",""
"5325","32","poldrack-text","5","27715","0.0-5.0","sub-09_sess-02_2","<div class = centerbox><div  class = center-text>Scanner Setup</div></div>","5325","0","fmri_scanner_wait","","","","","","","","","",""
"53930","84","poldrack-text","6","81647","0.0-6.0","sub-09_sess-02_2","<div class = centerbox><div style='color:red'; class = center-text>+</div></div>","53930","0","fmri_trigger_wait","","","","","","","","","",""
"-1","-1","poldrack-single-stim","7","82664","0.0-7.0","sub-09_sess-02_2","","1000","0","fmri_buffer","","none","1000","","","","","","",""
"-1","-1","poldrack-single-stim","8","84181","0.0-8.0","sub-09_sess-02_2","","1500","500","test_start_block","<div class = centerbox><div class = center-text>Preparez-vous!</p></div>","none","1500","","","","","","",""
"1230","71","poldrack-single-stim","9","90020","0.0-9.0","sub-09_sess-02_2","","5316","0","","<div class = dd-stim><div class = amtbox style = ""color:white"">31€</div><br><br><div class = delbox style = ""color:white"">76 jours</div></div>","89,71","4000","","20","31","76","smaller_sooner","",""
"1530","89","poldrack-single-stim","10","94601","0.0-10.0","sub-09_sess-02_2","","4568","0","","<div class = dd-stim><div class = amtbox style = ""color:white"">43€</div><br><br><div class = delbox style = ""color:white"">19 jours</div></div>","89,71","4000","","20","43","19","larger_later","",""
"1490","89","poldrack-single-stim","11","99240","0.0-11.0","sub-09_sess-02_2","","4636","0","","<div class = dd-stim><div class = amtbox style = ""color:white"">60€</div><br><br><div class = delbox style = ""color:white"">124 jours</div></div>","89,71","4000","","20","60","124","larger_later","",""
"1214","71","poldrack-single-stim","12","104160","0.0-12.0","sub-09_sess-02_2","","4908","0","","<div class = dd-stim><div class = amtbox style = ""color:white"">27€</div><br><br><div class = delbox style = ""color:white"">142 jours</div></div>","89,71","4000","","20","27","142","smaller_sooner","",""
"775","71","poldrack-single-stim","13","108670","0.0-13.0","sub-09_sess-02_2","","4500","0","","<div class = dd-stim><div class = amtbox style = ""color:white"">25€</div><br><br><div class = delbox style = ""color:white"">70 jours</div></div>","89,71","4000","","20","25","70","smaller_sooner","",""
"1171","89","poldrack-single-stim","14","113652","0.0-14.0","sub-09_sess-02_2","","4976","0","","<div class = dd-stim><div class = amtbox style = ""color:white"">44€</div><br><br><div class = delbox style = ""color:white"">92 jours</div></div>","89,71","4000","","20","44","92","larger_later","",""
"1737","89","poldrack-single-stim","15","118570","0.0-15.0","sub-09_sess-02_2","","4908","0","","<div class = dd-stim><div class = amtbox style = ""color:white"">41€</div><br><br><div class = delbox style = ""color:white"">27 jours</div></div>","89,71","4000","","20","41","27","larger_later","",""
"983","89","poldrack-single-stim","16","123140","0.0-16.0","sub-09_sess-02_2","","4568","0","","<div class = dd-stim><div class = amtbox style = ""color:white"">64€</div><br><br><div class = delbox style = ""color:white"">89 jours</div></div>","89,71","4000","","20","64","89","larger_later","",""
"1233","89","poldrack-single-stim","17","127650","0.0-17.0","sub-09_sess-02_2","","4500","0","","<div class = dd-stim><div class = amtbox style = ""color:white"">78€</div><br><br><div class = delbox style = ""color:white"">108 jours</div></div>","89,71","4000","","20","78","108","larger_later","",""
"801","89","poldrack-single-stim","18","133870","0.0-18.0","sub-09_sess-02_2","","6200","0","","<div class = dd-stim><div class = amtbox style = ""color:white"">80€</div><br><br><div class = delbox style = ""color:white"">145 jours</div></div>","89,71","4000","","20","80","145","larger_later","",""
"1529","71","poldrack-single-stim","19","138579","0.0-19.0","sub-09_sess-02_2","","4704","0","","<div class = dd-stim><div class = amtbox style = ""color:white"">41€</div><br><br><div class = delbox style = ""color:white"">174 jours</div></div>","89,71","4000","","20","41","174","smaller_sooner","",""
"1287","71","poldrack-single-stim","20","143629","0.0-20.0","sub-09_sess-02_2","","5044","0","","<div class = dd-stim><div class = amtbox style = ""color:white"">42€</div><br><br><div class = delbox style = ""color:white"">145 jours</div></div>","89,71","4000","","20","42","145","smaller_sooner","",""
"701","71","poldrack-single-stim","21","148690","0.0-21.0","sub-09_sess-02_2","","5044","0","","<div class = dd-stim><div class = amtbox style = ""color:white"">36€</div><br><br><div class = delbox style = ""color:white"">114 jours</div></div>","89,71","4000","","20","36","114","smaller_sooner","",""
"1272","89","poldrack-single-stim","22","153890","0.0-22.0","sub-09_sess-02_2","","5180","0","","<div class = dd-stim><div class = amtbox style = ""color:white"">58€</div><br><br><div class = delbox style = ""color:white"">55 jours</div></div>","89,71","4000","","20","58","55","larger_later","",""
"1189","89","poldrack-single-stim","23","158880","0.0-23.0","sub-09_sess-02_2","","4976","0","","<div class = dd-stim><div class = amtbox style = ""color:white"">81€</div><br><br><div class = delbox style = ""color:white"">58 jours</div></div>","89,71","4000","","20","81","58","larger_later","",""
"796","71","poldrack-single-stim","24","163661","0.0-24.0","sub-09_sess-02_2","","4772","0","","<div class = dd-stim><div class = amtbox style = ""color:white"">32€</div><br><br><div class = delbox style = ""color:white"">111 jours</div></div>","89,71","4000","","20","32","111","smaller_sooner","",""
"917","71","poldrack-single-stim","25","168440","0.0-25.0","sub-09_sess-02_2","","4772","0","","<div class = dd-stim><div class = amtbox style = ""color:white"">25€</div><br><br><div class = delbox style = ""color:white"">141 jours</div></div>","89,71","4000","","20","25","141","smaller_sooner","",""
"1145","89","poldrack-single-stim","26","173640","0.0-26.0","sub-09_sess-02_2","","5180","0","","<div class = dd-stim><div class = amtbox style = ""color:white"">67€</div><br><br><div class = delbox style = ""color:white"">23 jours</div></div>","89,71","4000","","20","67","23","larger_later","",""
"1721","89","poldrack-single-stim","27","178840","0.0-27.0","sub-09_sess-02_2","","5180","0","","<div class = dd-stim><div class = amtbox style = ""color:white"">77€</div><br><br><div class = delbox style = ""color:white"">161 jours</div></div>","89,71","4000","","20","77","161","larger_later","",""
"1599","71","poldrack-single-stim","28","184100","0.0-28.0","sub-09_sess-02_2","","5248","0","","<div class = dd-stim><div class = amtbox style = ""color:white"">55€</div><br><br><div class = delbox style = ""color:white"">163 jours</div></div>","89,71","4000","","20","55","163","smaller_sooner","",""
"1405","71","poldrack-single-stim","29","188681","0.0-29.0","sub-09_sess-02_2","","4568","0","","<div class = dd-stim><div class = amtbox style = ""color:white"">40€</div><br><br><div class = delbox style = ""color:white"">159 jours</div></div>","89,71","4000","","20","40","159","smaller_sooner","",""
"1396","89","poldrack-single-stim","30","193190","0.0-30.0","sub-09_sess-02_2","","4500","0","","<div class = dd-stim><div class = amtbox style = ""color:white"">76€</div><br><br><div class = delbox style = ""color:white"">161 jours</div></div>","89,71","4000","","20","76","161","larger_later","",""
"1953","71","poldrack-single-stim","31","198100","0.0-31.0","sub-09_sess-02_2","","4908","0","","<div class = dd-stim><div class = amtbox style = ""color:white"">48€</div><br><br><div class = delbox style = ""color:white"">128 jours</div></div>","89,71","4000","","20","48","128","smaller_sooner","",""
"805","71","poldrack-single-stim","32","202680","0.0-32.0","sub-09_sess-02_2","","4568","0","","<div class = dd-stim><div class = amtbox style = ""color:white"">39€</div><br><br><div class = delbox style = ""color:white"">95 jours</div></div>","89,71","4000","","20","39","95","smaller_sooner","",""
"1390","89","poldrack-single-stim","33","208900","0.0-33.0","sub-09_sess-02_2","","6200","0","","<div class = dd-stim><div class = amtbox style = ""color:white"">83€</div><br><br><div class = delbox style = ""color:white"">105 jours</div></div>","89,71","4000","","20","83","105","larger_later","",""
"1417","89","poldrack-single-stim","34","213820","0.0-34.0","sub-09_sess-02_2","","4908","0","","<div class = dd-stim><div class = amtbox style = ""color:white"">67€</div><br><br><div class = delbox style = ""color:white"">41 jours</div></div>","89,71","4000","","20","67","41","larger_later","",""
"1221","71","poldrack-single-stim","35","219090","0.0-35.0","sub-09_sess-02_2","","5248","0","","<div class = dd-stim><div class = amtbox style = ""color:white"">56€</div><br><br><div class = delbox style = ""color:white"">172 jours</div></div>","89,71","4000","","20","56","172","smaller_sooner","",""
"993","71","poldrack-single-stim","36","224150","0.0-36.0","sub-09_sess-02_2","","5044","0","","<div class = dd-stim><div class = amtbox style = ""color:white"">28€</div><br><br><div class = delbox style = ""color:white"">123 jours</div></div>","89,71","4000","","20","28","123","smaller_sooner","",""
"949","71","poldrack-single-stim","37","228789","0.0-37.0","sub-09_sess-02_2","","4636","0","","<div class = dd-stim><div class = amtbox style = ""color:white"">50€</div><br><br><div class = delbox style = ""color:white"">129 jours</div></div>","89,71","4000","","20","50","129","smaller_sooner","",""
"573","71","poldrack-single-stim","38","233500","0.0-38.0","sub-09_sess-02_2","","4704","0","","<div class = dd-stim><div class = amtbox style = ""color:white"">23€</div><br><br><div class = delbox style = ""color:white"">61 jours</div></div>","89,71","4000","","20","23","61","smaller_sooner","",""
"1496","89","poldrack-single-stim","39","238140","0.0-39.0","sub-09_sess-02_2","","4636","0","","<div class = dd-stim><div class = amtbox style = ""color:white"">79€</div><br><br><div class = delbox style = ""color:white"">92 jours</div></div>","89,71","4000","","20","79","92","larger_later","",""
"2432","71","poldrack-single-stim","40","242720","0.0-40.0","sub-09_sess-02_2","","4568","0","","<div class = dd-stim><div class = amtbox style = ""color:white"">61€</div><br><br><div class = delbox style = ""color:white"">141 jours</div></div>","89,71","4000","","20","61","141","smaller_sooner","",""
"917","71","poldrack-single-stim","41","247301","0.0-41.0","sub-09_sess-02_2","","4568","0","","<div class = dd-stim><div class = amtbox style = ""color:white"">43€</div><br><br><div class = delbox style = ""color:white"">38 jours</div></div>","89,71","4000","","20","43","38","smaller_sooner","",""
"1817","89","poldrack-single-stim","42","252221","0.0-42.0","sub-09_sess-02_2","","4908","0","","<div class = dd-stim><div class = amtbox style = ""color:white"">66€</div><br><br><div class = delbox style = ""color:white"">145 jours</div></div>","89,71","4000","","20","66","145","larger_later","",""
"1516","89","poldrack-single-stim","43","257081","0.0-43.0","sub-09_sess-02_2","","4840","0","","<div class = dd-stim><div class = amtbox style = ""color:white"">30€</div><br><br><div class = delbox style = ""color:white"">23 jours</div></div>","89,71","4000","","20","30","23","larger_later","",""
"1697","71","poldrack-single-stim","44","262340","0.0-44.0","sub-09_sess-02_2","","5248","0","","<div class = dd-stim><div class = amtbox style = ""color:white"">32€</div><br><br><div class = delbox style = ""color:white"">57 jours</div></div>","89,71","4000","","20","32","57","smaller_sooner","",""
"1645","71","poldrack-single-stim","45","267130","0.0-45.0","sub-09_sess-02_2","","4772","0","","<div class = dd-stim><div class = amtbox style = ""color:white"">27€</div><br><br><div class = delbox style = ""color:white"">91 jours</div></div>","89,71","4000","","20","27","91","smaller_sooner","",""
"2412","71","poldrack-single-stim","46","273140","0.0-46.0","sub-09_sess-02_2","","5996","0","","<div class = dd-stim><div class = amtbox style = ""color:white"">43€</div><br><br><div class = delbox style = ""color:white"">120 jours</div></div>","89,71","4000","","20","43","120","smaller_sooner","",""
"1082","89","poldrack-single-stim","47","278750","0.0-47.0","sub-09_sess-02_2","","5588","0","","<div class = dd-stim><div class = amtbox style = ""color:white"">75€</div><br><br><div class = delbox style = ""color:white"">60 jours</div></div>","89,71","4000","","20","75","60","larger_later","",""
"1055","71","poldrack-single-stim","48","283330","0.0-48.0","sub-09_sess-02_2","","4568","0","","<div class = dd-stim><div class = amtbox style = ""color:white"">34€</div><br><br><div class = delbox style = ""color:white"">176 jours</div></div>","89,71","4000","","20","34","176","smaller_sooner","",""
"633","71","poldrack-single-stim","49","288461","0.0-49.0","sub-09_sess-02_2","","5112","0","","<div class = dd-stim><div class = amtbox style = ""color:white"">24€</div><br><br><div class = delbox style = ""color:white"">38 jours</div></div>","89,71","4000","","20","24","38","smaller_sooner","",""
"1141","89","poldrack-single-stim","50","294119","0.0-50.0","sub-09_sess-02_2","","5656","0","","<div class = dd-stim><div class = amtbox style = ""color:white"">82€</div><br><br><div class = delbox style = ""color:white"">74 jours</div></div>","89,71","4000","","20","82","74","larger_later","",""
"1405","89","poldrack-single-stim","51","298691","0.0-51.0","sub-09_sess-02_2","","4568","0","","<div class = dd-stim><div class = amtbox style = ""color:white"">58€</div><br><br><div class = delbox style = ""color:white"">53 jours</div></div>","89,71","4000","","20","58","53","larger_later","",""
"1472","89","poldrack-single-stim","52","303480","0.0-52.0","sub-09_sess-02_2","","4772","0","","<div class = dd-stim><div class = amtbox style = ""color:white"">54€</div><br><br><div class = delbox style = ""color:white"">23 jours</div></div>","89,71","4000","","20","54","23","larger_later","",""
"1950","71","poldrack-single-stim","53","308539","0.0-53.0","sub-09_sess-02_2","","5044","0","","<div class = dd-stim><div class = amtbox style = ""color:white"">41€</div><br><br><div class = delbox style = ""color:white"">55 jours</div></div>","89,71","4000","","20","41","55","smaller_sooner","",""
"2370","89","poldrack-single-stim","54","313400","0.0-54.0","sub-09_sess-02_2","","4840","0","","<div class = dd-stim><div class = amtbox style = ""color:white"">77€</div><br><br><div class = delbox style = ""color:white"">142 jours</div></div>","89,71","4000","","20","77","142","larger_later","",""
"886","71","poldrack-single-stim","55","318600","0.0-55.0","sub-09_sess-02_2","","5180","0","","<div class = dd-stim><div class = amtbox style = ""color:white"">25€</div><br><br><div class = delbox style = ""color:white"">108 jours</div></div>","89,71","4000","","20","25","108","smaller_sooner","",""
"1424","71","poldrack-single-stim","56","323649","0.0-56.0","sub-09_sess-02_2","","5044","0","","<div class = dd-stim><div class = amtbox style = ""color:white"">33€</div><br><br><div class = delbox style = ""color:white"">163 jours</div></div>","89,71","4000","","20","33","163","smaller_sooner","",""
"1918","71","poldrack-single-stim","57","328630","0.0-57.0","sub-09_sess-02_2","","4976","0","","<div class = dd-stim><div class = amtbox style = ""color:white"">29€</div><br><br><div class = delbox style = ""color:white"">75 jours</div></div>","89,71","4000","","20","29","75","smaller_sooner","",""
"2274","71","poldrack-single-stim","58","333620","0.0-58.0","sub-09_sess-02_2","","4976","0","","<div class = dd-stim><div class = amtbox style = ""color:white"">45€</div><br><br><div class = delbox style = ""color:white"">157 jours</div></div>","89,71","4000","","20","45","157","smaller_sooner","",""
"893","71","poldrack-single-stim","59","338950","0.0-59.0","sub-09_sess-02_2","","5316","0","","<div class = dd-stim><div class = amtbox style = ""color:white"">31€</div><br><br><div class = delbox style = ""color:white"">74 jours</div></div>","89,71","4000","","20","31","74","smaller_sooner","",""
"866","89","poldrack-single-stim","60","343470","0.0-60.0","sub-09_sess-02_2","","4500","0","","<div class = dd-stim><div class = amtbox style = ""color:white"">80€</div><br><br><div class = delbox style = ""color:white"">39 jours</div></div>","89,71","4000","","20","80","39","larger_later","",""
"877","71","poldrack-single-stim","61","348530","0.0-61.0","sub-09_sess-02_2","","5044","0","","<div class = dd-stim><div class = amtbox style = ""color:white"">22€</div><br><br><div class = delbox style = ""color:white"">21 jours</div></div>","89,71","4000","","20","22","21","smaller_sooner","",""
"1974","89","poldrack-single-stim","62","353240","0.0-62.0","sub-09_sess-02_2","","4704","0","","<div class = dd-stim><div class = amtbox style = ""color:white"">52€</div><br><br><div class = delbox style = ""color:white"">139 jours</div></div>","89,71","4000","","20","52","139","larger_later","",""
"1675","89","poldrack-single-stim","63","358100","0.0-63.0","sub-09_sess-02_2","","4840","0","","<div class = dd-stim><div class = amtbox style = ""color:white"">54€</div><br><br><div class = delbox style = ""color:white"">126 jours</div></div>","89,71","4000","","20","54","126","larger_later","",""
"891","71","poldrack-single-stim","64","364930","0.0-64.0","sub-09_sess-02_2","","6744","0","","<div class = dd-stim><div class = amtbox style = ""color:white"">23€</div><br><br><div class = delbox style = ""color:white"">176 jours</div></div>","89,71","4000","","20","23","176","smaller_sooner","",""
"965","71","poldrack-single-stim","65","369451","0.0-65.0","sub-09_sess-02_2","","4500","0","","<div class = dd-stim><div class = amtbox style = ""color:white"">24€</div><br><br><div class = delbox style = ""color:white"">87 jours</div></div>","89,71","4000","","20","24","87","smaller_sooner","",""
"1133","71","poldrack-single-stim","66","374030","0.0-66.0","sub-09_sess-02_2","","4568","0","","<div class = dd-stim><div class = amtbox style = ""color:white"">36€</div><br><br><div class = delbox style = ""color:white"">140 jours</div></div>","89,71","4000","","20","36","140","smaller_sooner","",""
"891","71","poldrack-single-stim","67","378750","0.0-67.0","sub-09_sess-02_2","","4704","0","","<div class = dd-stim><div class = amtbox style = ""color:white"">35€</div><br><br><div class = delbox style = ""color:white"">171 jours</div></div>","89,71","4000","","20","35","171","smaller_sooner","",""
"837","71","poldrack-single-stim","68","383670","0.0-68.0","sub-09_sess-02_2","","4908","0","","<div class = dd-stim><div class = amtbox style = ""color:white"">34€</div><br><br><div class = delbox style = ""color:white"">43 jours</div></div>","89,71","4000","","20","34","43","smaller_sooner","",""
"1540","89","poldrack-single-stim","69","388250","0.0-69.0","sub-09_sess-02_2","","4568","0","","<div class = dd-stim><div class = amtbox style = ""color:white"">74€</div><br><br><div class = delbox style = ""color:white"">121 jours</div></div>","89,71","4000","","20","74","121","larger_later","",""
"-1","-1","poldrack-single-stim","70","395761","0.0-70.0","sub-09_sess-02_2","","7500","1000","rest_block","<div class = centerbox><div class = center-text>+</div></div>","none","7500","","","","","","",""
"1009","71","poldrack-single-stim","71","401561","0.0-71.0","sub-09_sess-02_2","","4772","0","","<div class = dd-stim><div class = amtbox style = ""color:white"">45€</div><br><br><div class = delbox style = ""color:white"">107 jours</div></div>","89,71","4000","","20","45","107","smaller_sooner","",""
"1298","89","poldrack-single-stim","72","406209","0.0-72.0","sub-09_sess-02_2","","4636","0","","<div class = dd-stim><div class = amtbox style = ""color:white"">77€</div><br><br><div class = delbox style = ""color:white"">24 jours</div></div>","89,71","4000","","20","77","24","larger_later","",""
"1212","71","poldrack-single-stim","73","410791","0.0-73.0","sub-09_sess-02_2","","4568","0","","<div class = dd-stim><div class = amtbox style = ""color:white"">39€</div><br><br><div class = delbox style = ""color:white"">161 jours</div></div>","89,71","4000","","20","39","161","smaller_sooner","",""
"1254","89","poldrack-single-stim","74","416249","0.0-74.0","sub-09_sess-02_2","","5452","0","","<div class = dd-stim><div class = amtbox style = ""color:white"">62€</div><br><br><div class = delbox style = ""color:white"">180 jours</div></div>","89,71","4000","","20","62","180","larger_later","",""
"1074","71","poldrack-single-stim","75","421640","0.0-75.0","sub-09_sess-02_2","","5384","0","","<div class = dd-stim><div class = amtbox style = ""color:white"">24€</div><br><br><div class = delbox style = ""color:white"">139 jours</div></div>","89,71","4000","","20","24","139","smaller_sooner","",""
"1636","89","poldrack-single-stim","76","426211","0.0-76.0","sub-09_sess-02_2","","4568","0","","<div class = dd-stim><div class = amtbox style = ""color:white"">58€</div><br><br><div class = delbox style = ""color:white"">72 jours</div></div>","89,71","4000","","20","58","72","larger_later","",""
"2262","89","poldrack-single-stim","77","432500","0.0-77.0","sub-09_sess-02_2","","6268","0","","<div class = dd-stim><div class = amtbox style = ""color:white"">56€</div><br><br><div class = delbox style = ""color:white"">93 jours</div></div>","89,71","4000","","20","56","93","larger_later","",""
"2168","89","poldrack-single-stim","78","438030","0.0-78.0","sub-09_sess-02_2","","5520","0","","<div class = dd-stim><div class = amtbox style = ""color:white"">45€</div><br><br><div class = delbox style = ""color:white"">26 jours</div></div>","89,71","4000","","20","45","26","larger_later","",""
"789","71","poldrack-single-stim","79","442609","0.0-79.0","sub-09_sess-02_2","","4568","0","","<div class = dd-stim><div class = amtbox style = ""color:white"">23€</div><br><br><div class = delbox style = ""color:white"">42 jours</div></div>","89,71","4000","","20","23","42","smaller_sooner","",""
"1356","89","poldrack-single-stim","80","447260","0.0-80.0","sub-09_sess-02_2","","4636","0","","<div class = dd-stim><div class = amtbox style = ""color:white"">50€</div><br><br><div class = delbox style = ""color:white"">41 jours</div></div>","89,71","4000","","20","50","41","larger_later","",""
"716","71","poldrack-single-stim","81","451901","0.0-81.0","sub-09_sess-02_2","","4636","0","","<div class = dd-stim><div class = amtbox style = ""color:white"">25€</div><br><br><div class = delbox style = ""color:white"">176 jours</div></div>","89,71","4000","","20","25","176","smaller_sooner","",""
"1091","89","poldrack-single-stim","82","457021","0.0-82.0","sub-09_sess-02_2","","5112","0","","<div class = dd-stim><div class = amtbox style = ""color:white"">54€</div><br><br><div class = delbox style = ""color:white"">22 jours</div></div>","89,71","4000","","20","54","22","larger_later","",""
"1021","71","poldrack-single-stim","83","462349","0.0-83.0","sub-09_sess-02_2","","5316","0","","<div class = dd-stim><div class = amtbox style = ""color:white"">29€</div><br><br><div class = delbox style = ""color:white"">44 jours</div></div>","89,71","4000","","20","29","44","smaller_sooner","",""
"869","71","poldrack-single-stim","84","466929","0.0-84.0","sub-09_sess-02_2","","4568","0","","<div class = dd-stim><div class = amtbox style = ""color:white"">24€</div><br><br><div class = delbox style = ""color:white"">89 jours</div></div>","89,71","4000","","20","24","89","smaller_sooner","",""
"635","71","poldrack-single-stim","85","471500","0.0-85.0","sub-09_sess-02_2","","4568","0","","<div class = dd-stim><div class = amtbox style = ""color:white"">23€</div><br><br><div class = delbox style = ""color:white"">77 jours</div></div>","89,71","4000","","20","23","77","smaller_sooner","",""
"1188","71","poldrack-single-stim","86","476081","0.0-86.0","sub-09_sess-02_2","","4568","0","","<div class = dd-stim><div class = amtbox style = ""color:white"">27€</div><br><br><div class = delbox style = ""color:white"">130 jours</div></div>","89,71","4000","","20","27","130","smaller_sooner","",""
"670","71","poldrack-single-stim","87","480937","0.0-87.0","sub-09_sess-02_2","","4840","0","","<div class = dd-stim><div class = amtbox style = ""color:white"">23€</div><br><br><div class = delbox style = ""color:white"">134 jours</div></div>","89,71","4000","","20","23","134","smaller_sooner","",""
"1450","89","poldrack-single-stim","88","485439","0.0-88.0","sub-09_sess-02_2","","4500","0","","<div class = dd-stim><div class = amtbox style = ""color:white"">55€</div><br><br><div class = delbox style = ""color:white"">107 jours</div></div>","89,71","4000","","20","55","107","larger_later","",""
"1614","71","poldrack-single-stim","89","491099","0.0-89.0","sub-09_sess-02_2","","5656","0","","<div class = dd-stim><div class = amtbox style = ""color:white"">44€</div><br><br><div class = delbox style = ""color:white"">143 jours</div></div>","89,71","4000","","20","44","143","smaller_sooner","",""
"688","71","poldrack-single-stim","90","496030","0.0-90.0","sub-09_sess-02_2","","4908","0","","<div class = dd-stim><div class = amtbox style = ""color:white"">23€</div><br><br><div class = delbox style = ""color:white"">110 jours</div></div>","89,71","4000","","20","23","110","smaller_sooner","",""
"1144","89","poldrack-single-stim","91","500680","0.0-91.0","sub-09_sess-02_2","","4636","0","","<div class = dd-stim><div class = amtbox style = ""color:white"">65€</div><br><br><div class = delbox style = ""color:white"">156 jours</div></div>","89,71","4000","","20","65","156","larger_later","",""
"642","71","poldrack-single-stim","92","505204","0.0-92.0","sub-09_sess-02_2","","4500","0","","<div class = dd-stim><div class = amtbox style = ""color:white"">22€</div><br><br><div class = delbox style = ""color:white"">27 jours</div></div>","89,71","4000","","20","22","27","smaller_sooner","",""
"948","89","poldrack-single-stim","93","509720","0.0-93.0","sub-09_sess-02_2","","4500","0","","<div class = dd-stim><div class = amtbox style = ""color:white"">50€</div><br><br><div class = delbox style = ""color:white"">59 jours</div></div>","89,71","4000","","20","50","59","larger_later","",""
"1588","89","poldrack-single-stim","94","514850","0.0-94.0","sub-09_sess-02_2","","5112","0","","<div class = dd-stim><div class = amtbox style = ""color:white"">85€</div><br><br><div class = delbox style = ""color:white"">129 jours</div></div>","89,71","4000","","20","85","129","larger_later","",""
"1280","89","poldrack-single-stim","95","520999","0.0-95.0","sub-09_sess-02_2","","6132","0","","<div class = dd-stim><div class = amtbox style = ""color:white"">66€</div><br><br><div class = delbox style = ""color:white"">58 jours</div></div>","89,71","4000","","20","66","58","larger_later","",""
"1383","71","poldrack-single-stim","96","525851","0.0-96.0","sub-09_sess-02_2","","4840","0","","<div class = dd-stim><div class = amtbox style = ""color:white"">49€</div><br><br><div class = delbox style = ""color:white"">172 jours</div></div>","89,71","4000","","20","49","172","smaller_sooner","",""
"1102","89","poldrack-single-stim","97","530430","0.0-97.0","sub-09_sess-02_2","","4568","0","","<div class = dd-stim><div class = amtbox style = ""color:white"">73€</div><br><br><div class = delbox style = ""color:white"">44 jours</div></div>","89,71","4000","","20","73","44","larger_later","",""
"1216","89","poldrack-single-stim","98","535149","0.0-98.0","sub-09_sess-02_2","","4704","0","","<div class = dd-stim><div class = amtbox style = ""color:white"">58€</div><br><br><div class = delbox style = ""color:white"">73 jours</div></div>","89,71","4000","","20","58","73","larger_later","",""
"1040","89","poldrack-single-stim","99","541030","0.0-99.0","sub-09_sess-02_2","","5860","0","","<div class = dd-stim><div class = amtbox style = ""color:white"">71€</div><br><br><div class = delbox style = ""color:white"">76 jours</div></div>","89,71","4000","","20","71","76","larger_later","",""
"1315","89","poldrack-single-stim","100","545670","0.0-100.0","sub-09_sess-02_2","","4636","0","","<div class = dd-stim><div class = amtbox style = ""color:white"">67€</div><br><br><div class = delbox style = ""color:white"">74 jours</div></div>","89,71","4000","","20","67","74","larger_later","",""
"873","71","poldrack-single-stim","101","551000","0.0-101.0","sub-09_sess-02_2","","5316","0","","<div class = dd-stim><div class = amtbox style = ""color:white"">29€</div><br><br><div class = delbox style = ""color:white"">58 jours</div></div>","89,71","4000","","20","29","58","smaller_sooner","",""
"1341","71","poldrack-single-stim","102","555980","0.0-102.0","sub-09_sess-02_2","","4976","0","","<div class = dd-stim><div class = amtbox style = ""color:white"">39€</div><br><br><div class = delbox style = ""color:white"">104 jours</div></div>","89,71","4000","","20","39","104","smaller_sooner","",""
"1192","71","poldrack-single-stim","103","560560","0.0-103.0","sub-09_sess-02_2","","4568","0","","<div class = dd-stim><div class = amtbox style = ""color:white"">33€</div><br><br><div class = delbox style = ""color:white"">103 jours</div></div>","89,71","4000","","20","33","103","smaller_sooner","",""
"1445","71","poldrack-single-stim","104","566090","0.0-104.0","sub-09_sess-02_2","","5520","0","","<div class = dd-stim><div class = amtbox style = ""color:white"">33€</div><br><br><div class = delbox style = ""color:white"">78 jours</div></div>","89,71","4000","","20","33","78","smaller_sooner","",""
"923","89","poldrack-single-stim","105","571699","0.0-105.0","sub-09_sess-02_2","","5588","0","","<div class = dd-stim><div class = amtbox style = ""color:white"">74€</div><br><br><div class = delbox style = ""color:white"">52 jours</div></div>","89,71","4000","","20","74","52","larger_later","",""
"1227","71","poldrack-single-stim","106","577500","0.0-106.0","sub-09_sess-02_2","","5792","0","","<div class = dd-stim><div class = amtbox style = ""color:white"">28€</div><br><br><div class = delbox style = ""color:white"">132 jours</div></div>","89,71","4000","","20","28","132","smaller_sooner","",""
"1447","71","poldrack-single-stim","107","582069","0.0-107.0","sub-09_sess-02_2","","4568","0","","<div class = dd-stim><div class = amtbox style = ""color:white"">28€</div><br><br><div class = delbox style = ""color:white"">59 jours</div></div>","89,71","4000","","20","28","59","smaller_sooner","",""
"771","71","poldrack-single-stim","108","587189","0.0-108.0","sub-09_sess-02_2","","5112","0","","<div class = dd-stim><div class = amtbox style = ""color:white"">28€</div><br><br><div class = delbox style = ""color:white"">163 jours</div></div>","89,71","4000","","20","28","163","smaller_sooner","",""
"701","71","poldrack-single-stim","109","591710","0.0-109.0","sub-09_sess-02_2","","4500","0","","<div class = dd-stim><div class = amtbox style = ""color:white"">32€</div><br><br><div class = delbox style = ""color:white"">74 jours</div></div>","89,71","4000","","20","32","74","smaller_sooner","",""
"1769","89","poldrack-single-stim","110","596570","0.0-110.0","sub-09_sess-02_2","","4840","0","","<div class = dd-stim><div class = amtbox style = ""color:white"">57€</div><br><br><div class = delbox style = ""color:white"">89 jours</div></div>","89,71","4000","","20","57","89","larger_later","",""
"1951","89","poldrack-single-stim","111","601147","0.0-111.0","sub-09_sess-02_2","","4568","0","","<div class = dd-stim><div class = amtbox style = ""color:white"">70€</div><br><br><div class = delbox style = ""color:white"">108 jours</div></div>","89,71","4000","","20","70","108","larger_later","",""
"1318","89","poldrack-single-stim","112","606539","0.0-112.0","sub-09_sess-02_2","","5384","0","","<div class = dd-stim><div class = amtbox style = ""color:white"">72€</div><br><br><div class = delbox style = ""color:white"">95 jours</div></div>","89,71","4000","","20","72","95","larger_later","",""
"916","71","poldrack-single-stim","113","611599","0.0-113.0","sub-09_sess-02_2","","5044","0","","<div class = dd-stim><div class = amtbox style = ""color:white"">30€</div><br><br><div class = delbox style = ""color:white"">36 jours</div></div>","89,71","4000","","20","30","36","smaller_sooner","",""
"1881","71","poldrack-single-stim","114","616320","0.0-114.0","sub-09_sess-02_2","","4704","0","","<div class = dd-stim><div class = amtbox style = ""color:white"">41€</div><br><br><div class = delbox style = ""color:white"">129 jours</div></div>","89,71","4000","","20","41","129","smaller_sooner","",""
"914","89","poldrack-single-stim","115","621239","0.0-115.0","sub-09_sess-02_2","","4908","0","","<div class = dd-stim><div class = amtbox style = ""color:white"">78€</div><br><br><div class = delbox style = ""color:white"">129 jours</div></div>","89,71","4000","","20","78","129","larger_later","",""
"1032","89","poldrack-single-stim","116","626160","0.0-116.0","sub-09_sess-02_2","","4908","0","","<div class = dd-stim><div class = amtbox style = ""color:white"">71€</div><br><br><div class = delbox style = ""color:white"">88 jours</div></div>","89,71","4000","","20","71","88","larger_later","",""
"1136","89","poldrack-single-stim","117","631010","0.0-117.0","sub-09_sess-02_2","","4840","0","","<div class = dd-stim><div class = amtbox style = ""color:white"">65€</div><br><br><div class = delbox style = ""color:white"">159 jours</div></div>","89,71","4000","","20","65","159","larger_later","",""
"879","71","poldrack-single-stim","118","636129","0.0-118.0","sub-09_sess-02_2","","5112","0","","<div class = dd-stim><div class = amtbox style = ""color:white"">24€</div><br><br><div class = delbox style = ""color:white"">125 jours</div></div>","89,71","4000","","20","24","125","smaller_sooner","",""
"1237","89","poldrack-single-stim","119","641250","0.0-119.0","sub-09_sess-02_2","","5112","0","","<div class = dd-stim><div class = amtbox style = ""color:white"">58€</div><br><br><div class = delbox style = ""color:white"">36 jours</div></div>","89,71","4000","","20","58","36","larger_later","",""
"1168","89","poldrack-single-stim","120","645971","0.0-120.0","sub-09_sess-02_2","","4704","0","","<div class = dd-stim><div class = amtbox style = ""color:white"">63€</div><br><br><div class = delbox style = ""color:white"">37 jours</div></div>","89,71","4000","","20","63","37","larger_later","",""
"930","89","poldrack-single-stim","121","650830","0.0-121.0","sub-09_sess-02_2","","4840","0","","<div class = dd-stim><div class = amtbox style = ""color:white"">75€</div><br><br><div class = delbox style = ""color:white"">41 jours</div></div>","89,71","4000","","20","75","41","larger_later","",""
"1257","71","poldrack-single-stim","122","655691","0.0-122.0","sub-09_sess-02_2","","4840","0","","<div class = dd-stim><div class = amtbox style = ""color:white"">45€</div><br><br><div class = delbox style = ""color:white"">72 jours</div></div>","89,71","4000","","20","45","72","smaller_sooner","",""
"822","71","poldrack-single-stim","123","662579","0.0-123.0","sub-09_sess-02_2","","6880","0","","<div class = dd-stim><div class = amtbox style = ""color:white"">25€</div><br><br><div class = delbox style = ""color:white"">74 jours</div></div>","89,71","4000","","20","25","74","smaller_sooner","",""
"1206","89","poldrack-single-stim","124","667160","0.0-124.0","sub-09_sess-02_2","","4568","0","","<div class = dd-stim><div class = amtbox style = ""color:white"">65€</div><br><br><div class = delbox style = ""color:white"">137 jours</div></div>","89,71","4000","","20","65","137","larger_later","",""
"1992","89","poldrack-single-stim","125","671941","0.0-125.0","sub-09_sess-02_2","","4772","0","","<div class = dd-stim><div class = amtbox style = ""color:white"">49€</div><br><br><div class = delbox style = ""color:white"">140 jours</div></div>","89,71","4000","","20","49","140","larger_later","",""
"933","89","poldrack-single-stim","126","678960","0.0-126.0","sub-09_sess-02_2","","7016","0","","<div class = dd-stim><div class = amtbox style = ""color:white"">67€</div><br><br><div class = delbox style = ""color:white"">103 jours</div></div>","89,71","4000","","20","67","103","larger_later","",""
"887","89","poldrack-single-stim","127","683680","0.0-127.0","sub-09_sess-02_2","","4704","0","","<div class = dd-stim><div class = amtbox style = ""color:white"">69€</div><br><br><div class = delbox style = ""color:white"">172 jours</div></div>","89,71","4000","","20","69","172","larger_later","",""
"932","89","poldrack-single-stim","128","688879","0.0-128.0","sub-09_sess-02_2","","5180","0","","<div class = dd-stim><div class = amtbox style = ""color:white"">66€</div><br><br><div class = delbox style = ""color:white"">71 jours</div></div>","89,71","4000","","20","66","71","larger_later","",""
"1162","89","poldrack-single-stim","129","693940","0.0-129.0","sub-09_sess-02_2","","5044","0","","<div class = dd-stim><div class = amtbox style = ""color:white"">71€</div><br><br><div class = delbox style = ""color:white"">176 jours</div></div>","89,71","4000","","20","71","176","larger_later","",""
"184713","32","poldrack-single-stim","130","878656","0.0-130.0","sub-09_sess-02_2","","184713","0","end","<div class = centerbox><div class = center-text><i>Fin</i></div></div>","32","184713","","","","","","discount_fixed","[object Object]"
"932","13","text","131","879590","0.0-131.0","sub-09_sess-02_2","","","","","","","","","","","","","",""
