"rt","key_press","trial_type","trial_index","time_elapsed","internal_node_id","subject","text","block_duration","timing_post_trial","trial_id","stimulus","possible_responses","stim_duration","correct","correct_response","feedback_duration","condition","stim_color","stim_word","trial_num","exp_stage","exp_id"
"900106","13","text","0","900108","0.0-0.0","sub-12_ses-02_1","","","","","","","","","","","","","","","",""
"1148","89","poldrack-text","1","902276","0.0-1.0","sub-12_ses-02_1","<div class = centerbox><div style = 'font-size: 50px' class = center-text>Veuillez appuyer avec votre index</p></div>","1148","500","fmri_response_test","","","","","","","","","","","",""
"878","71","poldrack-text","2","903670","0.0-2.0","sub-12_ses-02_1","<div class = centerbox><div style = 'font-size: 50px' class = center-text>Veuillez appuyer avec votre majeur</p></div>","878","500","fmri_response_test","","","","","","","","","","","",""
"1571","82","poldrack-text","3","905747","0.0-3.0","sub-12_ses-02_1","<div class = centerbox><div style = 'font-size: 50px' class = center-text>Veuillez appuyer avec votre annulaire</p></div>","1571","500","fmri_response_test","","","","","","","","","","","",""
"18919","32","poldrack-single-stim","4","925182","0.0-4.0","sub-12_ses-02_1","","18919","500","instructions","<div class = centerbox><div class = center-text><font size = +4>Repondre a la <strong>coleur de l'encre</strong> du mot!<br><br><span style = ""color:red;padding-left:30px"">MOT</span>: Index<br><span style = ""color:#1F45FC;padding-left:65px"">MOT</span>: Majeur<br><span style = ""color:#4FE829;"">MOT</span>: Annulaire<br><br>Nous allos commencer par un peu de pratique</div></div>","32","18919","","","","","","","","",""
"-1","-1","poldrack-categorize","5","927715","0.0-5.0-0.0-0.0","sub-12_ses-02_1","","1500","0","stim","<div class = stroopbox><div class = stroop-stim style = ""color:red"">BLEU</div></div>","89,71,82","1500","false","89","500","incongruent","red","blue","1","practice",""
"-1","-1","poldrack-single-stim","6","927976","0.0-5.0-1.0","sub-12_ses-02_1","","250","0","fixation","<div class = centerbox><div class = fixation>+</div></div>","none","250","","","","","","","","",""
"1004","89","poldrack-categorize","7","930006","0.0-5.0-2.0-0.0","sub-12_ses-02_1","","1500","0","stim","<div class = stroopbox><div class = stroop-stim style = ""color:red"">ROUGE</div></div>","89,71,82","1500","true","89","500","congruent","red","red","2","practice",""
"-1","-1","poldrack-single-stim","8","930264","0.0-5.0-3.0","sub-12_ses-02_1","","250","0","fixation","<div class = centerbox><div class = fixation>+</div></div>","none","250","","","","","","","","",""
"1236","82","poldrack-categorize","9","932306","0.0-5.0-4.0-0.0","sub-12_ses-02_1","","1500","0","stim","<div class = stroopbox><div class = stroop-stim style = ""color:#4FE829"">VERT</div></div>","89,71,82","1500","true","82","500","congruent","green","green","3","practice",""
"-1","-1","poldrack-single-stim","10","932567","0.0-5.0-5.0","sub-12_ses-02_1","","250","0","fixation","<div class = centerbox><div class = fixation>+</div></div>","none","250","","","","","","","","",""
"1156","89","poldrack-categorize","11","934596","0.0-5.0-6.0-0.0","sub-12_ses-02_1","","1500","0","stim","<div class = stroopbox><div class = stroop-stim style = ""color:red"">VERT</div></div>","89,71,82","1500","true","89","500","incongruent","red","green","4","practice",""
"-1","-1","poldrack-single-stim","12","934856","0.0-5.0-7.0","sub-12_ses-02_1","","250","0","fixation","<div class = centerbox><div class = fixation>+</div></div>","none","250","","","","","","","","",""
"1037","82","poldrack-categorize","13","936895","0.0-5.0-8.0-0.0","sub-12_ses-02_1","","1500","0","stim","<div class = stroopbox><div class = stroop-stim style = ""color:#4FE829"">ROUGE</div></div>","89,71,82","1500","true","82","500","incongruent","green","red","5","practice",""
"-1","-1","poldrack-single-stim","14","937155","0.0-5.0-9.0","sub-12_ses-02_1","","250","0","fixation","<div class = centerbox><div class = fixation>+</div></div>","none","250","","","","","","","","",""
"810","71","poldrack-categorize","15","939196","0.0-5.0-10.0-0.0","sub-12_ses-02_1","","1500","0","stim","<div class = stroopbox><div class = stroop-stim style = ""color:#1F45FC"">BLEU</div></div>","89,71,82","1500","true","71","500","congruent","blue","blue","6","practice",""
"-1","-1","poldrack-single-stim","16","939455","0.0-5.0-11.0","sub-12_ses-02_1","","250","0","fixation","<div class = centerbox><div class = fixation>+</div></div>","none","250","","","","","","","","",""
"932","71","poldrack-categorize","17","941496","0.0-5.0-12.0-0.0","sub-12_ses-02_1","","1500","0","stim","<div class = stroopbox><div class = stroop-stim style = ""color:#1F45FC"">VERT</div></div>","89,71,82","1500","true","71","500","incongruent","blue","green","7","practice",""
"-1","-1","poldrack-single-stim","18","941756","0.0-5.0-13.0","sub-12_ses-02_1","","250","0","fixation","<div class = centerbox><div class = fixation>+</div></div>","none","250","","","","","","","","",""
"1277","82","poldrack-categorize","19","943796","0.0-5.0-14.0-0.0","sub-12_ses-02_1","","1500","0","stim","<div class = stroopbox><div class = stroop-stim style = ""color:#4FE829"">BLEU</div></div>","89,71,82","1500","true","82","500","incongruent","green","blue","8","practice",""
"-1","-1","poldrack-single-stim","20","944055","0.0-5.0-15.0","sub-12_ses-02_1","","250","0","fixation","<div class = centerbox><div class = fixation>+</div></div>","none","250","","","","","","","","",""
"1113","71","poldrack-categorize","21","946096","0.0-5.0-16.0-0.0","sub-12_ses-02_1","","1500","0","stim","<div class = stroopbox><div class = stroop-stim style = ""color:#1F45FC"">ROUGE</div></div>","89,71,82","1500","true","71","500","incongruent","blue","red","9","practice",""
"-1","-1","poldrack-single-stim","22","946356","0.0-5.0-17.0","sub-12_ses-02_1","","250","0","fixation","<div class = centerbox><div class = fixation>+</div></div>","none","250","","","","","","","","",""
"2434","32","poldrack-text","23","948798","0.0-6.0","sub-12_ses-02_1","<div class = centerbox><div  class = center-text>Scanner Setup</div></div>","2434","0","fmri_scanner_wait","","","","","","","","","","","",""
"55794","84","poldrack-text","24","1004596","0.0-7.0","sub-12_ses-02_1","<div class = centerbox><div style='color:red'; class = center-text>+</div></div>","55794","0","fmri_trigger_wait","","","","","","","","","","","",""
"-1","-1","poldrack-single-stim","25","1005606","0.0-8.0","sub-12_ses-02_1","","1000","0","fmri_buffer","","none","1000","","","","","","","","",""
"-1","-1","poldrack-single-stim","26","1007117","0.0-9.0","sub-12_ses-02_1","","1500","500","test_start_block","<div class = centerbox><div class = center-text>Preparez-vous!</p></div>","none","1500","","","","","","","","",""
"-1","-1","poldrack-single-stim","27","1008145","0.0-10.0","sub-12_ses-02_1","","500","0","fixation","<div class = centerbox><div class = fixation>+</div></div>","none","500","","","","","","","","",""
"741","89","poldrack-single-stim","28","1010166","0.0-11.0-0.0","sub-12_ses-02_1","","2000","0","stim","<div class = stroopbox><div class = stroop-stim style = ""color:red"">BLEU</div></div>","89,71,82","1500","true","89","","incongruent","red","blue","0","test",""
"756","71","poldrack-single-stim","29","1012185","0.0-11.0-1.0","sub-12_ses-02_1","","2000","0","stim","<div class = stroopbox><div class = stroop-stim style = ""color:#1F45FC"">BLEU</div></div>","89,71,82","1500","true","71","","congruent","blue","blue","1","test",""
"818","71","poldrack-single-stim","30","1014465","0.0-11.0-2.0","sub-12_ses-02_1","","2272","0","stim","<div class = stroopbox><div class = stroop-stim style = ""color:#1F45FC"">ROUGE</div></div>","89,71,82","1500","true","71","","incongruent","blue","red","2","test",""
"600","71","poldrack-single-stim","31","1016475","0.0-11.0-3.0","sub-12_ses-02_1","","2000","0","stim","<div class = stroopbox><div class = stroop-stim style = ""color:#1F45FC"">ROUGE</div></div>","89,71,82","1500","true","71","","incongruent","blue","red","3","test",""
"551","71","poldrack-single-stim","32","1018615","0.0-11.0-4.0","sub-12_ses-02_1","","2136","0","stim","<div class = stroopbox><div class = stroop-stim style = ""color:#1F45FC"">BLEU</div></div>","89,71,82","1500","true","71","","congruent","blue","blue","4","test",""
"516","71","poldrack-single-stim","33","1020625","0.0-11.0-5.0","sub-12_ses-02_1","","2000","0","stim","<div class = stroopbox><div class = stroop-stim style = ""color:#1F45FC"">BLEU</div></div>","89,71,82","1500","true","71","","congruent","blue","blue","5","test",""
"665","82","poldrack-single-stim","34","1022766","0.0-11.0-6.0","sub-12_ses-02_1","","2136","0","stim","<div class = stroopbox><div class = stroop-stim style = ""color:#4FE829"">VERT</div></div>","89,71,82","1500","true","82","","congruent","green","green","6","test",""
"581","71","poldrack-single-stim","35","1024785","0.0-11.0-7.0","sub-12_ses-02_1","","2000","0","stim","<div class = stroopbox><div class = stroop-stim style = ""color:#1F45FC"">BLEU</div></div>","89,71,82","1500","true","71","","congruent","blue","blue","7","test",""
"602","82","poldrack-single-stim","36","1026796","0.0-11.0-8.0","sub-12_ses-02_1","","2000","0","stim","<div class = stroopbox><div class = stroop-stim style = ""color:#4FE829"">VERT</div></div>","89,71,82","1500","true","82","","congruent","green","green","8","test",""
"904","82","poldrack-single-stim","37","1028815","0.0-11.0-9.0","sub-12_ses-02_1","","2000","0","stim","<div class = stroopbox><div class = stroop-stim style = ""color:#4FE829"">BLEU</div></div>","89,71,82","1500","true","82","","incongruent","green","blue","9","test",""
"691","82","poldrack-single-stim","38","1031095","0.0-11.0-10.0","sub-12_ses-02_1","","2272","0","stim","<div class = stroopbox><div class = stroop-stim style = ""color:#4FE829"">ROUGE</div></div>","89,71,82","1500","true","82","","incongruent","green","red","10","test",""
"688","82","poldrack-single-stim","39","1033106","0.0-11.0-11.0","sub-12_ses-02_1","","2000","0","stim","<div class = stroopbox><div class = stroop-stim style = ""color:#4FE829"">ROUGE</div></div>","89,71,82","1500","true","82","","incongruent","green","red","11","test",""
"696","82","poldrack-single-stim","40","1035254","0.0-11.0-12.0","sub-12_ses-02_1","","2136","0","stim","<div class = stroopbox><div class = stroop-stim style = ""color:#4FE829"">ROUGE</div></div>","89,71,82","1500","true","82","","incongruent","green","red","12","test",""
"686","71","poldrack-single-stim","41","1037674","0.0-11.0-13.0","sub-12_ses-02_1","","2408","0","stim","<div class = stroopbox><div class = stroop-stim style = ""color:#1F45FC"">BLEU</div></div>","89,71,82","1500","true","71","","congruent","blue","blue","13","test",""
"790","71","poldrack-single-stim","42","1039965","0.0-11.0-14.0","sub-12_ses-02_1","","2272","0","stim","<div class = stroopbox><div class = stroop-stim style = ""color:#1F45FC"">VERT</div></div>","89,71,82","1500","true","71","","incongruent","blue","green","14","test",""
"635","71","poldrack-single-stim","43","1042666","0.0-11.0-15.0","sub-12_ses-02_1","","2680","0","stim","<div class = stroopbox><div class = stroop-stim style = ""color:#1F45FC"">BLEU</div></div>","89,71,82","1500","true","71","","congruent","blue","blue","15","test",""
"795","89","poldrack-single-stim","44","1044685","0.0-11.0-16.0","sub-12_ses-02_1","","2000","0","stim","<div class = stroopbox><div class = stroop-stim style = ""color:red"">ROUGE</div></div>","89,71,82","1500","true","89","","congruent","red","red","16","test",""
"741","82","poldrack-single-stim","45","1047105","0.0-11.0-17.0","sub-12_ses-02_1","","2408","0","stim","<div class = stroopbox><div class = stroop-stim style = ""color:#4FE829"">VERT</div></div>","89,71,82","1500","true","82","","congruent","green","green","17","test",""
"871","89","poldrack-single-stim","46","1049246","0.0-11.0-18.0","sub-12_ses-02_1","","2136","0","stim","<div class = stroopbox><div class = stroop-stim style = ""color:red"">ROUGE</div></div>","89,71,82","1500","true","89","","congruent","red","red","18","test",""
"587","89","poldrack-single-stim","47","1051936","0.0-11.0-19.0","sub-12_ses-02_1","","2680","0","stim","<div class = stroopbox><div class = stroop-stim style = ""color:red"">VERT</div></div>","89,71,82","1500","true","89","","incongruent","red","green","19","test",""
"862","82","poldrack-single-stim","48","1053956","0.0-11.0-20.0","sub-12_ses-02_1","","2000","0","stim","<div class = stroopbox><div class = stroop-stim style = ""color:#1F45FC"">VERT</div></div>","89,71,82","1500","false","71","","incongruent","blue","green","20","test",""
"1087","82","poldrack-single-stim","49","1056095","0.0-11.0-21.0","sub-12_ses-02_1","","2136","0","stim","<div class = stroopbox><div class = stroop-stim style = ""color:#4FE829"">BLEU</div></div>","89,71,82","1500","true","82","","incongruent","green","blue","21","test",""
"1039","89","poldrack-single-stim","50","1059065","0.0-11.0-22.0","sub-12_ses-02_1","","2952","0","stim","<div class = stroopbox><div class = stroop-stim style = ""color:red"">ROUGE</div></div>","89,71,82","1500","true","89","","congruent","red","red","22","test",""
"1018","71","poldrack-single-stim","51","1061075","0.0-11.0-23.0","sub-12_ses-02_1","","2000","0","stim","<div class = stroopbox><div class = stroop-stim style = ""color:#1F45FC"">VERT</div></div>","89,71,82","1500","true","71","","incongruent","blue","green","23","test",""
"997","82","poldrack-single-stim","52","1063355","0.0-11.0-24.0","sub-12_ses-02_1","","2272","0","stim","<div class = stroopbox><div class = stroop-stim style = ""color:#4FE829"">ROUGE</div></div>","89,71,82","1500","true","82","","incongruent","green","red","24","test",""
"1103","71","poldrack-single-stim","53","1065374","0.0-11.0-25.0","sub-12_ses-02_1","","2000","0","stim","<div class = stroopbox><div class = stroop-stim style = ""color:#1F45FC"">VERT</div></div>","89,71,82","1500","true","71","","incongruent","blue","green","25","test",""
"745","71","poldrack-single-stim","54","1067393","0.0-11.0-26.0","sub-12_ses-02_1","","2000","0","stim","<div class = stroopbox><div class = stroop-stim style = ""color:#1F45FC"">BLEU</div></div>","89,71,82","1500","true","71","","congruent","blue","blue","26","test",""
"656","89","poldrack-single-stim","55","1069415","0.0-11.0-27.0","sub-12_ses-02_1","","2000","0","stim","<div class = stroopbox><div class = stroop-stim style = ""color:red"">ROUGE</div></div>","89,71,82","1500","true","89","","congruent","red","red","27","test",""
"768","89","poldrack-single-stim","56","1071436","0.0-11.0-28.0","sub-12_ses-02_1","","2000","0","stim","<div class = stroopbox><div class = stroop-stim style = ""color:red"">VERT</div></div>","89,71,82","1500","true","89","","incongruent","red","green","28","test",""
"521","89","poldrack-single-stim","57","1073585","0.0-11.0-29.0","sub-12_ses-02_1","","2136","0","stim","<div class = stroopbox><div class = stroop-stim style = ""color:red"">ROUGE</div></div>","89,71,82","1500","true","89","","congruent","red","red","29","test",""
"810","82","poldrack-single-stim","58","1075605","0.0-11.0-30.0","sub-12_ses-02_1","","2000","0","stim","<div class = stroopbox><div class = stroop-stim style = ""color:#4FE829"">VERT</div></div>","89,71,82","1500","true","82","","congruent","green","green","30","test",""
"787","89","poldrack-single-stim","59","1077625","0.0-11.0-31.0","sub-12_ses-02_1","","2000","0","stim","<div class = stroopbox><div class = stroop-stim style = ""color:red"">BLEU</div></div>","89,71,82","1500","true","89","","incongruent","red","blue","31","test",""
"888","82","poldrack-single-stim","60","1079766","0.0-11.0-32.0","sub-12_ses-02_1","","2136","0","stim","<div class = stroopbox><div class = stroop-stim style = ""color:#4FE829"">VERT</div></div>","89,71,82","1500","true","82","","congruent","green","green","32","test",""
"849","89","poldrack-single-stim","61","1081785","0.0-11.0-33.0","sub-12_ses-02_1","","2000","0","stim","<div class = stroopbox><div class = stroop-stim style = ""color:red"">VERT</div></div>","89,71,82","1500","true","89","","incongruent","red","green","33","test",""
"975","82","poldrack-single-stim","62","1083805","0.0-11.0-34.0","sub-12_ses-02_1","","2000","0","stim","<div class = stroopbox><div class = stroop-stim style = ""color:#4FE829"">BLEU</div></div>","89,71,82","1500","true","82","","incongruent","green","blue","34","test",""
"752","71","poldrack-single-stim","63","1085986","0.0-11.0-35.0","sub-12_ses-02_1","","2136","0","stim","<div class = stroopbox><div class = stroop-stim style = ""color:#1F45FC"">VERT</div></div>","89,71,82","1500","true","71","","incongruent","blue","green","35","test",""
"660","89","poldrack-single-stim","64","1088125","0.0-11.0-36.0","sub-12_ses-02_1","","2136","0","stim","<div class = stroopbox><div class = stroop-stim style = ""color:red"">ROUGE</div></div>","89,71,82","1500","true","89","","congruent","red","red","36","test",""
"655","89","poldrack-single-stim","65","1090406","0.0-11.0-37.0","sub-12_ses-02_1","","2272","0","stim","<div class = stroopbox><div class = stroop-stim style = ""color:red"">ROUGE</div></div>","89,71,82","1500","true","89","","congruent","red","red","37","test",""
"739","71","poldrack-single-stim","66","1093106","0.0-11.0-38.0","sub-12_ses-02_1","","2680","0","stim","<div class = stroopbox><div class = stroop-stim style = ""color:#1F45FC"">VERT</div></div>","89,71,82","1500","true","71","","incongruent","blue","green","38","test",""
"668","89","poldrack-single-stim","67","1095125","0.0-11.0-39.0","sub-12_ses-02_1","","2000","0","stim","<div class = stroopbox><div class = stroop-stim style = ""color:red"">ROUGE</div></div>","89,71,82","1500","true","89","","congruent","red","red","39","test",""
"576","89","poldrack-single-stim","68","1097134","0.0-11.0-40.0","sub-12_ses-02_1","","2000","0","stim","<div class = stroopbox><div class = stroop-stim style = ""color:red"">ROUGE</div></div>","89,71,82","1500","true","89","","congruent","red","red","40","test",""
"512","89","poldrack-single-stim","69","1099426","0.0-11.0-41.0","sub-12_ses-02_1","","2272","0","stim","<div class = stroopbox><div class = stroop-stim style = ""color:red"">VERT</div></div>","89,71,82","1500","true","89","","incongruent","red","green","41","test",""
"816","82","poldrack-single-stim","70","1101428","0.0-11.0-42.0","sub-12_ses-02_1","","2000","0","stim","<div class = stroopbox><div class = stroop-stim style = ""color:#4FE829"">ROUGE</div></div>","89,71,82","1500","true","82","","incongruent","green","red","42","test",""
"682","82","poldrack-single-stim","71","1103445","0.0-11.0-43.0","sub-12_ses-02_1","","2000","0","stim","<div class = stroopbox><div class = stroop-stim style = ""color:#4FE829"">VERT</div></div>","89,71,82","1500","true","82","","congruent","green","green","43","test",""
"747","82","poldrack-single-stim","72","1105465","0.0-11.0-44.0","sub-12_ses-02_1","","2000","0","stim","<div class = stroopbox><div class = stroop-stim style = ""color:#4FE829"">BLEU</div></div>","89,71,82","1500","true","82","","incongruent","green","blue","44","test",""
"717","71","poldrack-single-stim","73","1107486","0.0-11.0-45.0","sub-12_ses-02_1","","2000","0","stim","<div class = stroopbox><div class = stroop-stim style = ""color:#1F45FC"">ROUGE</div></div>","89,71,82","1500","true","71","","incongruent","blue","red","45","test",""
"871","82","poldrack-single-stim","74","1109505","0.0-11.0-46.0","sub-12_ses-02_1","","2000","0","stim","<div class = stroopbox><div class = stroop-stim style = ""color:#4FE829"">BLEU</div></div>","89,71,82","1500","true","82","","incongruent","green","blue","46","test",""
"745","82","poldrack-single-stim","75","1111526","0.0-11.0-47.0","sub-12_ses-02_1","","2000","0","stim","<div class = stroopbox><div class = stroop-stim style = ""color:#4FE829"">ROUGE</div></div>","89,71,82","1500","true","82","","incongruent","green","red","47","test",""
"509","82","poldrack-single-stim","76","1113816","0.0-11.0-48.0","sub-12_ses-02_1","","2272","0","stim","<div class = stroopbox><div class = stroop-stim style = ""color:#4FE829"">VERT</div></div>","89,71,82","1500","true","82","","congruent","green","green","48","test",""
"810","71","poldrack-single-stim","77","1115836","0.0-11.0-49.0","sub-12_ses-02_1","","2000","0","stim","<div class = stroopbox><div class = stroop-stim style = ""color:#1F45FC"">ROUGE</div></div>","89,71,82","1500","true","71","","incongruent","blue","red","49","test",""
"712","71","poldrack-single-stim","78","1118255","0.0-11.0-50.0","sub-12_ses-02_1","","2408","0","stim","<div class = stroopbox><div class = stroop-stim style = ""color:#1F45FC"">BLEU</div></div>","89,71,82","1500","true","71","","congruent","blue","blue","50","test",""
"757","82","poldrack-single-stim","79","1120275","0.0-11.0-51.0","sub-12_ses-02_1","","2000","0","stim","<div class = stroopbox><div class = stroop-stim style = ""color:#4FE829"">VERT</div></div>","89,71,82","1500","true","82","","congruent","green","green","51","test",""
"677","82","poldrack-single-stim","80","1122425","0.0-11.0-52.0","sub-12_ses-02_1","","2136","0","stim","<div class = stroopbox><div class = stroop-stim style = ""color:#4FE829"">VERT</div></div>","89,71,82","1500","true","82","","congruent","green","green","52","test",""
"636","89","poldrack-single-stim","81","1124436","0.0-11.0-53.0","sub-12_ses-02_1","","2000","0","stim","<div class = stroopbox><div class = stroop-stim style = ""color:red"">ROUGE</div></div>","89,71,82","1500","true","89","","congruent","red","red","53","test",""
"728","71","poldrack-single-stim","82","1126444","0.0-11.0-54.0","sub-12_ses-02_1","","2000","0","stim","<div class = stroopbox><div class = stroop-stim style = ""color:#1F45FC"">BLEU</div></div>","89,71,82","1500","true","71","","congruent","blue","blue","54","test",""
"884","71","poldrack-single-stim","83","1128474","0.0-11.0-55.0","sub-12_ses-02_1","","2000","0","stim","<div class = stroopbox><div class = stroop-stim style = ""color:#1F45FC"">ROUGE</div></div>","89,71,82","1500","true","71","","incongruent","blue","red","55","test",""
"645","82","poldrack-single-stim","84","1130755","0.0-11.0-56.0","sub-12_ses-02_1","","2272","0","stim","<div class = stroopbox><div class = stroop-stim style = ""color:#4FE829"">VERT</div></div>","89,71,82","1500","true","82","","congruent","green","green","56","test",""
"764","82","poldrack-single-stim","85","1132764","0.0-11.0-57.0","sub-12_ses-02_1","","2000","0","stim","<div class = stroopbox><div class = stroop-stim style = ""color:#4FE829"">ROUGE</div></div>","89,71,82","1500","true","82","","incongruent","green","red","57","test",""
"755","89","poldrack-single-stim","86","1135054","0.0-11.0-58.0","sub-12_ses-02_1","","2272","0","stim","<div class = stroopbox><div class = stroop-stim style = ""color:red"">VERT</div></div>","89,71,82","1500","true","89","","incongruent","red","green","58","test",""
"645","89","poldrack-single-stim","87","1137334","0.0-11.0-59.0","sub-12_ses-02_1","","2272","0","stim","<div class = stroopbox><div class = stroop-stim style = ""color:red"">BLEU</div></div>","89,71,82","1500","true","89","","incongruent","red","blue","59","test",""
"669","89","poldrack-single-stim","88","1139354","0.0-11.0-60.0","sub-12_ses-02_1","","2000","0","stim","<div class = stroopbox><div class = stroop-stim style = ""color:red"">VERT</div></div>","89,71,82","1500","true","89","","incongruent","red","green","60","test",""
"642","89","poldrack-single-stim","89","1142055","0.0-11.0-61.0","sub-12_ses-02_1","","2680","0","stim","<div class = stroopbox><div class = stroop-stim style = ""color:red"">ROUGE</div></div>","89,71,82","1500","true","89","","congruent","red","red","61","test",""
"761","71","poldrack-single-stim","90","1144075","0.0-11.0-62.0","sub-12_ses-02_1","","2000","0","stim","<div class = stroopbox><div class = stroop-stim style = ""color:#1F45FC"">ROUGE</div></div>","89,71,82","1500","true","71","","incongruent","blue","red","62","test",""
"732","71","poldrack-single-stim","91","1146365","0.0-11.0-63.0","sub-12_ses-02_1","","2272","0","stim","<div class = stroopbox><div class = stroop-stim style = ""color:#1F45FC"">BLEU</div></div>","89,71,82","1500","true","71","","congruent","blue","blue","63","test",""
"723","82","poldrack-single-stim","92","1148376","0.0-11.0-64.0","sub-12_ses-02_1","","2000","0","stim","<div class = stroopbox><div class = stroop-stim style = ""color:#4FE829"">VERT</div></div>","89,71,82","1500","true","82","","congruent","green","green","64","test",""
"716","89","poldrack-single-stim","93","1150385","0.0-11.0-65.0","sub-12_ses-02_1","","2000","0","stim","<div class = stroopbox><div class = stroop-stim style = ""color:red"">ROUGE</div></div>","89,71,82","1500","true","89","","congruent","red","red","65","test",""
"1017","82","poldrack-single-stim","94","1152674","0.0-11.0-66.0","sub-12_ses-02_1","","2272","0","stim","<div class = stroopbox><div class = stroop-stim style = ""color:#4FE829"">BLEU</div></div>","89,71,82","1500","true","82","","incongruent","green","blue","66","test",""
"726","71","poldrack-single-stim","95","1154814","0.0-11.0-67.0","sub-12_ses-02_1","","2136","0","stim","<div class = stroopbox><div class = stroop-stim style = ""color:#1F45FC"">BLEU</div></div>","89,71,82","1500","true","71","","congruent","blue","blue","67","test",""
"527","89","poldrack-single-stim","96","1157375","0.0-11.0-68.0","sub-12_ses-02_1","","2544","0","stim","<div class = stroopbox><div class = stroop-stim style = ""color:red"">ROUGE</div></div>","89,71,82","1500","true","89","","congruent","red","red","68","test",""
"783","71","poldrack-single-stim","97","1159795","0.0-11.0-69.0","sub-12_ses-02_1","","2408","0","stim","<div class = stroopbox><div class = stroop-stim style = ""color:#1F45FC"">ROUGE</div></div>","89,71,82","1500","true","71","","incongruent","blue","red","69","test",""
"841","89","poldrack-single-stim","98","1161805","0.0-11.0-70.0","sub-12_ses-02_1","","2000","0","stim","<div class = stroopbox><div class = stroop-stim style = ""color:red"">BLEU</div></div>","89,71,82","1500","true","89","","incongruent","red","blue","70","test",""
"670","89","poldrack-single-stim","99","1163828","0.0-11.0-71.0","sub-12_ses-02_1","","2000","0","stim","<div class = stroopbox><div class = stroop-stim style = ""color:red"">BLEU</div></div>","89,71,82","1500","true","89","","incongruent","red","blue","71","test",""
"989","71","poldrack-single-stim","100","1165845","0.0-11.0-72.0","sub-12_ses-02_1","","2000","0","stim","<div class = stroopbox><div class = stroop-stim style = ""color:#1F45FC"">VERT</div></div>","89,71,82","1500","true","71","","incongruent","blue","green","72","test",""
"814","82","poldrack-single-stim","101","1168405","0.0-11.0-73.0","sub-12_ses-02_1","","2544","0","stim","<div class = stroopbox><div class = stroop-stim style = ""color:#4FE829"">VERT</div></div>","89,71,82","1500","true","82","","congruent","green","green","73","test",""
"930","71","poldrack-single-stim","102","1170545","0.0-11.0-74.0","sub-12_ses-02_1","","2136","0","stim","<div class = stroopbox><div class = stroop-stim style = ""color:#1F45FC"">BLEU</div></div>","89,71,82","1500","true","71","","congruent","blue","blue","74","test",""
"617","89","poldrack-single-stim","103","1172555","0.0-11.0-75.0","sub-12_ses-02_1","","2000","0","stim","<div class = stroopbox><div class = stroop-stim style = ""color:red"">ROUGE</div></div>","89,71,82","1500","true","89","","congruent","red","red","75","test",""
"718","89","poldrack-single-stim","104","1174575","0.0-11.0-76.0","sub-12_ses-02_1","","2000","0","stim","<div class = stroopbox><div class = stroop-stim style = ""color:red"">ROUGE</div></div>","89,71,82","1500","true","89","","congruent","red","red","76","test",""
"792","82","poldrack-single-stim","105","1176855","0.0-11.0-77.0","sub-12_ses-02_1","","2272","0","stim","<div class = stroopbox><div class = stroop-stim style = ""color:#4FE829"">VERT</div></div>","89,71,82","1500","true","82","","congruent","green","green","77","test",""
"763","89","poldrack-single-stim","106","1178874","0.0-11.0-78.0","sub-12_ses-02_1","","2000","0","stim","<div class = stroopbox><div class = stroop-stim style = ""color:red"">BLEU</div></div>","89,71,82","1500","true","89","","incongruent","red","blue","78","test",""
"842","71","poldrack-single-stim","107","1180895","0.0-11.0-79.0","sub-12_ses-02_1","","2000","0","stim","<div class = stroopbox><div class = stroop-stim style = ""color:#1F45FC"">BLEU</div></div>","89,71,82","1500","true","71","","congruent","blue","blue","79","test",""
"990","82","poldrack-single-stim","108","1183033","0.0-11.0-80.0","sub-12_ses-02_1","","2136","0","stim","<div class = stroopbox><div class = stroop-stim style = ""color:#4FE829"">BLEU</div></div>","89,71,82","1500","true","82","","incongruent","green","blue","80","test",""
"790","82","poldrack-single-stim","109","1185044","0.0-11.0-81.0","sub-12_ses-02_1","","2000","0","stim","<div class = stroopbox><div class = stroop-stim style = ""color:#4FE829"">BLEU</div></div>","89,71,82","1500","true","82","","incongruent","green","blue","81","test",""
"739","89","poldrack-single-stim","110","1187325","0.0-11.0-82.0","sub-12_ses-02_1","","2272","0","stim","<div class = stroopbox><div class = stroop-stim style = ""color:red"">BLEU</div></div>","89,71,82","1500","true","89","","incongruent","red","blue","82","test",""
"948","71","poldrack-single-stim","111","1189484","0.0-11.0-83.0","sub-12_ses-02_1","","2136","0","stim","<div class = stroopbox><div class = stroop-stim style = ""color:#1F45FC"">BLEU</div></div>","89,71,82","1500","true","71","","congruent","blue","blue","83","test",""
"785","82","poldrack-single-stim","112","1191905","0.0-11.0-84.0","sub-12_ses-02_1","","2408","0","stim","<div class = stroopbox><div class = stroop-stim style = ""color:#4FE829"">ROUGE</div></div>","89,71,82","1500","true","82","","incongruent","green","red","84","test",""
"768","82","poldrack-single-stim","113","1193915","0.0-11.0-85.0","sub-12_ses-02_1","","2000","0","stim","<div class = stroopbox><div class = stroop-stim style = ""color:#4FE829"">VERT</div></div>","89,71,82","1500","true","82","","congruent","green","green","85","test",""
"666","82","poldrack-single-stim","114","1195926","0.0-11.0-86.0","sub-12_ses-02_1","","2000","0","stim","<div class = stroopbox><div class = stroop-stim style = ""color:#4FE829"">VERT</div></div>","89,71,82","1500","true","82","","congruent","green","green","86","test",""
"567","89","poldrack-single-stim","115","1198756","0.0-11.0-87.0","sub-12_ses-02_1","","2816","0","stim","<div class = stroopbox><div class = stroop-stim style = ""color:red"">BLEU</div></div>","89,71,82","1500","true","89","","incongruent","red","blue","87","test",""
"903","89","poldrack-single-stim","116","1200774","0.0-11.0-88.0","sub-12_ses-02_1","","2000","0","stim","<div class = stroopbox><div class = stroop-stim style = ""color:red"">VERT</div></div>","89,71,82","1500","true","89","","incongruent","red","green","88","test",""
"755","71","poldrack-single-stim","117","1202786","0.0-11.0-89.0","sub-12_ses-02_1","","2000","0","stim","<div class = stroopbox><div class = stroop-stim style = ""color:#1F45FC"">VERT</div></div>","89,71,82","1500","true","71","","incongruent","blue","green","89","test",""
"695","71","poldrack-single-stim","118","1204945","0.0-11.0-90.0","sub-12_ses-02_1","","2136","0","stim","<div class = stroopbox><div class = stroop-stim style = ""color:#1F45FC"">BLEU</div></div>","89,71,82","1500","true","71","","congruent","blue","blue","90","test",""
"656","71","poldrack-single-stim","119","1206966","0.0-11.0-91.0","sub-12_ses-02_1","","2000","0","stim","<div class = stroopbox><div class = stroop-stim style = ""color:#1F45FC"">BLEU</div></div>","89,71,82","1500","true","71","","congruent","blue","blue","91","test",""
"802","71","poldrack-single-stim","120","1208985","0.0-11.0-92.0","sub-12_ses-02_1","","2000","0","stim","<div class = stroopbox><div class = stroop-stim style = ""color:#1F45FC"">ROUGE</div></div>","89,71,82","1500","true","71","","incongruent","blue","red","92","test",""
"829","82","poldrack-single-stim","121","1211004","0.0-11.0-93.0","sub-12_ses-02_1","","2000","0","stim","<div class = stroopbox><div class = stroop-stim style = ""color:#4FE829"">VERT</div></div>","89,71,82","1500","true","82","","congruent","green","green","93","test",""
"794","89","poldrack-single-stim","122","1213015","0.0-11.0-94.0","sub-12_ses-02_1","","2000","0","stim","<div class = stroopbox><div class = stroop-stim style = ""color:red"">VERT</div></div>","89,71,82","1500","true","89","","incongruent","red","green","94","test",""
"604","89","poldrack-single-stim","123","1215035","0.0-11.0-95.0","sub-12_ses-02_1","","2000","0","stim","<div class = stroopbox><div class = stroop-stim style = ""color:red"">ROUGE</div></div>","89,71,82","1500","true","89","","congruent","red","red","95","test",""
"5411","32","poldrack-single-stim","124","1220448","0.0-12.0","sub-12_ses-02_1","","5411","0","end","<div class = centerbox><div class = center-text><i>Fin</i></div></div>","32","5411","","","","","","","","","stroop"
"1889","13","text","125","1222337","0.0-13.0","sub-12_ses-02_1","","","","","","","","","","","","","","","",""
