"rt","key_press","trial_type","trial_index","time_elapsed","internal_node_id","subject","text","block_duration","timing_post_trial","trial_id","stimulus","possible_responses","stim_duration","current_position","num_moves_made","min_moves","start_state","goal_state","condition","problem_id","exp_stage","problem_time","correct","exp_id"
"7183","13","text","0","7187","0.0-0.0","sub-13","","","","","","","","","","","","","","","","","",""
"916","89","poldrack-text","1","9113","0.0-1.0","sub-13","<div class = centerbox><div style = 'font-size: 50px' class = center-text>Veuillez appuyer avec votre index</p></div>","916","500","fmri_response_test","","","","","","","","","","","","","",""
"651","71","poldrack-text","2","10277","0.0-2.0","sub-13","<div class = centerbox><div style = 'font-size: 50px' class = center-text>Veuillez appuyer avec votre majeur</p></div>","651","500","fmri_response_test","","","","","","","","","","","","","",""
"634","82","poldrack-text","3","11417","0.0-3.0","sub-13","<div class = centerbox><div style = 'font-size: 50px' class = center-text>Veuillez appuyer avec votre annulaire</p></div>","634","500","fmri_response_test","","","","","","","","","","","","","",""
"13689","32","poldrack-single-stim","4","25619","0.0-4.0","sub-13","","13689","0","instructions","<div class = centerbox><div class = center-text>Resolvez les taches de la tour !<br><br>Planifiez d'avance et travaillez rapidement!<br><br>Nous allons commencer par un peu de pratique.</div></div>","32","13689","","","","","","","","","","",""
"2507","32","poldrack-text","5","28130","0.0-5.0","sub-13","<div class = centerbox><div  class = center-text>Scanner Setup</div></div>","2507","0","fmri_scanner_wait","","","","","","","","","","","","","",""
"52643","84","poldrack-text","6","80775","0.0-6.0","sub-13","<div class = centerbox><div style='color:red'; class = center-text>+</div></div>","52643","0","fmri_trigger_wait","","","","","","","","","","","","","",""
"-1","-1","poldrack-single-stim","7","81784","0.0-7.0","sub-13","","1000","0","fmri_buffer","","none","1000","","","","","","","","","","",""
"-1","-1","poldrack-single-stim","8","83302","0.0-8.0","sub-13","","1500","500","practice_start_block","<div class = centerbox><div class = center-text>Sur le point de commencer l'entrainement</p></div>","none","1500","","","","","","","","","","",""
"3321","71","poldrack-single-stim","9","87152","0.0-9.0-0.0-0.0","sub-13","","3321","0","to_hand","<div class = watt_canvas><div class=""watt_vertical_line""></div></div><div class = watt_your_board><div class = watt_base></div><div class = watt_board_label><strong>Votre Planche</strong></div><div id = watt_peg_1><div class = watt_peg></div></div><div class = special id = watt_peg_1 onclick = ""pegClick(this.id)""><div class = ""watt_ball watt_Blue""><div class = watt_ball_label>B</div></div></div><div id = watt_peg_2><div class = watt_peg></div></div><div class = special id = watt_peg_2 onclick = ""pegClick(this.id)""><div class = ""watt_ball watt_Red""><div class = watt_ball_label>R</div></div><div class = ""watt_ball watt_Green""><div class = watt_ball_label>G</div></div></div><div id = watt_peg_3><div class = watt_peg></div></div><div id = watt_peg_3 onclick = ""pegClick(this.id)""></div></div><div class = watt_peg_board><div class = watt_base></div><div class = watt_board_label><strong>Planche Cible</strong></div><div id = watt_peg_1><div class = watt_peg></div></div><div id = watt_peg_1 ><div class = ""watt_ball watt_Blue""><div class = watt_ball_label>B</div></div><div class = ""watt_ball watt_Red""><div class = watt_ball_label>R</div></div><div class = ""watt_ball watt_Green""><div class = watt_ball_label>G</div></div></div><div id = watt_peg_2><div class = watt_peg></div></div><div id = watt_peg_2 ></div><div id = watt_peg_3><div class = watt_peg></div></div><div id = watt_peg_3 ></div></div><div class = watt_hand_box></div><div class = watt_hand_label><strong>Boule en main</strong></div>","89,71","3321","1,0,0,2,0,0,0,0,0","1","3","1,0,0,2,3,0,0,0,0","1,2,3,0,0,0,0,0,0","UA_with_intermediate","0","practice","","",""
"696","82","poldrack-single-stim","10","87856","0.0-9.0-0.0-1.0","sub-13","","696","0","to_board","<div class = watt_canvas><div class=""watt_vertical_line""></div></div><div class = watt_your_board><div class = watt_base></div><div class = watt_board_label><strong>Votre Planche</strong></div><div id = watt_peg_1><div class = watt_peg></div></div><div class = special id = watt_peg_1 onclick = ""pegClick(this.id)""><div class = ""watt_ball watt_Blue""><div class = watt_ball_label>B</div></div></div><div id = watt_peg_2><div class = watt_peg></div></div><div class = special id = watt_peg_2 onclick = ""pegClick(this.id)""><div class = ""watt_ball watt_Red""><div class = watt_ball_label>R</div></div></div><div id = watt_peg_3><div class = watt_peg></div></div><div class = special id = watt_peg_3 onclick = ""pegClick(this.id)""></div></div><div class = watt_peg_board><div class = watt_base></div><div class = watt_board_label><strong>Planche Cible</strong></div><div id = watt_peg_1><div class = watt_peg></div></div><div id = watt_peg_1 ><div class = ""watt_ball watt_Blue""><div class = watt_ball_label>B</div></div><div class = ""watt_ball watt_Red""><div class = watt_ball_label>R</div></div><div class = ""watt_ball watt_Green""><div class = watt_ball_label>G</div></div></div><div id = watt_peg_2><div class = watt_peg></div></div><div id = watt_peg_2 ></div><div id = watt_peg_3><div class = watt_peg></div></div><div id = watt_peg_3 ></div></div><div class = watt_hand_box><div class = ""watt_hand_ball watt_Green""><div class = watt_ball_label>G</div></div></div><div class = watt_hand_label><strong>Boule en main</strong></div>","89,71,82","696","1,0,0,2,0,0,3,0,0","1","3","1,0,0,2,3,0,0,0,0","1,2,3,0,0,0,0,0,0","UA_with_intermediate","0","practice","","",""
"1510","71","poldrack-single-stim","11","89376","0.0-9.0-0.1-0.1","sub-13","","1510","0","to_hand","<div class = watt_canvas><div class=""watt_vertical_line""></div></div><div class = watt_your_board><div class = watt_base></div><div class = watt_board_label><strong>Votre Planche</strong></div><div id = watt_peg_1><div class = watt_peg></div></div><div class = special id = watt_peg_1 onclick = ""pegClick(this.id)""><div class = ""watt_ball watt_Blue""><div class = watt_ball_label>B</div></div></div><div id = watt_peg_2><div class = watt_peg></div></div><div class = special id = watt_peg_2 onclick = ""pegClick(this.id)""><div class = ""watt_ball watt_Red""><div class = watt_ball_label>R</div></div></div><div id = watt_peg_3><div class = watt_peg></div></div><div class = special id = watt_peg_3 onclick = ""pegClick(this.id)""><div class = ""watt_ball watt_Green""><div class = watt_ball_label>G</div></div></div></div><div class = watt_peg_board><div class = watt_base></div><div class = watt_board_label><strong>Planche Cible</strong></div><div id = watt_peg_1><div class = watt_peg></div></div><div id = watt_peg_1 ><div class = ""watt_ball watt_Blue""><div class = watt_ball_label>B</div></div><div class = ""watt_ball watt_Red""><div class = watt_ball_label>R</div></div><div class = ""watt_ball watt_Green""><div class = watt_ball_label>G</div></div></div><div id = watt_peg_2><div class = watt_peg></div></div><div id = watt_peg_2 ></div><div id = watt_peg_3><div class = watt_peg></div></div><div id = watt_peg_3 ></div></div><div class = watt_hand_box></div><div class = watt_hand_label><strong>Boule en main</strong></div>","89,71,82","1510","1,0,0,0,0,0,3,0,0","2","3","1,0,0,2,3,0,0,0,0","1,2,3,0,0,0,0,0,0","UA_with_intermediate","0","practice","","",""
"1080","89","poldrack-single-stim","12","90457","0.0-9.0-0.1-1.1","sub-13","","1080","0","to_board","<div class = watt_canvas><div class=""watt_vertical_line""></div></div><div class = watt_your_board><div class = watt_base></div><div class = watt_board_label><strong>Votre Planche</strong></div><div id = watt_peg_1><div class = watt_peg></div></div><div class = special id = watt_peg_1 onclick = ""pegClick(this.id)""><div class = ""watt_ball watt_Blue""><div class = watt_ball_label>B</div></div></div><div id = watt_peg_2><div class = watt_peg></div></div><div class = special id = watt_peg_2 onclick = ""pegClick(this.id)""></div><div id = watt_peg_3><div class = watt_peg></div></div><div class = special id = watt_peg_3 onclick = ""pegClick(this.id)""><div class = ""watt_ball watt_Green""><div class = watt_ball_label>G</div></div></div></div><div class = watt_peg_board><div class = watt_base></div><div class = watt_board_label><strong>Planche Cible</strong></div><div id = watt_peg_1><div class = watt_peg></div></div><div id = watt_peg_1 ><div class = ""watt_ball watt_Blue""><div class = watt_ball_label>B</div></div><div class = ""watt_ball watt_Red""><div class = watt_ball_label>R</div></div><div class = ""watt_ball watt_Green""><div class = watt_ball_label>G</div></div></div><div id = watt_peg_2><div class = watt_peg></div></div><div id = watt_peg_2 ></div><div id = watt_peg_3><div class = watt_peg></div></div><div id = watt_peg_3 ></div></div><div class = watt_hand_box><div class = ""watt_hand_ball watt_Red""><div class = watt_ball_label>R</div></div></div><div class = watt_hand_label><strong>Boule en main</strong></div>","89,71,82","1080","1,2,0,0,0,0,3,0,0","2","3","1,0,0,2,3,0,0,0,0","1,2,3,0,0,0,0,0,0","UA_with_intermediate","0","practice","","",""
"1162","82","poldrack-single-stim","13","91624","0.0-9.0-0.2-0.2","sub-13","","1162","0","to_hand","<div class = watt_canvas><div class=""watt_vertical_line""></div></div><div class = watt_your_board><div class = watt_base></div><div class = watt_board_label><strong>Votre Planche</strong></div><div id = watt_peg_1><div class = watt_peg></div></div><div class = special id = watt_peg_1 onclick = ""pegClick(this.id)""><div class = ""watt_ball watt_Blue""><div class = watt_ball_label>B</div></div><div class = ""watt_ball watt_Red""><div class = watt_ball_label>R</div></div></div><div id = watt_peg_2><div class = watt_peg></div></div><div id = watt_peg_2 onclick = ""pegClick(this.id)""></div><div id = watt_peg_3><div class = watt_peg></div></div><div class = special id = watt_peg_3 onclick = ""pegClick(this.id)""><div class = ""watt_ball watt_Green""><div class = watt_ball_label>G</div></div></div></div><div class = watt_peg_board><div class = watt_base></div><div class = watt_board_label><strong>Planche Cible</strong></div><div id = watt_peg_1><div class = watt_peg></div></div><div id = watt_peg_1 ><div class = ""watt_ball watt_Blue""><div class = watt_ball_label>B</div></div><div class = ""watt_ball watt_Red""><div class = watt_ball_label>R</div></div><div class = ""watt_ball watt_Green""><div class = watt_ball_label>G</div></div></div><div id = watt_peg_2><div class = watt_peg></div></div><div id = watt_peg_2 ></div><div id = watt_peg_3><div class = watt_peg></div></div><div id = watt_peg_3 ></div></div><div class = watt_hand_box></div><div class = watt_hand_label><strong>Boule en main</strong></div>","89,82","1162","1,2,0,0,0,0,0,0,0","3","3","1,0,0,2,3,0,0,0,0","1,2,3,0,0,0,0,0,0","UA_with_intermediate","0","practice","","",""
"743","89","poldrack-single-stim","14","92376","0.0-9.0-0.2-1.2","sub-13","","743","0","to_board","<div class = watt_canvas><div class=""watt_vertical_line""></div></div><div class = watt_your_board><div class = watt_base></div><div class = watt_board_label><strong>Votre Planche</strong></div><div id = watt_peg_1><div class = watt_peg></div></div><div class = special id = watt_peg_1 onclick = ""pegClick(this.id)""><div class = ""watt_ball watt_Blue""><div class = watt_ball_label>B</div></div><div class = ""watt_ball watt_Red""><div class = watt_ball_label>R</div></div></div><div id = watt_peg_2><div class = watt_peg></div></div><div class = special id = watt_peg_2 onclick = ""pegClick(this.id)""></div><div id = watt_peg_3><div class = watt_peg></div></div><div class = special id = watt_peg_3 onclick = ""pegClick(this.id)""></div></div><div class = watt_peg_board><div class = watt_base></div><div class = watt_board_label><strong>Planche Cible</strong></div><div id = watt_peg_1><div class = watt_peg></div></div><div id = watt_peg_1 ><div class = ""watt_ball watt_Blue""><div class = watt_ball_label>B</div></div><div class = ""watt_ball watt_Red""><div class = watt_ball_label>R</div></div><div class = ""watt_ball watt_Green""><div class = watt_ball_label>G</div></div></div><div id = watt_peg_2><div class = watt_peg></div></div><div id = watt_peg_2 ></div><div id = watt_peg_3><div class = watt_peg></div></div><div id = watt_peg_3 ></div></div><div class = watt_hand_box><div class = ""watt_hand_ball watt_Green""><div class = watt_ball_label>G</div></div></div><div class = watt_hand_label><strong>Boule en main</strong></div>","89,71,82","743","1,2,3,0,0,0,0,0,0","3","3","1,0,0,2,3,0,0,0,0","1,2,3,0,0,0,0,0,0","UA_with_intermediate","0","practice","","",""
"-1","-1","poldrack-single-stim","15","94893","0.0-9.0-1.0","sub-13","","2500","0","feedback","<div class = watt_canvas><div class=""watt_vertical_line""></div></div><div class = watt_your_board><div class = watt_base></div><div class = watt_board_label><strong>Votre Planche</strong></div><div id = watt_peg_1><div class = watt_peg></div></div><div id = watt_peg_1 ><div class = ""watt_ball watt_Blue""><div class = watt_ball_label>B</div></div><div class = ""watt_ball watt_Red""><div class = watt_ball_label>R</div></div><div class = ""watt_ball watt_Green""><div class = watt_ball_label>G</div></div></div><div id = watt_peg_2><div class = watt_peg></div></div><div id = watt_peg_2 ></div><div id = watt_peg_3><div class = watt_peg></div></div><div id = watt_peg_3 ></div></div><div class = watt_peg_board><div class = watt_base></div><div class = watt_board_label><strong>Planche Cible</strong></div><div id = watt_peg_1><div class = watt_peg></div></div><div id = watt_peg_1 ><div class = ""watt_ball watt_Blue""><div class = watt_ball_label>B</div></div><div class = ""watt_ball watt_Red""><div class = watt_ball_label>R</div></div><div class = ""watt_ball watt_Green""><div class = watt_ball_label>G</div></div></div><div id = watt_peg_2><div class = watt_peg></div></div><div id = watt_peg_2 ></div><div id = watt_peg_3><div class = watt_peg></div></div><div id = watt_peg_3 ></div></div><div class = watt_feedbackbox><p class = center-text>Complete</p></div>","none","1000","","3","3","","","","","practice","11591","true",""
"4763","89","poldrack-single-stim","16","99668","0.0-9.1-0.3-0.3","sub-13","","4763","0","to_hand","<div class = watt_canvas><div class=""watt_vertical_line""></div></div><div class = watt_your_board><div class = watt_base></div><div class = watt_board_label><strong>Votre Planche</strong></div><div id = watt_peg_1><div class = watt_peg></div></div><div class = special id = watt_peg_1 onclick = ""pegClick(this.id)""><div class = ""watt_ball watt_Red""><div class = watt_ball_label>R</div></div><div class = ""watt_ball watt_Blue""><div class = watt_ball_label>B</div></div></div><div id = watt_peg_2><div class = watt_peg></div></div><div class = special id = watt_peg_2 onclick = ""pegClick(this.id)""><div class = ""watt_ball watt_Green""><div class = watt_ball_label>G</div></div></div><div id = watt_peg_3><div class = watt_peg></div></div><div id = watt_peg_3 onclick = ""pegClick(this.id)""></div></div><div class = watt_peg_board><div class = watt_base></div><div class = watt_board_label><strong>Planche Cible</strong></div><div id = watt_peg_1><div class = watt_peg></div></div><div id = watt_peg_1 ><div class = ""watt_ball watt_Red""><div class = watt_ball_label>R</div></div><div class = ""watt_ball watt_Green""><div class = watt_ball_label>G</div></div><div class = ""watt_ball watt_Blue""><div class = watt_ball_label>B</div></div></div><div id = watt_peg_2><div class = watt_peg></div></div><div id = watt_peg_2 ></div><div id = watt_peg_3><div class = watt_peg></div></div><div id = watt_peg_3 ></div></div><div class = watt_hand_box></div><div class = watt_hand_label><strong>Boule en main</strong></div>","89,71","4763","1,0,0,3,0,0,0,0,0","1","3","1,2,0,3,0,0,0,0,0","1,3,2,0,0,0,0,0,0","UA_with_intermediate","1","practice","","",""
"1086","82","poldrack-single-stim","17","100759","0.0-9.1-0.3-1.3","sub-13","","1086","0","to_board","<div class = watt_canvas><div class=""watt_vertical_line""></div></div><div class = watt_your_board><div class = watt_base></div><div class = watt_board_label><strong>Votre Planche</strong></div><div id = watt_peg_1><div class = watt_peg></div></div><div class = special id = watt_peg_1 onclick = ""pegClick(this.id)""><div class = ""watt_ball watt_Red""><div class = watt_ball_label>R</div></div></div><div id = watt_peg_2><div class = watt_peg></div></div><div class = special id = watt_peg_2 onclick = ""pegClick(this.id)""><div class = ""watt_ball watt_Green""><div class = watt_ball_label>G</div></div></div><div id = watt_peg_3><div class = watt_peg></div></div><div class = special id = watt_peg_3 onclick = ""pegClick(this.id)""></div></div><div class = watt_peg_board><div class = watt_base></div><div class = watt_board_label><strong>Planche Cible</strong></div><div id = watt_peg_1><div class = watt_peg></div></div><div id = watt_peg_1 ><div class = ""watt_ball watt_Red""><div class = watt_ball_label>R</div></div><div class = ""watt_ball watt_Green""><div class = watt_ball_label>G</div></div><div class = ""watt_ball watt_Blue""><div class = watt_ball_label>B</div></div></div><div id = watt_peg_2><div class = watt_peg></div></div><div id = watt_peg_2 ></div><div id = watt_peg_3><div class = watt_peg></div></div><div id = watt_peg_3 ></div></div><div class = watt_hand_box><div class = ""watt_hand_ball watt_Blue""><div class = watt_ball_label>B</div></div></div><div class = watt_hand_label><strong>Boule en main</strong></div>","89,71,82","1086","1,0,0,3,0,0,2,0,0","1","3","1,2,0,3,0,0,0,0,0","1,3,2,0,0,0,0,0,0","UA_with_intermediate","1","practice","","",""
"1836","71","poldrack-single-stim","18","102602","0.0-9.1-0.4-0.4","sub-13","","1836","0","to_hand","<div class = watt_canvas><div class=""watt_vertical_line""></div></div><div class = watt_your_board><div class = watt_base></div><div class = watt_board_label><strong>Votre Planche</strong></div><div id = watt_peg_1><div class = watt_peg></div></div><div class = special id = watt_peg_1 onclick = ""pegClick(this.id)""><div class = ""watt_ball watt_Red""><div class = watt_ball_label>R</div></div></div><div id = watt_peg_2><div class = watt_peg></div></div><div class = special id = watt_peg_2 onclick = ""pegClick(this.id)""><div class = ""watt_ball watt_Green""><div class = watt_ball_label>G</div></div></div><div id = watt_peg_3><div class = watt_peg></div></div><div class = special id = watt_peg_3 onclick = ""pegClick(this.id)""><div class = ""watt_ball watt_Blue""><div class = watt_ball_label>B</div></div></div></div><div class = watt_peg_board><div class = watt_base></div><div class = watt_board_label><strong>Planche Cible</strong></div><div id = watt_peg_1><div class = watt_peg></div></div><div id = watt_peg_1 ><div class = ""watt_ball watt_Red""><div class = watt_ball_label>R</div></div><div class = ""watt_ball watt_Green""><div class = watt_ball_label>G</div></div><div class = ""watt_ball watt_Blue""><div class = watt_ball_label>B</div></div></div><div id = watt_peg_2><div class = watt_peg></div></div><div id = watt_peg_2 ></div><div id = watt_peg_3><div class = watt_peg></div></div><div id = watt_peg_3 ></div></div><div class = watt_hand_box></div><div class = watt_hand_label><strong>Boule en main</strong></div>","89,71,82","1836","1,0,0,0,0,0,2,0,0","2","3","1,2,0,3,0,0,0,0,0","1,3,2,0,0,0,0,0,0","UA_with_intermediate","1","practice","","",""
"954","89","poldrack-single-stim","19","103562","0.0-9.1-0.4-1.4","sub-13","","954","0","to_board","<div class = watt_canvas><div class=""watt_vertical_line""></div></div><div class = watt_your_board><div class = watt_base></div><div class = watt_board_label><strong>Votre Planche</strong></div><div id = watt_peg_1><div class = watt_peg></div></div><div class = special id = watt_peg_1 onclick = ""pegClick(this.id)""><div class = ""watt_ball watt_Red""><div class = watt_ball_label>R</div></div></div><div id = watt_peg_2><div class = watt_peg></div></div><div class = special id = watt_peg_2 onclick = ""pegClick(this.id)""></div><div id = watt_peg_3><div class = watt_peg></div></div><div class = special id = watt_peg_3 onclick = ""pegClick(this.id)""><div class = ""watt_ball watt_Blue""><div class = watt_ball_label>B</div></div></div></div><div class = watt_peg_board><div class = watt_base></div><div class = watt_board_label><strong>Planche Cible</strong></div><div id = watt_peg_1><div class = watt_peg></div></div><div id = watt_peg_1 ><div class = ""watt_ball watt_Red""><div class = watt_ball_label>R</div></div><div class = ""watt_ball watt_Green""><div class = watt_ball_label>G</div></div><div class = ""watt_ball watt_Blue""><div class = watt_ball_label>B</div></div></div><div id = watt_peg_2><div class = watt_peg></div></div><div id = watt_peg_2 ></div><div id = watt_peg_3><div class = watt_peg></div></div><div id = watt_peg_3 ></div></div><div class = watt_hand_box><div class = ""watt_hand_ball watt_Green""><div class = watt_ball_label>G</div></div></div><div class = watt_hand_label><strong>Boule en main</strong></div>","89,71,82","954","1,3,0,0,0,0,2,0,0","2","3","1,2,0,3,0,0,0,0,0","1,3,2,0,0,0,0,0,0","UA_with_intermediate","1","practice","","",""
"1408","82","poldrack-single-stim","20","104978","0.0-9.1-0.5-0.5","sub-13","","1408","0","to_hand","<div class = watt_canvas><div class=""watt_vertical_line""></div></div><div class = watt_your_board><div class = watt_base></div><div class = watt_board_label><strong>Votre Planche</strong></div><div id = watt_peg_1><div class = watt_peg></div></div><div class = special id = watt_peg_1 onclick = ""pegClick(this.id)""><div class = ""watt_ball watt_Red""><div class = watt_ball_label>R</div></div><div class = ""watt_ball watt_Green""><div class = watt_ball_label>G</div></div></div><div id = watt_peg_2><div class = watt_peg></div></div><div id = watt_peg_2 onclick = ""pegClick(this.id)""></div><div id = watt_peg_3><div class = watt_peg></div></div><div class = special id = watt_peg_3 onclick = ""pegClick(this.id)""><div class = ""watt_ball watt_Blue""><div class = watt_ball_label>B</div></div></div></div><div class = watt_peg_board><div class = watt_base></div><div class = watt_board_label><strong>Planche Cible</strong></div><div id = watt_peg_1><div class = watt_peg></div></div><div id = watt_peg_1 ><div class = ""watt_ball watt_Red""><div class = watt_ball_label>R</div></div><div class = ""watt_ball watt_Green""><div class = watt_ball_label>G</div></div><div class = ""watt_ball watt_Blue""><div class = watt_ball_label>B</div></div></div><div id = watt_peg_2><div class = watt_peg></div></div><div id = watt_peg_2 ></div><div id = watt_peg_3><div class = watt_peg></div></div><div id = watt_peg_3 ></div></div><div class = watt_hand_box></div><div class = watt_hand_label><strong>Boule en main</strong></div>","89,82","1408","1,3,0,0,0,0,0,0,0","3","3","1,2,0,3,0,0,0,0,0","1,3,2,0,0,0,0,0,0","UA_with_intermediate","1","practice","","",""
"472","89","poldrack-single-stim","21","105455","0.0-9.1-0.5-1.5","sub-13","","472","0","to_board","<div class = watt_canvas><div class=""watt_vertical_line""></div></div><div class = watt_your_board><div class = watt_base></div><div class = watt_board_label><strong>Votre Planche</strong></div><div id = watt_peg_1><div class = watt_peg></div></div><div class = special id = watt_peg_1 onclick = ""pegClick(this.id)""><div class = ""watt_ball watt_Red""><div class = watt_ball_label>R</div></div><div class = ""watt_ball watt_Green""><div class = watt_ball_label>G</div></div></div><div id = watt_peg_2><div class = watt_peg></div></div><div class = special id = watt_peg_2 onclick = ""pegClick(this.id)""></div><div id = watt_peg_3><div class = watt_peg></div></div><div class = special id = watt_peg_3 onclick = ""pegClick(this.id)""></div></div><div class = watt_peg_board><div class = watt_base></div><div class = watt_board_label><strong>Planche Cible</strong></div><div id = watt_peg_1><div class = watt_peg></div></div><div id = watt_peg_1 ><div class = ""watt_ball watt_Red""><div class = watt_ball_label>R</div></div><div class = ""watt_ball watt_Green""><div class = watt_ball_label>G</div></div><div class = ""watt_ball watt_Blue""><div class = watt_ball_label>B</div></div></div><div id = watt_peg_2><div class = watt_peg></div></div><div id = watt_peg_2 ></div><div id = watt_peg_3><div class = watt_peg></div></div><div id = watt_peg_3 ></div></div><div class = watt_hand_box><div class = ""watt_hand_ball watt_Blue""><div class = watt_ball_label>B</div></div></div><div class = watt_hand_label><strong>Boule en main</strong></div>","89,71,82","472","1,3,2,0,0,0,0,0,0","3","3","1,2,0,3,0,0,0,0,0","1,3,2,0,0,0,0,0,0","UA_with_intermediate","1","practice","","",""
"-1","-1","poldrack-single-stim","22","107561","0.0-9.1-1.1","sub-13","","2100","0","feedback","<div class = watt_canvas><div class=""watt_vertical_line""></div></div><div class = watt_your_board><div class = watt_base></div><div class = watt_board_label><strong>Votre Planche</strong></div><div id = watt_peg_1><div class = watt_peg></div></div><div id = watt_peg_1 ><div class = ""watt_ball watt_Red""><div class = watt_ball_label>R</div></div><div class = ""watt_ball watt_Green""><div class = watt_ball_label>G</div></div><div class = ""watt_ball watt_Blue""><div class = watt_ball_label>B</div></div></div><div id = watt_peg_2><div class = watt_peg></div></div><div id = watt_peg_2 ></div><div id = watt_peg_3><div class = watt_peg></div></div><div id = watt_peg_3 ></div></div><div class = watt_peg_board><div class = watt_base></div><div class = watt_board_label><strong>Planche Cible</strong></div><div id = watt_peg_1><div class = watt_peg></div></div><div id = watt_peg_1 ><div class = ""watt_ball watt_Red""><div class = watt_ball_label>R</div></div><div class = ""watt_ball watt_Green""><div class = watt_ball_label>G</div></div><div class = ""watt_ball watt_Blue""><div class = watt_ball_label>B</div></div></div><div id = watt_peg_2><div class = watt_peg></div></div><div id = watt_peg_2 ></div><div id = watt_peg_3><div class = watt_peg></div></div><div id = watt_peg_3 ></div></div><div class = watt_feedbackbox><p class = center-text>Complete</p></div>","none","1000","","3","3","","","","","practice","12669","true",""
"5808","82","poldrack-single-stim","23","113376","0.0-9.2-0.6-0.6","sub-13","","5808","0","to_hand","<div class = watt_canvas><div class=""watt_vertical_line""></div></div><div class = watt_your_board><div class = watt_base></div><div class = watt_board_label><strong>Votre Planche</strong></div><div id = watt_peg_1><div class = watt_peg></div></div><div id = watt_peg_1 onclick = ""pegClick(this.id)""></div><div id = watt_peg_2><div class = watt_peg></div></div><div class = special id = watt_peg_2 onclick = ""pegClick(this.id)""><div class = ""watt_ball watt_Red""><div class = watt_ball_label>R</div></div><div class = ""watt_ball watt_Blue""><div class = watt_ball_label>B</div></div></div><div id = watt_peg_3><div class = watt_peg></div></div><div class = special id = watt_peg_3 onclick = ""pegClick(this.id)""><div class = ""watt_ball watt_Green""><div class = watt_ball_label>G</div></div></div></div><div class = watt_peg_board><div class = watt_base></div><div class = watt_board_label><strong>Planche Cible</strong></div><div id = watt_peg_1><div class = watt_peg></div></div><div id = watt_peg_1 ><div class = ""watt_ball watt_Green""><div class = watt_ball_label>G</div></div><div class = ""watt_ball watt_Blue""><div class = watt_ball_label>B</div></div><div class = ""watt_ball watt_Red""><div class = watt_ball_label>R</div></div></div><div id = watt_peg_2><div class = watt_peg></div></div><div id = watt_peg_2 ></div><div id = watt_peg_3><div class = watt_peg></div></div><div id = watt_peg_3 ></div></div><div class = watt_hand_box></div><div class = watt_hand_label><strong>Boule en main</strong></div>","71,82","5808","0,0,0,1,2,0,0,0,0","1","3","0,0,0,1,2,0,3,0,0","3,2,1,0,0,0,0,0,0","UA_without_intermediate","2","practice","","",""
"1196","89","poldrack-single-stim","24","114578","0.0-9.2-0.6-1.6","sub-13","","1196","0","to_board","<div class = watt_canvas><div class=""watt_vertical_line""></div></div><div class = watt_your_board><div class = watt_base></div><div class = watt_board_label><strong>Votre Planche</strong></div><div id = watt_peg_1><div class = watt_peg></div></div><div class = special id = watt_peg_1 onclick = ""pegClick(this.id)""></div><div id = watt_peg_2><div class = watt_peg></div></div><div class = special id = watt_peg_2 onclick = ""pegClick(this.id)""><div class = ""watt_ball watt_Red""><div class = watt_ball_label>R</div></div><div class = ""watt_ball watt_Blue""><div class = watt_ball_label>B</div></div></div><div id = watt_peg_3><div class = watt_peg></div></div><div class = special id = watt_peg_3 onclick = ""pegClick(this.id)""></div></div><div class = watt_peg_board><div class = watt_base></div><div class = watt_board_label><strong>Planche Cible</strong></div><div id = watt_peg_1><div class = watt_peg></div></div><div id = watt_peg_1 ><div class = ""watt_ball watt_Green""><div class = watt_ball_label>G</div></div><div class = ""watt_ball watt_Blue""><div class = watt_ball_label>B</div></div><div class = ""watt_ball watt_Red""><div class = watt_ball_label>R</div></div></div><div id = watt_peg_2><div class = watt_peg></div></div><div id = watt_peg_2 ></div><div id = watt_peg_3><div class = watt_peg></div></div><div id = watt_peg_3 ></div></div><div class = watt_hand_box><div class = ""watt_hand_ball watt_Green""><div class = watt_ball_label>G</div></div></div><div class = watt_hand_label><strong>Boule en main</strong></div>","89,71,82","1196","3,0,0,1,2,0,0,0,0","1","3","0,0,0,1,2,0,3,0,0","3,2,1,0,0,0,0,0,0","UA_without_intermediate","2","practice","","",""
"1738","71","poldrack-single-stim","25","116323","0.0-9.2-0.7-0.7","sub-13","","1738","0","to_hand","<div class = watt_canvas><div class=""watt_vertical_line""></div></div><div class = watt_your_board><div class = watt_base></div><div class = watt_board_label><strong>Votre Planche</strong></div><div id = watt_peg_1><div class = watt_peg></div></div><div class = special id = watt_peg_1 onclick = ""pegClick(this.id)""><div class = ""watt_ball watt_Green""><div class = watt_ball_label>G</div></div></div><div id = watt_peg_2><div class = watt_peg></div></div><div class = special id = watt_peg_2 onclick = ""pegClick(this.id)""><div class = ""watt_ball watt_Red""><div class = watt_ball_label>R</div></div><div class = ""watt_ball watt_Blue""><div class = watt_ball_label>B</div></div></div><div id = watt_peg_3><div class = watt_peg></div></div><div id = watt_peg_3 onclick = ""pegClick(this.id)""></div></div><div class = watt_peg_board><div class = watt_base></div><div class = watt_board_label><strong>Planche Cible</strong></div><div id = watt_peg_1><div class = watt_peg></div></div><div id = watt_peg_1 ><div class = ""watt_ball watt_Green""><div class = watt_ball_label>G</div></div><div class = ""watt_ball watt_Blue""><div class = watt_ball_label>B</div></div><div class = ""watt_ball watt_Red""><div class = watt_ball_label>R</div></div></div><div id = watt_peg_2><div class = watt_peg></div></div><div id = watt_peg_2 ></div><div id = watt_peg_3><div class = watt_peg></div></div><div id = watt_peg_3 ></div></div><div class = watt_hand_box></div><div class = watt_hand_label><strong>Boule en main</strong></div>","89,71","1738","3,0,0,1,0,0,0,0,0","2","3","0,0,0,1,2,0,3,0,0","3,2,1,0,0,0,0,0,0","UA_without_intermediate","2","practice","","",""
"994","89","poldrack-single-stim","26","117320","0.0-9.2-0.7-1.7","sub-13","","994","0","to_board","<div class = watt_canvas><div class=""watt_vertical_line""></div></div><div class = watt_your_board><div class = watt_base></div><div class = watt_board_label><strong>Votre Planche</strong></div><div id = watt_peg_1><div class = watt_peg></div></div><div class = special id = watt_peg_1 onclick = ""pegClick(this.id)""><div class = ""watt_ball watt_Green""><div class = watt_ball_label>G</div></div></div><div id = watt_peg_2><div class = watt_peg></div></div><div class = special id = watt_peg_2 onclick = ""pegClick(this.id)""><div class = ""watt_ball watt_Red""><div class = watt_ball_label>R</div></div></div><div id = watt_peg_3><div class = watt_peg></div></div><div class = special id = watt_peg_3 onclick = ""pegClick(this.id)""></div></div><div class = watt_peg_board><div class = watt_base></div><div class = watt_board_label><strong>Planche Cible</strong></div><div id = watt_peg_1><div class = watt_peg></div></div><div id = watt_peg_1 ><div class = ""watt_ball watt_Green""><div class = watt_ball_label>G</div></div><div class = ""watt_ball watt_Blue""><div class = watt_ball_label>B</div></div><div class = ""watt_ball watt_Red""><div class = watt_ball_label>R</div></div></div><div id = watt_peg_2><div class = watt_peg></div></div><div id = watt_peg_2 ></div><div id = watt_peg_3><div class = watt_peg></div></div><div id = watt_peg_3 ></div></div><div class = watt_hand_box><div class = ""watt_hand_ball watt_Blue""><div class = watt_ball_label>B</div></div></div><div class = watt_hand_label><strong>Boule en main</strong></div>","89,71,82","994","3,2,0,1,0,0,0,0,0","2","3","0,0,0,1,2,0,3,0,0","3,2,1,0,0,0,0,0,0","UA_without_intermediate","2","practice","","",""
"1142","71","poldrack-single-stim","27","118478","0.0-9.2-0.8-0.8","sub-13","","1142","0","to_hand","<div class = watt_canvas><div class=""watt_vertical_line""></div></div><div class = watt_your_board><div class = watt_base></div><div class = watt_board_label><strong>Votre Planche</strong></div><div id = watt_peg_1><div class = watt_peg></div></div><div class = special id = watt_peg_1 onclick = ""pegClick(this.id)""><div class = ""watt_ball watt_Green""><div class = watt_ball_label>G</div></div><div class = ""watt_ball watt_Blue""><div class = watt_ball_label>B</div></div></div><div id = watt_peg_2><div class = watt_peg></div></div><div class = special id = watt_peg_2 onclick = ""pegClick(this.id)""><div class = ""watt_ball watt_Red""><div class = watt_ball_label>R</div></div></div><div id = watt_peg_3><div class = watt_peg></div></div><div id = watt_peg_3 onclick = ""pegClick(this.id)""></div></div><div class = watt_peg_board><div class = watt_base></div><div class = watt_board_label><strong>Planche Cible</strong></div><div id = watt_peg_1><div class = watt_peg></div></div><div id = watt_peg_1 ><div class = ""watt_ball watt_Green""><div class = watt_ball_label>G</div></div><div class = ""watt_ball watt_Blue""><div class = watt_ball_label>B</div></div><div class = ""watt_ball watt_Red""><div class = watt_ball_label>R</div></div></div><div id = watt_peg_2><div class = watt_peg></div></div><div id = watt_peg_2 ></div><div id = watt_peg_3><div class = watt_peg></div></div><div id = watt_peg_3 ></div></div><div class = watt_hand_box></div><div class = watt_hand_label><strong>Boule en main</strong></div>","89,71","1142","3,2,0,0,0,0,0,0,0","3","3","0,0,0,1,2,0,3,0,0","3,2,1,0,0,0,0,0,0","UA_without_intermediate","2","practice","","",""
"450","89","poldrack-single-stim","28","118931","0.0-9.2-0.8-1.8","sub-13","","450","0","to_board","<div class = watt_canvas><div class=""watt_vertical_line""></div></div><div class = watt_your_board><div class = watt_base></div><div class = watt_board_label><strong>Votre Planche</strong></div><div id = watt_peg_1><div class = watt_peg></div></div><div class = special id = watt_peg_1 onclick = ""pegClick(this.id)""><div class = ""watt_ball watt_Green""><div class = watt_ball_label>G</div></div><div class = ""watt_ball watt_Blue""><div class = watt_ball_label>B</div></div></div><div id = watt_peg_2><div class = watt_peg></div></div><div class = special id = watt_peg_2 onclick = ""pegClick(this.id)""></div><div id = watt_peg_3><div class = watt_peg></div></div><div class = special id = watt_peg_3 onclick = ""pegClick(this.id)""></div></div><div class = watt_peg_board><div class = watt_base></div><div class = watt_board_label><strong>Planche Cible</strong></div><div id = watt_peg_1><div class = watt_peg></div></div><div id = watt_peg_1 ><div class = ""watt_ball watt_Green""><div class = watt_ball_label>G</div></div><div class = ""watt_ball watt_Blue""><div class = watt_ball_label>B</div></div><div class = ""watt_ball watt_Red""><div class = watt_ball_label>R</div></div></div><div id = watt_peg_2><div class = watt_peg></div></div><div id = watt_peg_2 ></div><div id = watt_peg_3><div class = watt_peg></div></div><div id = watt_peg_3 ></div></div><div class = watt_hand_box><div class = ""watt_hand_ball watt_Red""><div class = watt_ball_label>R</div></div></div><div class = watt_hand_label><strong>Boule en main</strong></div>","89,71,82","450","3,2,1,0,0,0,0,0,0","3","3","0,0,0,1,2,0,3,0,0","3,2,1,0,0,0,0,0,0","UA_without_intermediate","2","practice","","",""
"-1","-1","poldrack-single-stim","29","121142","0.0-9.2-1.2","sub-13","","2200","0","feedback","<div class = watt_canvas><div class=""watt_vertical_line""></div></div><div class = watt_your_board><div class = watt_base></div><div class = watt_board_label><strong>Votre Planche</strong></div><div id = watt_peg_1><div class = watt_peg></div></div><div id = watt_peg_1 ><div class = ""watt_ball watt_Green""><div class = watt_ball_label>G</div></div><div class = ""watt_ball watt_Blue""><div class = watt_ball_label>B</div></div><div class = ""watt_ball watt_Red""><div class = watt_ball_label>R</div></div></div><div id = watt_peg_2><div class = watt_peg></div></div><div id = watt_peg_2 ></div><div id = watt_peg_3><div class = watt_peg></div></div><div id = watt_peg_3 ></div></div><div class = watt_peg_board><div class = watt_base></div><div class = watt_board_label><strong>Planche Cible</strong></div><div id = watt_peg_1><div class = watt_peg></div></div><div id = watt_peg_1 ><div class = ""watt_ball watt_Green""><div class = watt_ball_label>G</div></div><div class = ""watt_ball watt_Blue""><div class = watt_ball_label>B</div></div><div class = ""watt_ball watt_Red""><div class = watt_ball_label>R</div></div></div><div id = watt_peg_2><div class = watt_peg></div></div><div id = watt_peg_2 ></div><div id = watt_peg_3><div class = watt_peg></div></div><div id = watt_peg_3 ></div></div><div class = watt_feedbackbox><p class = center-text>Complete</p></div>","none","1000","","3","3","","","","","practice","13580","true",""
"3526","71","poldrack-single-stim","30","124675","0.0-9.3-0.9-0.9","sub-13","","3526","0","to_hand","<div class = watt_canvas><div class=""watt_vertical_line""></div></div><div class = watt_your_board><div class = watt_base></div><div class = watt_board_label><strong>Votre Planche</strong></div><div id = watt_peg_1><div class = watt_peg></div></div><div id = watt_peg_1 onclick = ""pegClick(this.id)""></div><div id = watt_peg_2><div class = watt_peg></div></div><div class = special id = watt_peg_2 onclick = ""pegClick(this.id)""><div class = ""watt_ball watt_Blue""><div class = watt_ball_label>B</div></div><div class = ""watt_ball watt_Red""><div class = watt_ball_label>R</div></div></div><div id = watt_peg_3><div class = watt_peg></div></div><div class = special id = watt_peg_3 onclick = ""pegClick(this.id)""><div class = ""watt_ball watt_Green""><div class = watt_ball_label>G</div></div></div></div><div class = watt_peg_board><div class = watt_base></div><div class = watt_board_label><strong>Planche Cible</strong></div><div id = watt_peg_1><div class = watt_peg></div></div><div id = watt_peg_1 ><div class = ""watt_ball watt_Red""><div class = watt_ball_label>R</div></div><div class = ""watt_ball watt_Green""><div class = watt_ball_label>G</div></div><div class = ""watt_ball watt_Blue""><div class = watt_ball_label>B</div></div></div><div id = watt_peg_2><div class = watt_peg></div></div><div id = watt_peg_2 ></div><div id = watt_peg_3><div class = watt_peg></div></div><div id = watt_peg_3 ></div></div><div class = watt_hand_box></div><div class = watt_hand_label><strong>Boule en main</strong></div>","71,82","3526","0,0,0,1,0,0,3,0,0","1","3","0,0,0,1,2,0,3,0,0","2,3,1,0,0,0,0,0,0","UA_without_intermediate","3","practice","","",""
"932","89","poldrack-single-stim","31","125612","0.0-9.3-0.9-1.9","sub-13","","932","0","to_board","<div class = watt_canvas><div class=""watt_vertical_line""></div></div><div class = watt_your_board><div class = watt_base></div><div class = watt_board_label><strong>Votre Planche</strong></div><div id = watt_peg_1><div class = watt_peg></div></div><div class = special id = watt_peg_1 onclick = ""pegClick(this.id)""></div><div id = watt_peg_2><div class = watt_peg></div></div><div class = special id = watt_peg_2 onclick = ""pegClick(this.id)""><div class = ""watt_ball watt_Blue""><div class = watt_ball_label>B</div></div></div><div id = watt_peg_3><div class = watt_peg></div></div><div class = special id = watt_peg_3 onclick = ""pegClick(this.id)""><div class = ""watt_ball watt_Green""><div class = watt_ball_label>G</div></div></div></div><div class = watt_peg_board><div class = watt_base></div><div class = watt_board_label><strong>Planche Cible</strong></div><div id = watt_peg_1><div class = watt_peg></div></div><div id = watt_peg_1 ><div class = ""watt_ball watt_Red""><div class = watt_ball_label>R</div></div><div class = ""watt_ball watt_Green""><div class = watt_ball_label>G</div></div><div class = ""watt_ball watt_Blue""><div class = watt_ball_label>B</div></div></div><div id = watt_peg_2><div class = watt_peg></div></div><div id = watt_peg_2 ></div><div id = watt_peg_3><div class = watt_peg></div></div><div id = watt_peg_3 ></div></div><div class = watt_hand_box><div class = ""watt_hand_ball watt_Red""><div class = watt_ball_label>R</div></div></div><div class = watt_hand_label><strong>Boule en main</strong></div>","89,71,82","932","2,0,0,1,0,0,3,0,0","1","3","0,0,0,1,2,0,3,0,0","2,3,1,0,0,0,0,0,0","UA_without_intermediate","3","practice","","",""
"1339","82","poldrack-single-stim","32","126959","0.0-9.3-0.10-0.10","sub-13","","1339","0","to_hand","<div class = watt_canvas><div class=""watt_vertical_line""></div></div><div class = watt_your_board><div class = watt_base></div><div class = watt_board_label><strong>Votre Planche</strong></div><div id = watt_peg_1><div class = watt_peg></div></div><div class = special id = watt_peg_1 onclick = ""pegClick(this.id)""><div class = ""watt_ball watt_Red""><div class = watt_ball_label>R</div></div></div><div id = watt_peg_2><div class = watt_peg></div></div><div class = special id = watt_peg_2 onclick = ""pegClick(this.id)""><div class = ""watt_ball watt_Blue""><div class = watt_ball_label>B</div></div></div><div id = watt_peg_3><div class = watt_peg></div></div><div class = special id = watt_peg_3 onclick = ""pegClick(this.id)""><div class = ""watt_ball watt_Green""><div class = watt_ball_label>G</div></div></div></div><div class = watt_peg_board><div class = watt_base></div><div class = watt_board_label><strong>Planche Cible</strong></div><div id = watt_peg_1><div class = watt_peg></div></div><div id = watt_peg_1 ><div class = ""watt_ball watt_Red""><div class = watt_ball_label>R</div></div><div class = ""watt_ball watt_Green""><div class = watt_ball_label>G</div></div><div class = ""watt_ball watt_Blue""><div class = watt_ball_label>B</div></div></div><div id = watt_peg_2><div class = watt_peg></div></div><div id = watt_peg_2 ></div><div id = watt_peg_3><div class = watt_peg></div></div><div id = watt_peg_3 ></div></div><div class = watt_hand_box></div><div class = watt_hand_label><strong>Boule en main</strong></div>","89,71,82","1339","2,0,0,1,0,0,0,0,0","2","3","0,0,0,1,2,0,3,0,0","2,3,1,0,0,0,0,0,0","UA_without_intermediate","3","practice","","",""
"637","71","poldrack-single-stim","33","127601","0.0-9.3-0.10-1.10","sub-13","","637","0","to_board","<div class = watt_canvas><div class=""watt_vertical_line""></div></div><div class = watt_your_board><div class = watt_base></div><div class = watt_board_label><strong>Votre Planche</strong></div><div id = watt_peg_1><div class = watt_peg></div></div><div class = special id = watt_peg_1 onclick = ""pegClick(this.id)""><div class = ""watt_ball watt_Red""><div class = watt_ball_label>R</div></div></div><div id = watt_peg_2><div class = watt_peg></div></div><div class = special id = watt_peg_2 onclick = ""pegClick(this.id)""><div class = ""watt_ball watt_Blue""><div class = watt_ball_label>B</div></div></div><div id = watt_peg_3><div class = watt_peg></div></div><div class = special id = watt_peg_3 onclick = ""pegClick(this.id)""></div></div><div class = watt_peg_board><div class = watt_base></div><div class = watt_board_label><strong>Planche Cible</strong></div><div id = watt_peg_1><div class = watt_peg></div></div><div id = watt_peg_1 ><div class = ""watt_ball watt_Red""><div class = watt_ball_label>R</div></div><div class = ""watt_ball watt_Green""><div class = watt_ball_label>G</div></div><div class = ""watt_ball watt_Blue""><div class = watt_ball_label>B</div></div></div><div id = watt_peg_2><div class = watt_peg></div></div><div id = watt_peg_2 ></div><div id = watt_peg_3><div class = watt_peg></div></div><div id = watt_peg_3 ></div></div><div class = watt_hand_box><div class = ""watt_hand_ball watt_Green""><div class = watt_ball_label>G</div></div></div><div class = watt_hand_label><strong>Boule en main</strong></div>","89,71,82","637","2,0,0,1,3,0,0,0,0","2","3","0,0,0,1,2,0,3,0,0","2,3,1,0,0,0,0,0,0","UA_without_intermediate","3","practice","","",""
"1286","71","poldrack-single-stim","34","128895","0.0-9.3-0.11-0.11","sub-13","","1286","0","to_hand","<div class = watt_canvas><div class=""watt_vertical_line""></div></div><div class = watt_your_board><div class = watt_base></div><div class = watt_board_label><strong>Votre Planche</strong></div><div id = watt_peg_1><div class = watt_peg></div></div><div class = special id = watt_peg_1 onclick = ""pegClick(this.id)""><div class = ""watt_ball watt_Red""><div class = watt_ball_label>R</div></div></div><div id = watt_peg_2><div class = watt_peg></div></div><div class = special id = watt_peg_2 onclick = ""pegClick(this.id)""><div class = ""watt_ball watt_Blue""><div class = watt_ball_label>B</div></div><div class = ""watt_ball watt_Green""><div class = watt_ball_label>G</div></div></div><div id = watt_peg_3><div class = watt_peg></div></div><div id = watt_peg_3 onclick = ""pegClick(this.id)""></div></div><div class = watt_peg_board><div class = watt_base></div><div class = watt_board_label><strong>Planche Cible</strong></div><div id = watt_peg_1><div class = watt_peg></div></div><div id = watt_peg_1 ><div class = ""watt_ball watt_Red""><div class = watt_ball_label>R</div></div><div class = ""watt_ball watt_Green""><div class = watt_ball_label>G</div></div><div class = ""watt_ball watt_Blue""><div class = watt_ball_label>B</div></div></div><div id = watt_peg_2><div class = watt_peg></div></div><div id = watt_peg_2 ></div><div id = watt_peg_3><div class = watt_peg></div></div><div id = watt_peg_3 ></div></div><div class = watt_hand_box></div><div class = watt_hand_label><strong>Boule en main</strong></div>","89,71","1286","2,0,0,1,0,0,0,0,0","3","3","0,0,0,1,2,0,3,0,0","2,3,1,0,0,0,0,0,0","UA_without_intermediate","3","practice","","",""
"665","89","poldrack-single-stim","35","129563","0.0-9.3-0.11-1.11","sub-13","","665","0","to_board","<div class = watt_canvas><div class=""watt_vertical_line""></div></div><div class = watt_your_board><div class = watt_base></div><div class = watt_board_label><strong>Votre Planche</strong></div><div id = watt_peg_1><div class = watt_peg></div></div><div class = special id = watt_peg_1 onclick = ""pegClick(this.id)""><div class = ""watt_ball watt_Red""><div class = watt_ball_label>R</div></div></div><div id = watt_peg_2><div class = watt_peg></div></div><div class = special id = watt_peg_2 onclick = ""pegClick(this.id)""><div class = ""watt_ball watt_Blue""><div class = watt_ball_label>B</div></div></div><div id = watt_peg_3><div class = watt_peg></div></div><div class = special id = watt_peg_3 onclick = ""pegClick(this.id)""></div></div><div class = watt_peg_board><div class = watt_base></div><div class = watt_board_label><strong>Planche Cible</strong></div><div id = watt_peg_1><div class = watt_peg></div></div><div id = watt_peg_1 ><div class = ""watt_ball watt_Red""><div class = watt_ball_label>R</div></div><div class = ""watt_ball watt_Green""><div class = watt_ball_label>G</div></div><div class = ""watt_ball watt_Blue""><div class = watt_ball_label>B</div></div></div><div id = watt_peg_2><div class = watt_peg></div></div><div id = watt_peg_2 ></div><div id = watt_peg_3><div class = watt_peg></div></div><div id = watt_peg_3 ></div></div><div class = watt_hand_box><div class = ""watt_hand_ball watt_Green""><div class = watt_ball_label>G</div></div></div><div class = watt_hand_label><strong>Boule en main</strong></div>","89,71,82","665","2,3,0,1,0,0,0,0,0","3","3","0,0,0,1,2,0,3,0,0","2,3,1,0,0,0,0,0,0","UA_without_intermediate","3","practice","","",""
"1857","71","poldrack-single-stim","36","131429","0.0-9.3-0.12-0.12","sub-13","","1857","0","to_hand","<div class = watt_canvas><div class=""watt_vertical_line""></div></div><div class = watt_your_board><div class = watt_base></div><div class = watt_board_label><strong>Votre Planche</strong></div><div id = watt_peg_1><div class = watt_peg></div></div><div class = special id = watt_peg_1 onclick = ""pegClick(this.id)""><div class = ""watt_ball watt_Red""><div class = watt_ball_label>R</div></div><div class = ""watt_ball watt_Green""><div class = watt_ball_label>G</div></div></div><div id = watt_peg_2><div class = watt_peg></div></div><div class = special id = watt_peg_2 onclick = ""pegClick(this.id)""><div class = ""watt_ball watt_Blue""><div class = watt_ball_label>B</div></div></div><div id = watt_peg_3><div class = watt_peg></div></div><div id = watt_peg_3 onclick = ""pegClick(this.id)""></div></div><div class = watt_peg_board><div class = watt_base></div><div class = watt_board_label><strong>Planche Cible</strong></div><div id = watt_peg_1><div class = watt_peg></div></div><div id = watt_peg_1 ><div class = ""watt_ball watt_Red""><div class = watt_ball_label>R</div></div><div class = ""watt_ball watt_Green""><div class = watt_ball_label>G</div></div><div class = ""watt_ball watt_Blue""><div class = watt_ball_label>B</div></div></div><div id = watt_peg_2><div class = watt_peg></div></div><div id = watt_peg_2 ></div><div id = watt_peg_3><div class = watt_peg></div></div><div id = watt_peg_3 ></div></div><div class = watt_hand_box></div><div class = watt_hand_label><strong>Boule en main</strong></div>","89,71","1857","2,3,0,0,0,0,0,0,0","4","3","0,0,0,1,2,0,3,0,0","2,3,1,0,0,0,0,0,0","UA_without_intermediate","3","practice","","",""
"364","89","poldrack-single-stim","37","131799","0.0-9.3-0.12-1.12","sub-13","","364","0","to_board","<div class = watt_canvas><div class=""watt_vertical_line""></div></div><div class = watt_your_board><div class = watt_base></div><div class = watt_board_label><strong>Votre Planche</strong></div><div id = watt_peg_1><div class = watt_peg></div></div><div class = special id = watt_peg_1 onclick = ""pegClick(this.id)""><div class = ""watt_ball watt_Red""><div class = watt_ball_label>R</div></div><div class = ""watt_ball watt_Green""><div class = watt_ball_label>G</div></div></div><div id = watt_peg_2><div class = watt_peg></div></div><div class = special id = watt_peg_2 onclick = ""pegClick(this.id)""></div><div id = watt_peg_3><div class = watt_peg></div></div><div class = special id = watt_peg_3 onclick = ""pegClick(this.id)""></div></div><div class = watt_peg_board><div class = watt_base></div><div class = watt_board_label><strong>Planche Cible</strong></div><div id = watt_peg_1><div class = watt_peg></div></div><div id = watt_peg_1 ><div class = ""watt_ball watt_Red""><div class = watt_ball_label>R</div></div><div class = ""watt_ball watt_Green""><div class = watt_ball_label>G</div></div><div class = ""watt_ball watt_Blue""><div class = watt_ball_label>B</div></div></div><div id = watt_peg_2><div class = watt_peg></div></div><div id = watt_peg_2 ></div><div id = watt_peg_3><div class = watt_peg></div></div><div id = watt_peg_3 ></div></div><div class = watt_hand_box><div class = ""watt_hand_ball watt_Blue""><div class = watt_ball_label>B</div></div></div><div class = watt_hand_label><strong>Boule en main</strong></div>","89,71,82","364","2,3,1,0,0,0,0,0,0","4","3","0,0,0,1,2,0,3,0,0","2,3,1,0,0,0,0,0,0","UA_without_intermediate","3","practice","","",""
"-1","-1","poldrack-single-stim","38","133821","0.0-9.3-1.3","sub-13","","2000","0","feedback","<div class = watt_canvas><div class=""watt_vertical_line""></div></div><div class = watt_your_board><div class = watt_base></div><div class = watt_board_label><strong>Votre Planche</strong></div><div id = watt_peg_1><div class = watt_peg></div></div><div id = watt_peg_1 ><div class = ""watt_ball watt_Red""><div class = watt_ball_label>R</div></div><div class = ""watt_ball watt_Green""><div class = watt_ball_label>G</div></div><div class = ""watt_ball watt_Blue""><div class = watt_ball_label>B</div></div></div><div id = watt_peg_2><div class = watt_peg></div></div><div id = watt_peg_2 ></div><div id = watt_peg_3><div class = watt_peg></div></div><div id = watt_peg_3 ></div></div><div class = watt_peg_board><div class = watt_base></div><div class = watt_board_label><strong>Planche Cible</strong></div><div id = watt_peg_1><div class = watt_peg></div></div><div id = watt_peg_1 ><div class = ""watt_ball watt_Red""><div class = watt_ball_label>R</div></div><div class = ""watt_ball watt_Green""><div class = watt_ball_label>G</div></div><div class = ""watt_ball watt_Blue""><div class = watt_ball_label>B</div></div></div><div id = watt_peg_2><div class = watt_peg></div></div><div id = watt_peg_2 ></div><div id = watt_peg_3><div class = watt_peg></div></div><div id = watt_peg_3 ></div></div><div class = watt_feedbackbox><p class = center-text>Complete</p></div>","none","1000","","4","3","","","","","practice","12679","true",""
"-1","-1","poldrack-single-stim","39","135343","0.0-10.0","sub-13","","1500","500","test_start_block","<div class = centerbox><div class = center-text>Preparez-vous!</p></div>","none","1500","","","","","","","","","","",""
"8884","82","poldrack-single-stim","40","144748","0.0-11.0-0.0-0.0","sub-13","","8884","0","to_hand","<div class = watt_canvas><div class=""watt_vertical_line""></div></div><div class = watt_your_board><div class = watt_base></div><div class = watt_board_label><strong>Votre Planche</strong></div><div id = watt_peg_1><div class = watt_peg></div></div><div id = watt_peg_1 onclick = ""pegClick(this.id)""></div><div id = watt_peg_2><div class = watt_peg></div></div><div id = watt_peg_2 onclick = ""pegClick(this.id)""></div><div id = watt_peg_3><div class = watt_peg></div></div><div class = special id = watt_peg_3 onclick = ""pegClick(this.id)""><div class = ""watt_ball watt_Blue""><div class = watt_ball_label>B</div></div><div class = ""watt_ball watt_Red""><div class = watt_ball_label>R</div></div><div class = ""watt_ball watt_Green""><div class = watt_ball_label>G</div></div></div></div><div class = watt_peg_board><div class = watt_base></div><div class = watt_board_label><strong>Planche Cible</strong></div><div id = watt_peg_1><div class = watt_peg></div></div><div id = watt_peg_1 ><div class = ""watt_ball watt_Green""><div class = watt_ball_label>G</div></div><div class = ""watt_ball watt_Blue""><div class = watt_ball_label>B</div></div></div><div id = watt_peg_2><div class = watt_peg></div></div><div id = watt_peg_2 ><div class = ""watt_ball watt_Red""><div class = watt_ball_label>R</div></div></div><div id = watt_peg_3><div class = watt_peg></div></div><div id = watt_peg_3 ></div></div><div class = watt_hand_box></div><div class = watt_hand_label><strong>Boule en main</strong></div>","82","8884","0,0,0,0,0,0,1,2,0","1","3","0,0,0,0,0,0,1,2,3","3,1,0,2,0,0,0,0,0","PA_without_intermediate","0","test","","",""
"2204","89","poldrack-single-stim","41","146958","0.0-11.0-0.0-1.0","sub-13","","2204","0","to_board","<div class = watt_canvas><div class=""watt_vertical_line""></div></div><div class = watt_your_board><div class = watt_base></div><div class = watt_board_label><strong>Votre Planche</strong></div><div id = watt_peg_1><div class = watt_peg></div></div><div class = special id = watt_peg_1 onclick = ""pegClick(this.id)""></div><div id = watt_peg_2><div class = watt_peg></div></div><div class = special id = watt_peg_2 onclick = ""pegClick(this.id)""></div><div id = watt_peg_3><div class = watt_peg></div></div><div class = special id = watt_peg_3 onclick = ""pegClick(this.id)""><div class = ""watt_ball watt_Blue""><div class = watt_ball_label>B</div></div><div class = ""watt_ball watt_Red""><div class = watt_ball_label>R</div></div></div></div><div class = watt_peg_board><div class = watt_base></div><div class = watt_board_label><strong>Planche Cible</strong></div><div id = watt_peg_1><div class = watt_peg></div></div><div id = watt_peg_1 ><div class = ""watt_ball watt_Green""><div class = watt_ball_label>G</div></div><div class = ""watt_ball watt_Blue""><div class = watt_ball_label>B</div></div></div><div id = watt_peg_2><div class = watt_peg></div></div><div id = watt_peg_2 ><div class = ""watt_ball watt_Red""><div class = watt_ball_label>R</div></div></div><div id = watt_peg_3><div class = watt_peg></div></div><div id = watt_peg_3 ></div></div><div class = watt_hand_box><div class = ""watt_hand_ball watt_Green""><div class = watt_ball_label>G</div></div></div><div class = watt_hand_label><strong>Boule en main</strong></div>","89,71,82","2204","3,0,0,0,0,0,1,2,0","1","3","0,0,0,0,0,0,1,2,3","3,1,0,2,0,0,0,0,0","PA_without_intermediate","0","test","","",""
"4882","82","poldrack-single-stim","42","151848","0.0-11.0-0.1-0.1","sub-13","","4882","0","to_hand","<div class = watt_canvas><div class=""watt_vertical_line""></div></div><div class = watt_your_board><div class = watt_base></div><div class = watt_board_label><strong>Votre Planche</strong></div><div id = watt_peg_1><div class = watt_peg></div></div><div class = special id = watt_peg_1 onclick = ""pegClick(this.id)""><div class = ""watt_ball watt_Green""><div class = watt_ball_label>G</div></div></div><div id = watt_peg_2><div class = watt_peg></div></div><div id = watt_peg_2 onclick = ""pegClick(this.id)""></div><div id = watt_peg_3><div class = watt_peg></div></div><div class = special id = watt_peg_3 onclick = ""pegClick(this.id)""><div class = ""watt_ball watt_Blue""><div class = watt_ball_label>B</div></div><div class = ""watt_ball watt_Red""><div class = watt_ball_label>R</div></div></div></div><div class = watt_peg_board><div class = watt_base></div><div class = watt_board_label><strong>Planche Cible</strong></div><div id = watt_peg_1><div class = watt_peg></div></div><div id = watt_peg_1 ><div class = ""watt_ball watt_Green""><div class = watt_ball_label>G</div></div><div class = ""watt_ball watt_Blue""><div class = watt_ball_label>B</div></div></div><div id = watt_peg_2><div class = watt_peg></div></div><div id = watt_peg_2 ><div class = ""watt_ball watt_Red""><div class = watt_ball_label>R</div></div></div><div id = watt_peg_3><div class = watt_peg></div></div><div id = watt_peg_3 ></div></div><div class = watt_hand_box></div><div class = watt_hand_label><strong>Boule en main</strong></div>","89,82","4882","3,0,0,0,0,0,1,0,0","2","3","0,0,0,0,0,0,1,2,3","3,1,0,2,0,0,0,0,0","PA_without_intermediate","0","test","","",""
"1099","71","poldrack-single-stim","43","152952","0.0-11.0-0.1-1.1","sub-13","","1099","0","to_board","<div class = watt_canvas><div class=""watt_vertical_line""></div></div><div class = watt_your_board><div class = watt_base></div><div class = watt_board_label><strong>Votre Planche</strong></div><div id = watt_peg_1><div class = watt_peg></div></div><div class = special id = watt_peg_1 onclick = ""pegClick(this.id)""><div class = ""watt_ball watt_Green""><div class = watt_ball_label>G</div></div></div><div id = watt_peg_2><div class = watt_peg></div></div><div class = special id = watt_peg_2 onclick = ""pegClick(this.id)""></div><div id = watt_peg_3><div class = watt_peg></div></div><div class = special id = watt_peg_3 onclick = ""pegClick(this.id)""><div class = ""watt_ball watt_Blue""><div class = watt_ball_label>B</div></div></div></div><div class = watt_peg_board><div class = watt_base></div><div class = watt_board_label><strong>Planche Cible</strong></div><div id = watt_peg_1><div class = watt_peg></div></div><div id = watt_peg_1 ><div class = ""watt_ball watt_Green""><div class = watt_ball_label>G</div></div><div class = ""watt_ball watt_Blue""><div class = watt_ball_label>B</div></div></div><div id = watt_peg_2><div class = watt_peg></div></div><div id = watt_peg_2 ><div class = ""watt_ball watt_Red""><div class = watt_ball_label>R</div></div></div><div id = watt_peg_3><div class = watt_peg></div></div><div id = watt_peg_3 ></div></div><div class = watt_hand_box><div class = ""watt_hand_ball watt_Red""><div class = watt_ball_label>R</div></div></div><div class = watt_hand_label><strong>Boule en main</strong></div>","89,71,82","1099","3,0,0,2,0,0,1,0,0","2","3","0,0,0,0,0,0,1,2,3","3,1,0,2,0,0,0,0,0","PA_without_intermediate","0","test","","",""
"982","82","poldrack-single-stim","44","153945","0.0-11.0-0.2-0.2","sub-13","","982","0","to_hand","<div class = watt_canvas><div class=""watt_vertical_line""></div></div><div class = watt_your_board><div class = watt_base></div><div class = watt_board_label><strong>Votre Planche</strong></div><div id = watt_peg_1><div class = watt_peg></div></div><div class = special id = watt_peg_1 onclick = ""pegClick(this.id)""><div class = ""watt_ball watt_Green""><div class = watt_ball_label>G</div></div></div><div id = watt_peg_2><div class = watt_peg></div></div><div class = special id = watt_peg_2 onclick = ""pegClick(this.id)""><div class = ""watt_ball watt_Red""><div class = watt_ball_label>R</div></div></div><div id = watt_peg_3><div class = watt_peg></div></div><div class = special id = watt_peg_3 onclick = ""pegClick(this.id)""><div class = ""watt_ball watt_Blue""><div class = watt_ball_label>B</div></div></div></div><div class = watt_peg_board><div class = watt_base></div><div class = watt_board_label><strong>Planche Cible</strong></div><div id = watt_peg_1><div class = watt_peg></div></div><div id = watt_peg_1 ><div class = ""watt_ball watt_Green""><div class = watt_ball_label>G</div></div><div class = ""watt_ball watt_Blue""><div class = watt_ball_label>B</div></div></div><div id = watt_peg_2><div class = watt_peg></div></div><div id = watt_peg_2 ><div class = ""watt_ball watt_Red""><div class = watt_ball_label>R</div></div></div><div id = watt_peg_3><div class = watt_peg></div></div><div id = watt_peg_3 ></div></div><div class = watt_hand_box></div><div class = watt_hand_label><strong>Boule en main</strong></div>","89,71,82","982","3,0,0,2,0,0,0,0,0","3","3","0,0,0,0,0,0,1,2,3","3,1,0,2,0,0,0,0,0","PA_without_intermediate","0","test","","",""
"1493","89","poldrack-single-stim","45","155443","0.0-11.0-0.2-1.2","sub-13","","1493","0","to_board","<div class = watt_canvas><div class=""watt_vertical_line""></div></div><div class = watt_your_board><div class = watt_base></div><div class = watt_board_label><strong>Votre Planche</strong></div><div id = watt_peg_1><div class = watt_peg></div></div><div class = special id = watt_peg_1 onclick = ""pegClick(this.id)""><div class = ""watt_ball watt_Green""><div class = watt_ball_label>G</div></div></div><div id = watt_peg_2><div class = watt_peg></div></div><div class = special id = watt_peg_2 onclick = ""pegClick(this.id)""><div class = ""watt_ball watt_Red""><div class = watt_ball_label>R</div></div></div><div id = watt_peg_3><div class = watt_peg></div></div><div class = special id = watt_peg_3 onclick = ""pegClick(this.id)""></div></div><div class = watt_peg_board><div class = watt_base></div><div class = watt_board_label><strong>Planche Cible</strong></div><div id = watt_peg_1><div class = watt_peg></div></div><div id = watt_peg_1 ><div class = ""watt_ball watt_Green""><div class = watt_ball_label>G</div></div><div class = ""watt_ball watt_Blue""><div class = watt_ball_label>B</div></div></div><div id = watt_peg_2><div class = watt_peg></div></div><div id = watt_peg_2 ><div class = ""watt_ball watt_Red""><div class = watt_ball_label>R</div></div></div><div id = watt_peg_3><div class = watt_peg></div></div><div id = watt_peg_3 ></div></div><div class = watt_hand_box><div class = ""watt_hand_ball watt_Blue""><div class = watt_ball_label>B</div></div></div><div class = watt_hand_label><strong>Boule en main</strong></div>","89,71,82","1493","3,1,0,2,0,0,0,0,0","3","3","0,0,0,0,0,0,1,2,3","3,1,0,2,0,0,0,0,0","PA_without_intermediate","0","test","","",""
"-1","-1","poldrack-single-stim","46","158541","0.0-11.0-1.0","sub-13","","3088","0","feedback","<div class = watt_canvas><div class=""watt_vertical_line""></div></div><div class = watt_your_board><div class = watt_base></div><div class = watt_board_label><strong>Votre Planche</strong></div><div id = watt_peg_1><div class = watt_peg></div></div><div id = watt_peg_1 ><div class = ""watt_ball watt_Green""><div class = watt_ball_label>G</div></div><div class = ""watt_ball watt_Blue""><div class = watt_ball_label>B</div></div></div><div id = watt_peg_2><div class = watt_peg></div></div><div id = watt_peg_2 ><div class = ""watt_ball watt_Red""><div class = watt_ball_label>R</div></div></div><div id = watt_peg_3><div class = watt_peg></div></div><div id = watt_peg_3 ></div></div><div class = watt_peg_board><div class = watt_base></div><div class = watt_board_label><strong>Planche Cible</strong></div><div id = watt_peg_1><div class = watt_peg></div></div><div id = watt_peg_1 ><div class = ""watt_ball watt_Green""><div class = watt_ball_label>G</div></div><div class = ""watt_ball watt_Blue""><div class = watt_ball_label>B</div></div></div><div id = watt_peg_2><div class = watt_peg></div></div><div id = watt_peg_2 ><div class = ""watt_ball watt_Red""><div class = watt_ball_label>R</div></div></div><div id = watt_peg_3><div class = watt_peg></div></div><div id = watt_peg_3 ></div></div><div class = watt_feedbackbox><p class = center-text>Complete</p></div>","none","1000","","3","3","","","","","test","23199","true",""
"5467","82","poldrack-single-stim","47","164019","0.0-11.1-0.3-0.3","sub-13","","5467","0","to_hand","<div class = watt_canvas><div class=""watt_vertical_line""></div></div><div class = watt_your_board><div class = watt_base></div><div class = watt_board_label><strong>Votre Planche</strong></div><div id = watt_peg_1><div class = watt_peg></div></div><div id = watt_peg_1 onclick = ""pegClick(this.id)""></div><div id = watt_peg_2><div class = watt_peg></div></div><div id = watt_peg_2 onclick = ""pegClick(this.id)""></div><div id = watt_peg_3><div class = watt_peg></div></div><div class = special id = watt_peg_3 onclick = ""pegClick(this.id)""><div class = ""watt_ball watt_Green""><div class = watt_ball_label>G</div></div><div class = ""watt_ball watt_Red""><div class = watt_ball_label>R</div></div><div class = ""watt_ball watt_Blue""><div class = watt_ball_label>B</div></div></div></div><div class = watt_peg_board><div class = watt_base></div><div class = watt_board_label><strong>Planche Cible</strong></div><div id = watt_peg_1><div class = watt_peg></div></div><div id = watt_peg_1 ><div class = ""watt_ball watt_Red""><div class = watt_ball_label>R</div></div></div><div id = watt_peg_2><div class = watt_peg></div></div><div id = watt_peg_2 ></div><div id = watt_peg_3><div class = watt_peg></div></div><div id = watt_peg_3 ><div class = ""watt_ball watt_Green""><div class = watt_ball_label>G</div></div><div class = ""watt_ball watt_Blue""><div class = watt_ball_label>B</div></div></div></div><div class = watt_hand_box></div><div class = watt_hand_label><strong>Boule en main</strong></div>","82","5467","0,0,0,0,0,0,1,2,0","1","3","0,0,0,0,0,0,1,2,3","2,0,0,0,0,0,1,3,0","PA_with_intermediate","1","test","","",""
"1457","71","poldrack-single-stim","48","165514","0.0-11.1-0.3-1.3","sub-13","","1457","0","to_board","<div class = watt_canvas><div class=""watt_vertical_line""></div></div><div class = watt_your_board><div class = watt_base></div><div class = watt_board_label><strong>Votre Planche</strong></div><div id = watt_peg_1><div class = watt_peg></div></div><div class = special id = watt_peg_1 onclick = ""pegClick(this.id)""></div><div id = watt_peg_2><div class = watt_peg></div></div><div class = special id = watt_peg_2 onclick = ""pegClick(this.id)""></div><div id = watt_peg_3><div class = watt_peg></div></div><div class = special id = watt_peg_3 onclick = ""pegClick(this.id)""><div class = ""watt_ball watt_Green""><div class = watt_ball_label>G</div></div><div class = ""watt_ball watt_Red""><div class = watt_ball_label>R</div></div></div></div><div class = watt_peg_board><div class = watt_base></div><div class = watt_board_label><strong>Planche Cible</strong></div><div id = watt_peg_1><div class = watt_peg></div></div><div id = watt_peg_1 ><div class = ""watt_ball watt_Red""><div class = watt_ball_label>R</div></div></div><div id = watt_peg_2><div class = watt_peg></div></div><div id = watt_peg_2 ></div><div id = watt_peg_3><div class = watt_peg></div></div><div id = watt_peg_3 ><div class = ""watt_ball watt_Green""><div class = watt_ball_label>G</div></div><div class = ""watt_ball watt_Blue""><div class = watt_ball_label>B</div></div></div></div><div class = watt_hand_box><div class = ""watt_hand_ball watt_Blue""><div class = watt_ball_label>B</div></div></div><div class = watt_hand_label><strong>Boule en main</strong></div>","89,71,82","1457","0,0,0,3,0,0,1,2,0","1","3","0,0,0,0,0,0,1,2,3","2,0,0,0,0,0,1,3,0","PA_with_intermediate","1","test","","",""
"1580","82","poldrack-single-stim","49","167106","0.0-11.1-0.4-0.4","sub-13","","1580","0","to_hand","<div class = watt_canvas><div class=""watt_vertical_line""></div></div><div class = watt_your_board><div class = watt_base></div><div class = watt_board_label><strong>Votre Planche</strong></div><div id = watt_peg_1><div class = watt_peg></div></div><div id = watt_peg_1 onclick = ""pegClick(this.id)""></div><div id = watt_peg_2><div class = watt_peg></div></div><div class = special id = watt_peg_2 onclick = ""pegClick(this.id)""><div class = ""watt_ball watt_Blue""><div class = watt_ball_label>B</div></div></div><div id = watt_peg_3><div class = watt_peg></div></div><div class = special id = watt_peg_3 onclick = ""pegClick(this.id)""><div class = ""watt_ball watt_Green""><div class = watt_ball_label>G</div></div><div class = ""watt_ball watt_Red""><div class = watt_ball_label>R</div></div></div></div><div class = watt_peg_board><div class = watt_base></div><div class = watt_board_label><strong>Planche Cible</strong></div><div id = watt_peg_1><div class = watt_peg></div></div><div id = watt_peg_1 ><div class = ""watt_ball watt_Red""><div class = watt_ball_label>R</div></div></div><div id = watt_peg_2><div class = watt_peg></div></div><div id = watt_peg_2 ></div><div id = watt_peg_3><div class = watt_peg></div></div><div id = watt_peg_3 ><div class = ""watt_ball watt_Green""><div class = watt_ball_label>G</div></div><div class = ""watt_ball watt_Blue""><div class = watt_ball_label>B</div></div></div></div><div class = watt_hand_box></div><div class = watt_hand_label><strong>Boule en main</strong></div>","71,82","1580","0,0,0,3,0,0,1,0,0","2","3","0,0,0,0,0,0,1,2,3","2,0,0,0,0,0,1,3,0","PA_with_intermediate","1","test","","",""
"1131","89","poldrack-single-stim","50","168242","0.0-11.1-0.4-1.4","sub-13","","1131","0","to_board","<div class = watt_canvas><div class=""watt_vertical_line""></div></div><div class = watt_your_board><div class = watt_base></div><div class = watt_board_label><strong>Votre Planche</strong></div><div id = watt_peg_1><div class = watt_peg></div></div><div class = special id = watt_peg_1 onclick = ""pegClick(this.id)""></div><div id = watt_peg_2><div class = watt_peg></div></div><div class = special id = watt_peg_2 onclick = ""pegClick(this.id)""><div class = ""watt_ball watt_Blue""><div class = watt_ball_label>B</div></div></div><div id = watt_peg_3><div class = watt_peg></div></div><div class = special id = watt_peg_3 onclick = ""pegClick(this.id)""><div class = ""watt_ball watt_Green""><div class = watt_ball_label>G</div></div></div></div><div class = watt_peg_board><div class = watt_base></div><div class = watt_board_label><strong>Planche Cible</strong></div><div id = watt_peg_1><div class = watt_peg></div></div><div id = watt_peg_1 ><div class = ""watt_ball watt_Red""><div class = watt_ball_label>R</div></div></div><div id = watt_peg_2><div class = watt_peg></div></div><div id = watt_peg_2 ></div><div id = watt_peg_3><div class = watt_peg></div></div><div id = watt_peg_3 ><div class = ""watt_ball watt_Green""><div class = watt_ball_label>G</div></div><div class = ""watt_ball watt_Blue""><div class = watt_ball_label>B</div></div></div></div><div class = watt_hand_box><div class = ""watt_hand_ball watt_Red""><div class = watt_ball_label>R</div></div></div><div class = watt_hand_label><strong>Boule en main</strong></div>","89,71,82","1131","2,0,0,3,0,0,1,0,0","2","3","0,0,0,0,0,0,1,2,3","2,0,0,0,0,0,1,3,0","PA_with_intermediate","1","test","","",""
"2232","71","poldrack-single-stim","51","170485","0.0-11.1-0.5-0.5","sub-13","","2232","0","to_hand","<div class = watt_canvas><div class=""watt_vertical_line""></div></div><div class = watt_your_board><div class = watt_base></div><div class = watt_board_label><strong>Votre Planche</strong></div><div id = watt_peg_1><div class = watt_peg></div></div><div class = special id = watt_peg_1 onclick = ""pegClick(this.id)""><div class = ""watt_ball watt_Red""><div class = watt_ball_label>R</div></div></div><div id = watt_peg_2><div class = watt_peg></div></div><div class = special id = watt_peg_2 onclick = ""pegClick(this.id)""><div class = ""watt_ball watt_Blue""><div class = watt_ball_label>B</div></div></div><div id = watt_peg_3><div class = watt_peg></div></div><div class = special id = watt_peg_3 onclick = ""pegClick(this.id)""><div class = ""watt_ball watt_Green""><div class = watt_ball_label>G</div></div></div></div><div class = watt_peg_board><div class = watt_base></div><div class = watt_board_label><strong>Planche Cible</strong></div><div id = watt_peg_1><div class = watt_peg></div></div><div id = watt_peg_1 ><div class = ""watt_ball watt_Red""><div class = watt_ball_label>R</div></div></div><div id = watt_peg_2><div class = watt_peg></div></div><div id = watt_peg_2 ></div><div id = watt_peg_3><div class = watt_peg></div></div><div id = watt_peg_3 ><div class = ""watt_ball watt_Green""><div class = watt_ball_label>G</div></div><div class = ""watt_ball watt_Blue""><div class = watt_ball_label>B</div></div></div></div><div class = watt_hand_box></div><div class = watt_hand_label><strong>Boule en main</strong></div>","89,71,82","2232","2,0,0,0,0,0,1,0,0","3","3","0,0,0,0,0,0,1,2,3","2,0,0,0,0,0,1,3,0","PA_with_intermediate","1","test","","",""
"741","82","poldrack-single-stim","52","171232","0.0-11.1-0.5-1.5","sub-13","","741","0","to_board","<div class = watt_canvas><div class=""watt_vertical_line""></div></div><div class = watt_your_board><div class = watt_base></div><div class = watt_board_label><strong>Votre Planche</strong></div><div id = watt_peg_1><div class = watt_peg></div></div><div class = special id = watt_peg_1 onclick = ""pegClick(this.id)""><div class = ""watt_ball watt_Red""><div class = watt_ball_label>R</div></div></div><div id = watt_peg_2><div class = watt_peg></div></div><div class = special id = watt_peg_2 onclick = ""pegClick(this.id)""></div><div id = watt_peg_3><div class = watt_peg></div></div><div class = special id = watt_peg_3 onclick = ""pegClick(this.id)""><div class = ""watt_ball watt_Green""><div class = watt_ball_label>G</div></div></div></div><div class = watt_peg_board><div class = watt_base></div><div class = watt_board_label><strong>Planche Cible</strong></div><div id = watt_peg_1><div class = watt_peg></div></div><div id = watt_peg_1 ><div class = ""watt_ball watt_Red""><div class = watt_ball_label>R</div></div></div><div id = watt_peg_2><div class = watt_peg></div></div><div id = watt_peg_2 ></div><div id = watt_peg_3><div class = watt_peg></div></div><div id = watt_peg_3 ><div class = ""watt_ball watt_Green""><div class = watt_ball_label>G</div></div><div class = ""watt_ball watt_Blue""><div class = watt_ball_label>B</div></div></div></div><div class = watt_hand_box><div class = ""watt_hand_ball watt_Blue""><div class = watt_ball_label>B</div></div></div><div class = watt_hand_label><strong>Boule en main</strong></div>","89,71,82","741","2,0,0,0,0,0,1,3,0","3","3","0,0,0,0,0,0,1,2,3","2,0,0,0,0,0,1,3,0","PA_with_intermediate","1","test","","",""
"-1","-1","poldrack-single-stim","53","173263","0.0-11.1-1.1","sub-13","","2000","0","feedback","<div class = watt_canvas><div class=""watt_vertical_line""></div></div><div class = watt_your_board><div class = watt_base></div><div class = watt_board_label><strong>Votre Planche</strong></div><div id = watt_peg_1><div class = watt_peg></div></div><div id = watt_peg_1 ><div class = ""watt_ball watt_Red""><div class = watt_ball_label>R</div></div></div><div id = watt_peg_2><div class = watt_peg></div></div><div id = watt_peg_2 ></div><div id = watt_peg_3><div class = watt_peg></div></div><div id = watt_peg_3 ><div class = ""watt_ball watt_Green""><div class = watt_ball_label>G</div></div><div class = ""watt_ball watt_Blue""><div class = watt_ball_label>B</div></div></div></div><div class = watt_peg_board><div class = watt_base></div><div class = watt_board_label><strong>Planche Cible</strong></div><div id = watt_peg_1><div class = watt_peg></div></div><div id = watt_peg_1 ><div class = ""watt_ball watt_Red""><div class = watt_ball_label>R</div></div></div><div id = watt_peg_2><div class = watt_peg></div></div><div id = watt_peg_2 ></div><div id = watt_peg_3><div class = watt_peg></div></div><div id = watt_peg_3 ><div class = ""watt_ball watt_Green""><div class = watt_ball_label>G</div></div><div class = ""watt_ball watt_Blue""><div class = watt_ball_label>B</div></div></div></div><div class = watt_feedbackbox><p class = center-text>Complete</p></div>","none","1000","","3","3","","","","","test","14721","true",""
"2991","71","poldrack-single-stim","54","176266","0.0-11.2-0.6-0.6","sub-13","","2991","0","to_hand","<div class = watt_canvas><div class=""watt_vertical_line""></div></div><div class = watt_your_board><div class = watt_base></div><div class = watt_board_label><strong>Votre Planche</strong></div><div id = watt_peg_1><div class = watt_peg></div></div><div id = watt_peg_1 onclick = ""pegClick(this.id)""></div><div id = watt_peg_2><div class = watt_peg></div></div><div class = special id = watt_peg_2 onclick = ""pegClick(this.id)""><div class = ""watt_ball watt_Blue""><div class = watt_ball_label>B</div></div><div class = ""watt_ball watt_Green""><div class = watt_ball_label>G</div></div><div class = ""watt_ball watt_Red""><div class = watt_ball_label>R</div></div></div><div id = watt_peg_3><div class = watt_peg></div></div><div id = watt_peg_3 onclick = ""pegClick(this.id)""></div></div><div class = watt_peg_board><div class = watt_base></div><div class = watt_board_label><strong>Planche Cible</strong></div><div id = watt_peg_1><div class = watt_peg></div></div><div id = watt_peg_1 ><div class = ""watt_ball watt_Red""><div class = watt_ball_label>R</div></div><div class = ""watt_ball watt_Green""><div class = watt_ball_label>G</div></div></div><div id = watt_peg_2><div class = watt_peg></div></div><div id = watt_peg_2 ></div><div id = watt_peg_3><div class = watt_peg></div></div><div id = watt_peg_3 ><div class = ""watt_ball watt_Blue""><div class = watt_ball_label>B</div></div></div></div><div class = watt_hand_box></div><div class = watt_hand_label><strong>Boule en main</strong></div>","71","2991","0,0,0,1,2,0,0,0,0","1","3","0,0,0,1,2,3,0,0,0","3,2,0,0,0,0,1,0,0","PA_without_intermediate","2","test","","",""
"943","89","poldrack-single-stim","55","177214","0.0-11.2-0.6-1.6","sub-13","","943","0","to_board","<div class = watt_canvas><div class=""watt_vertical_line""></div></div><div class = watt_your_board><div class = watt_base></div><div class = watt_board_label><strong>Votre Planche</strong></div><div id = watt_peg_1><div class = watt_peg></div></div><div class = special id = watt_peg_1 onclick = ""pegClick(this.id)""></div><div id = watt_peg_2><div class = watt_peg></div></div><div class = special id = watt_peg_2 onclick = ""pegClick(this.id)""><div class = ""watt_ball watt_Blue""><div class = watt_ball_label>B</div></div><div class = ""watt_ball watt_Green""><div class = watt_ball_label>G</div></div></div><div id = watt_peg_3><div class = watt_peg></div></div><div class = special id = watt_peg_3 onclick = ""pegClick(this.id)""></div></div><div class = watt_peg_board><div class = watt_base></div><div class = watt_board_label><strong>Planche Cible</strong></div><div id = watt_peg_1><div class = watt_peg></div></div><div id = watt_peg_1 ><div class = ""watt_ball watt_Red""><div class = watt_ball_label>R</div></div><div class = ""watt_ball watt_Green""><div class = watt_ball_label>G</div></div></div><div id = watt_peg_2><div class = watt_peg></div></div><div id = watt_peg_2 ></div><div id = watt_peg_3><div class = watt_peg></div></div><div id = watt_peg_3 ><div class = ""watt_ball watt_Blue""><div class = watt_ball_label>B</div></div></div></div><div class = watt_hand_box><div class = ""watt_hand_ball watt_Red""><div class = watt_ball_label>R</div></div></div><div class = watt_hand_label><strong>Boule en main</strong></div>","89,71,82","943","3,0,0,1,2,0,0,0,0","1","3","0,0,0,1,2,3,0,0,0","3,2,0,0,0,0,1,0,0","PA_without_intermediate","2","test","","",""
"1187","71","poldrack-single-stim","56","178414","0.0-11.2-0.7-0.7","sub-13","","1187","0","to_hand","<div class = watt_canvas><div class=""watt_vertical_line""></div></div><div class = watt_your_board><div class = watt_base></div><div class = watt_board_label><strong>Votre Planche</strong></div><div id = watt_peg_1><div class = watt_peg></div></div><div class = special id = watt_peg_1 onclick = ""pegClick(this.id)""><div class = ""watt_ball watt_Red""><div class = watt_ball_label>R</div></div></div><div id = watt_peg_2><div class = watt_peg></div></div><div class = special id = watt_peg_2 onclick = ""pegClick(this.id)""><div class = ""watt_ball watt_Blue""><div class = watt_ball_label>B</div></div><div class = ""watt_ball watt_Green""><div class = watt_ball_label>G</div></div></div><div id = watt_peg_3><div class = watt_peg></div></div><div id = watt_peg_3 onclick = ""pegClick(this.id)""></div></div><div class = watt_peg_board><div class = watt_base></div><div class = watt_board_label><strong>Planche Cible</strong></div><div id = watt_peg_1><div class = watt_peg></div></div><div id = watt_peg_1 ><div class = ""watt_ball watt_Red""><div class = watt_ball_label>R</div></div><div class = ""watt_ball watt_Green""><div class = watt_ball_label>G</div></div></div><div id = watt_peg_2><div class = watt_peg></div></div><div id = watt_peg_2 ></div><div id = watt_peg_3><div class = watt_peg></div></div><div id = watt_peg_3 ><div class = ""watt_ball watt_Blue""><div class = watt_ball_label>B</div></div></div></div><div class = watt_hand_box></div><div class = watt_hand_label><strong>Boule en main</strong></div>","89,71","1187","3,0,0,1,0,0,0,0,0","2","3","0,0,0,1,2,3,0,0,0","3,2,0,0,0,0,1,0,0","PA_without_intermediate","2","test","","",""
"1090","89","poldrack-single-stim","57","179507","0.0-11.2-0.7-1.7","sub-13","","1090","0","to_board","<div class = watt_canvas><div class=""watt_vertical_line""></div></div><div class = watt_your_board><div class = watt_base></div><div class = watt_board_label><strong>Votre Planche</strong></div><div id = watt_peg_1><div class = watt_peg></div></div><div class = special id = watt_peg_1 onclick = ""pegClick(this.id)""><div class = ""watt_ball watt_Red""><div class = watt_ball_label>R</div></div></div><div id = watt_peg_2><div class = watt_peg></div></div><div class = special id = watt_peg_2 onclick = ""pegClick(this.id)""><div class = ""watt_ball watt_Blue""><div class = watt_ball_label>B</div></div></div><div id = watt_peg_3><div class = watt_peg></div></div><div class = special id = watt_peg_3 onclick = ""pegClick(this.id)""></div></div><div class = watt_peg_board><div class = watt_base></div><div class = watt_board_label><strong>Planche Cible</strong></div><div id = watt_peg_1><div class = watt_peg></div></div><div id = watt_peg_1 ><div class = ""watt_ball watt_Red""><div class = watt_ball_label>R</div></div><div class = ""watt_ball watt_Green""><div class = watt_ball_label>G</div></div></div><div id = watt_peg_2><div class = watt_peg></div></div><div id = watt_peg_2 ></div><div id = watt_peg_3><div class = watt_peg></div></div><div id = watt_peg_3 ><div class = ""watt_ball watt_Blue""><div class = watt_ball_label>B</div></div></div></div><div class = watt_hand_box><div class = ""watt_hand_ball watt_Green""><div class = watt_ball_label>G</div></div></div><div class = watt_hand_label><strong>Boule en main</strong></div>","89,71,82","1090","3,2,0,1,0,0,0,0,0","2","3","0,0,0,1,2,3,0,0,0","3,2,0,0,0,0,1,0,0","PA_without_intermediate","2","test","","",""
"1018","71","poldrack-single-stim","58","180534","0.0-11.2-0.8-0.8","sub-13","","1018","0","to_hand","<div class = watt_canvas><div class=""watt_vertical_line""></div></div><div class = watt_your_board><div class = watt_base></div><div class = watt_board_label><strong>Votre Planche</strong></div><div id = watt_peg_1><div class = watt_peg></div></div><div class = special id = watt_peg_1 onclick = ""pegClick(this.id)""><div class = ""watt_ball watt_Red""><div class = watt_ball_label>R</div></div><div class = ""watt_ball watt_Green""><div class = watt_ball_label>G</div></div></div><div id = watt_peg_2><div class = watt_peg></div></div><div class = special id = watt_peg_2 onclick = ""pegClick(this.id)""><div class = ""watt_ball watt_Blue""><div class = watt_ball_label>B</div></div></div><div id = watt_peg_3><div class = watt_peg></div></div><div id = watt_peg_3 onclick = ""pegClick(this.id)""></div></div><div class = watt_peg_board><div class = watt_base></div><div class = watt_board_label><strong>Planche Cible</strong></div><div id = watt_peg_1><div class = watt_peg></div></div><div id = watt_peg_1 ><div class = ""watt_ball watt_Red""><div class = watt_ball_label>R</div></div><div class = ""watt_ball watt_Green""><div class = watt_ball_label>G</div></div></div><div id = watt_peg_2><div class = watt_peg></div></div><div id = watt_peg_2 ></div><div id = watt_peg_3><div class = watt_peg></div></div><div id = watt_peg_3 ><div class = ""watt_ball watt_Blue""><div class = watt_ball_label>B</div></div></div></div><div class = watt_hand_box></div><div class = watt_hand_label><strong>Boule en main</strong></div>","89,71","1018","3,2,0,0,0,0,0,0,0","3","3","0,0,0,1,2,3,0,0,0","3,2,0,0,0,0,1,0,0","PA_without_intermediate","2","test","","",""
"934","82","poldrack-single-stim","59","181472","0.0-11.2-0.8-1.8","sub-13","","934","0","to_board","<div class = watt_canvas><div class=""watt_vertical_line""></div></div><div class = watt_your_board><div class = watt_base></div><div class = watt_board_label><strong>Votre Planche</strong></div><div id = watt_peg_1><div class = watt_peg></div></div><div class = special id = watt_peg_1 onclick = ""pegClick(this.id)""><div class = ""watt_ball watt_Red""><div class = watt_ball_label>R</div></div><div class = ""watt_ball watt_Green""><div class = watt_ball_label>G</div></div></div><div id = watt_peg_2><div class = watt_peg></div></div><div class = special id = watt_peg_2 onclick = ""pegClick(this.id)""></div><div id = watt_peg_3><div class = watt_peg></div></div><div class = special id = watt_peg_3 onclick = ""pegClick(this.id)""></div></div><div class = watt_peg_board><div class = watt_base></div><div class = watt_board_label><strong>Planche Cible</strong></div><div id = watt_peg_1><div class = watt_peg></div></div><div id = watt_peg_1 ><div class = ""watt_ball watt_Red""><div class = watt_ball_label>R</div></div><div class = ""watt_ball watt_Green""><div class = watt_ball_label>G</div></div></div><div id = watt_peg_2><div class = watt_peg></div></div><div id = watt_peg_2 ></div><div id = watt_peg_3><div class = watt_peg></div></div><div id = watt_peg_3 ><div class = ""watt_ball watt_Blue""><div class = watt_ball_label>B</div></div></div></div><div class = watt_hand_box><div class = ""watt_hand_ball watt_Blue""><div class = watt_ball_label>B</div></div></div><div class = watt_hand_label><strong>Boule en main</strong></div>","89,71,82","934","3,2,0,0,0,0,1,0,0","3","3","0,0,0,1,2,3,0,0,0","3,2,0,0,0,0,1,0,0","PA_without_intermediate","2","test","","",""
"-1","-1","poldrack-single-stim","60","183492","0.0-11.2-1.2","sub-13","","2000","0","feedback","<div class = watt_canvas><div class=""watt_vertical_line""></div></div><div class = watt_your_board><div class = watt_base></div><div class = watt_board_label><strong>Votre Planche</strong></div><div id = watt_peg_1><div class = watt_peg></div></div><div id = watt_peg_1 ><div class = ""watt_ball watt_Red""><div class = watt_ball_label>R</div></div><div class = ""watt_ball watt_Green""><div class = watt_ball_label>G</div></div></div><div id = watt_peg_2><div class = watt_peg></div></div><div id = watt_peg_2 ></div><div id = watt_peg_3><div class = watt_peg></div></div><div id = watt_peg_3 ><div class = ""watt_ball watt_Blue""><div class = watt_ball_label>B</div></div></div></div><div class = watt_peg_board><div class = watt_base></div><div class = watt_board_label><strong>Planche Cible</strong></div><div id = watt_peg_1><div class = watt_peg></div></div><div id = watt_peg_1 ><div class = ""watt_ball watt_Red""><div class = watt_ball_label>R</div></div><div class = ""watt_ball watt_Green""><div class = watt_ball_label>G</div></div></div><div id = watt_peg_2><div class = watt_peg></div></div><div id = watt_peg_2 ></div><div id = watt_peg_3><div class = watt_peg></div></div><div id = watt_peg_3 ><div class = ""watt_ball watt_Blue""><div class = watt_ball_label>B</div></div></div></div><div class = watt_feedbackbox><p class = center-text>Complete</p></div>","none","1000","","3","3","","","","","test","10229","true",""
"3590","82","poldrack-single-stim","61","187097","0.0-11.3-0.9-0.9","sub-13","","3590","0","to_hand","<div class = watt_canvas><div class=""watt_vertical_line""></div></div><div class = watt_your_board><div class = watt_base></div><div class = watt_board_label><strong>Votre Planche</strong></div><div id = watt_peg_1><div class = watt_peg></div></div><div id = watt_peg_1 onclick = ""pegClick(this.id)""></div><div id = watt_peg_2><div class = watt_peg></div></div><div id = watt_peg_2 onclick = ""pegClick(this.id)""></div><div id = watt_peg_3><div class = watt_peg></div></div><div class = special id = watt_peg_3 onclick = ""pegClick(this.id)""><div class = ""watt_ball watt_Blue""><div class = watt_ball_label>B</div></div><div class = ""watt_ball watt_Green""><div class = watt_ball_label>G</div></div><div class = ""watt_ball watt_Red""><div class = watt_ball_label>R</div></div></div></div><div class = watt_peg_board><div class = watt_base></div><div class = watt_board_label><strong>Planche Cible</strong></div><div id = watt_peg_1><div class = watt_peg></div></div><div id = watt_peg_1 ><div class = ""watt_ball watt_Red""><div class = watt_ball_label>R</div></div><div class = ""watt_ball watt_Green""><div class = watt_ball_label>G</div></div></div><div id = watt_peg_2><div class = watt_peg></div></div><div id = watt_peg_2 ><div class = ""watt_ball watt_Blue""><div class = watt_ball_label>B</div></div></div><div id = watt_peg_3><div class = watt_peg></div></div><div id = watt_peg_3 ></div></div><div class = watt_hand_box></div><div class = watt_hand_label><strong>Boule en main</strong></div>","82","3590","0,0,0,0,0,0,1,2,0","1","3","0,0,0,0,0,0,1,2,3","3,2,0,1,0,0,0,0,0","PA_without_intermediate","3","test","","",""
"1533","89","poldrack-single-stim","62","188634","0.0-11.3-0.9-1.9","sub-13","","1533","0","to_board","<div class = watt_canvas><div class=""watt_vertical_line""></div></div><div class = watt_your_board><div class = watt_base></div><div class = watt_board_label><strong>Votre Planche</strong></div><div id = watt_peg_1><div class = watt_peg></div></div><div class = special id = watt_peg_1 onclick = ""pegClick(this.id)""></div><div id = watt_peg_2><div class = watt_peg></div></div><div class = special id = watt_peg_2 onclick = ""pegClick(this.id)""></div><div id = watt_peg_3><div class = watt_peg></div></div><div class = special id = watt_peg_3 onclick = ""pegClick(this.id)""><div class = ""watt_ball watt_Blue""><div class = watt_ball_label>B</div></div><div class = ""watt_ball watt_Green""><div class = watt_ball_label>G</div></div></div></div><div class = watt_peg_board><div class = watt_base></div><div class = watt_board_label><strong>Planche Cible</strong></div><div id = watt_peg_1><div class = watt_peg></div></div><div id = watt_peg_1 ><div class = ""watt_ball watt_Red""><div class = watt_ball_label>R</div></div><div class = ""watt_ball watt_Green""><div class = watt_ball_label>G</div></div></div><div id = watt_peg_2><div class = watt_peg></div></div><div id = watt_peg_2 ><div class = ""watt_ball watt_Blue""><div class = watt_ball_label>B</div></div></div><div id = watt_peg_3><div class = watt_peg></div></div><div id = watt_peg_3 ></div></div><div class = watt_hand_box><div class = ""watt_hand_ball watt_Red""><div class = watt_ball_label>R</div></div></div><div class = watt_hand_label><strong>Boule en main</strong></div>","89,71,82","1533","3,0,0,0,0,0,1,2,0","1","3","0,0,0,0,0,0,1,2,3","3,2,0,1,0,0,0,0,0","PA_without_intermediate","3","test","","",""
"2293","82","poldrack-single-stim","63","190942","0.0-11.3-0.10-0.10","sub-13","","2293","0","to_hand","<div class = watt_canvas><div class=""watt_vertical_line""></div></div><div class = watt_your_board><div class = watt_base></div><div class = watt_board_label><strong>Votre Planche</strong></div><div id = watt_peg_1><div class = watt_peg></div></div><div class = special id = watt_peg_1 onclick = ""pegClick(this.id)""><div class = ""watt_ball watt_Red""><div class = watt_ball_label>R</div></div></div><div id = watt_peg_2><div class = watt_peg></div></div><div id = watt_peg_2 onclick = ""pegClick(this.id)""></div><div id = watt_peg_3><div class = watt_peg></div></div><div class = special id = watt_peg_3 onclick = ""pegClick(this.id)""><div class = ""watt_ball watt_Blue""><div class = watt_ball_label>B</div></div><div class = ""watt_ball watt_Green""><div class = watt_ball_label>G</div></div></div></div><div class = watt_peg_board><div class = watt_base></div><div class = watt_board_label><strong>Planche Cible</strong></div><div id = watt_peg_1><div class = watt_peg></div></div><div id = watt_peg_1 ><div class = ""watt_ball watt_Red""><div class = watt_ball_label>R</div></div><div class = ""watt_ball watt_Green""><div class = watt_ball_label>G</div></div></div><div id = watt_peg_2><div class = watt_peg></div></div><div id = watt_peg_2 ><div class = ""watt_ball watt_Blue""><div class = watt_ball_label>B</div></div></div><div id = watt_peg_3><div class = watt_peg></div></div><div id = watt_peg_3 ></div></div><div class = watt_hand_box></div><div class = watt_hand_label><strong>Boule en main</strong></div>","89,82","2293","3,0,0,0,0,0,1,0,0","2","3","0,0,0,0,0,0,1,2,3","3,2,0,1,0,0,0,0,0","PA_without_intermediate","3","test","","",""
"1358","89","poldrack-single-stim","64","192304","0.0-11.3-0.10-1.10","sub-13","","1358","0","to_board","<div class = watt_canvas><div class=""watt_vertical_line""></div></div><div class = watt_your_board><div class = watt_base></div><div class = watt_board_label><strong>Votre Planche</strong></div><div id = watt_peg_1><div class = watt_peg></div></div><div class = special id = watt_peg_1 onclick = ""pegClick(this.id)""><div class = ""watt_ball watt_Red""><div class = watt_ball_label>R</div></div></div><div id = watt_peg_2><div class = watt_peg></div></div><div class = special id = watt_peg_2 onclick = ""pegClick(this.id)""></div><div id = watt_peg_3><div class = watt_peg></div></div><div class = special id = watt_peg_3 onclick = ""pegClick(this.id)""><div class = ""watt_ball watt_Blue""><div class = watt_ball_label>B</div></div></div></div><div class = watt_peg_board><div class = watt_base></div><div class = watt_board_label><strong>Planche Cible</strong></div><div id = watt_peg_1><div class = watt_peg></div></div><div id = watt_peg_1 ><div class = ""watt_ball watt_Red""><div class = watt_ball_label>R</div></div><div class = ""watt_ball watt_Green""><div class = watt_ball_label>G</div></div></div><div id = watt_peg_2><div class = watt_peg></div></div><div id = watt_peg_2 ><div class = ""watt_ball watt_Blue""><div class = watt_ball_label>B</div></div></div><div id = watt_peg_3><div class = watt_peg></div></div><div id = watt_peg_3 ></div></div><div class = watt_hand_box><div class = ""watt_hand_ball watt_Green""><div class = watt_ball_label>G</div></div></div><div class = watt_hand_label><strong>Boule en main</strong></div>","89,71,82","1358","3,2,0,0,0,0,1,0,0","2","3","0,0,0,0,0,0,1,2,3","3,2,0,1,0,0,0,0,0","PA_without_intermediate","3","test","","",""
