"rt","key_press","trial_type","trial_index","time_elapsed","internal_node_id","subject","text","block_duration","timing_post_trial","trial_id","responses","stimulus","possible_responses","stim_duration","condition","exp_stage","trial_num","correct_response","correct","exp_id"
"4040","13","text","0","4044","0.0-0.0","sub-13","","","","","","","","","","","","","",""
"923","89","poldrack-text","1","5983","0.0-1.0","sub-13","<div class = centerbox><div style = 'font-size: 50px' class = center-text>Veuillez appuyer avec votre index</p></div>","923","500","fmri_response_test","","","","","","","","","",""
"466","71","poldrack-text","2","6964","0.0-2.0","sub-13","<div class = centerbox><div style = 'font-size: 50px' class = center-text>Veuillez appuyer avec votre majeur</p></div>","466","500","fmri_response_test","","","","","","","","","",""
"33471","","survey-text","3","40973","0.0-3.0","sub-13","","","","task_setup","{""Q0"":""3"",""Q1"":""1 ""}","","","","","","","","",""
"13710","32","poldrack-single-stim","4","55699","0.0-4.0","sub-13","","13710","500","instructions","","<div class = centerbox><p style = ""font-size:40px"" class = center-block-text>Paire cible (appuyez sur l'index):</p><p class = center-block-text><img src = ""/static/experiments/dot_pattern_expectancy/images/cue3.png"" ></img>&nbsp&nbsp&nbsp...suivi par...&nbsp&nbsp&nbsp<img src = ""/static/experiments/dot_pattern_expectancy/images/probe1.png"" ></img><br></br></p><p style = ""font-size:40px"" class = center-block-text>Sinon appuyez sur le majeur</div>","32","13710","","","","","",""
"-1","-1","poldrack-single-stim","5","56728","0.0-5.0-0.0","sub-13","","500","0","cue","","<div class = centerbox><div class = img-container><img src = ""/static/experiments/dot_pattern_expectancy/images/cue3.png""</img></div></div>","none","500","AX","practice","0","","",""
"-1","-1","poldrack-single-stim","6","58737","0.0-5.0-1.0","sub-13","","2000","0","fixation","","<div class = centerbox><div class = fixation>+</div></div>","none","2000","","practice","","","",""
"461","89","poldrack-single-stim","7","60854","0.0-5.0-2.0","sub-13","","2100","0","probe","","<div class = centerbox><div class = img-container><img src = ""/static/experiments/dot_pattern_expectancy/images/probe1.png""</img></div></div>","89,71","500","AX","practice","0","89","true",""
"-1","-1","poldrack-single-stim","8","61366","0.0-5.0-3.0","sub-13","","500","0","feedback","","<div class = centerbox><div style=""color:#4FE829""; class = center-text>Correct!</div></div>","none","500","","practice","1","","",""
"-1","-1","poldrack-single-stim","9","61886","0.0-5.0-4.0","sub-13","","500","0","cue","","<div class = centerbox><div class = img-container><img src = ""/static/experiments/dot_pattern_expectancy/images/cue3.png""</img></div></div>","none","500","AX","practice","1","","",""
"-1","-1","poldrack-single-stim","10","63906","0.0-5.0-5.0","sub-13","","2000","0","fixation","","<div class = centerbox><div class = fixation>+</div></div>","none","2000","","practice","","","",""
"431","89","poldrack-single-stim","11","65424","0.0-5.0-6.0","sub-13","","1500","0","probe","","<div class = centerbox><div class = img-container><img src = ""/static/experiments/dot_pattern_expectancy/images/probe1.png""</img></div></div>","89,71","500","AX","practice","1","89","true",""
"-1","-1","poldrack-single-stim","12","65945","0.0-5.0-7.0","sub-13","","500","0","feedback","","<div class = centerbox><div style=""color:#4FE829""; class = center-text>Correct!</div></div>","none","500","","practice","2","","",""
"-1","-1","poldrack-single-stim","13","66466","0.0-5.0-8.0","sub-13","","500","0","cue","","<div class = centerbox><div class = img-container><img src = ""/static/experiments/dot_pattern_expectancy/images/cue1.png""</img></div></div>","none","500","BX","practice","2","","",""
"-1","-1","poldrack-single-stim","14","68486","0.0-5.0-9.0","sub-13","","2000","0","fixation","","<div class = centerbox><div class = fixation>+</div></div>","none","2000","","practice","","","",""
"273","71","poldrack-single-stim","15","70805","0.0-5.0-10.0","sub-13","","2300","0","probe","","<div class = centerbox><div class = img-container><img src = ""/static/experiments/dot_pattern_expectancy/images/probe1.png""</img></div></div>","89,71","500","BX","practice","2","71","true",""
"-1","-1","poldrack-single-stim","16","71325","0.0-5.0-11.0","sub-13","","500","0","feedback","","<div class = centerbox><div style=""color:#4FE829""; class = center-text>Correct!</div></div>","none","500","","practice","3","","",""
"-1","-1","poldrack-single-stim","17","71846","0.0-5.0-12.0","sub-13","","500","0","cue","","<div class = centerbox><div class = img-container><img src = ""/static/experiments/dot_pattern_expectancy/images/cue2.png""</img></div></div>","none","500","BY","practice","3","","",""
"-1","-1","poldrack-single-stim","18","73865","0.0-5.0-13.0","sub-13","","2000","0","fixation","","<div class = centerbox><div class = fixation>+</div></div>","none","2000","","practice","","","",""
"458","71","poldrack-single-stim","19","75385","0.0-5.0-14.0","sub-13","","1500","0","probe","","<div class = centerbox><div class = img-container><img src = ""/static/experiments/dot_pattern_expectancy/images/probe4.png""</img></div></div>","89,71","500","BY","practice","3","71","true",""
"-1","-1","poldrack-single-stim","20","75905","0.0-5.0-15.0","sub-13","","500","0","feedback","","<div class = centerbox><div style=""color:#4FE829""; class = center-text>Correct!</div></div>","none","500","","practice","4","","",""
"-1","-1","poldrack-single-stim","21","76425","0.0-5.0-16.0","sub-13","","500","0","cue","","<div class = centerbox><div class = img-container><img src = ""/static/experiments/dot_pattern_expectancy/images/cue3.png""</img></div></div>","none","500","AX","practice","4","","",""
"-1","-1","poldrack-single-stim","22","78446","0.0-5.0-17.0","sub-13","","2000","0","fixation","","<div class = centerbox><div class = fixation>+</div></div>","none","2000","","practice","","","",""
"414","89","poldrack-single-stim","23","80164","0.0-5.0-18.0","sub-13","","1700","0","probe","","<div class = centerbox><div class = img-container><img src = ""/static/experiments/dot_pattern_expectancy/images/probe1.png""</img></div></div>","89,71","500","AX","practice","4","89","true",""
"-1","-1","poldrack-single-stim","24","80685","0.0-5.0-19.0","sub-13","","500","0","feedback","","<div class = centerbox><div style=""color:#4FE829""; class = center-text>Correct!</div></div>","none","500","","practice","5","","",""
"-1","-1","poldrack-single-stim","25","81205","0.0-5.0-20.0","sub-13","","500","0","cue","","<div class = centerbox><div class = img-container><img src = ""/static/experiments/dot_pattern_expectancy/images/cue3.png""</img></div></div>","none","500","AY","practice","5","","",""
"-1","-1","poldrack-single-stim","26","83225","0.0-5.0-21.0","sub-13","","2000","0","fixation","","<div class = centerbox><div class = fixation>+</div></div>","none","2000","","practice","","","",""
"811","71","poldrack-single-stim","27","85745","0.0-5.0-22.0","sub-13","","2500","0","probe","","<div class = centerbox><div class = img-container><img src = ""/static/experiments/dot_pattern_expectancy/images/probe3.png""</img></div></div>","89,71","500","AY","practice","5","71","true",""
"-1","-1","poldrack-single-stim","28","86265","0.0-5.0-23.0","sub-13","","500","0","feedback","","<div class = centerbox><div style=""color:#4FE829""; class = center-text>Correct!</div></div>","none","500","","practice","6","","",""
"-1","-1","poldrack-single-stim","29","86785","0.0-5.0-24.0","sub-13","","500","0","cue","","<div class = centerbox><div class = img-container><img src = ""/static/experiments/dot_pattern_expectancy/images/cue5.png""</img></div></div>","none","500","BY","practice","6","","",""
"-1","-1","poldrack-single-stim","30","88806","0.0-5.0-25.0","sub-13","","2000","0","fixation","","<div class = centerbox><div class = fixation>+</div></div>","none","2000","","practice","","","",""
"361","71","poldrack-single-stim","31","90325","0.0-5.0-26.0","sub-13","","1500","0","probe","","<div class = centerbox><div class = img-container><img src = ""/static/experiments/dot_pattern_expectancy/images/probe2.png""</img></div></div>","89,71","500","BY","practice","6","71","true",""
"-1","-1","poldrack-single-stim","32","90846","0.0-5.0-27.0","sub-13","","500","0","feedback","","<div class = centerbox><div style=""color:#4FE829""; class = center-text>Correct!</div></div>","none","500","","practice","7","","",""
"-1","-1","poldrack-single-stim","33","91365","0.0-5.0-28.0","sub-13","","500","0","cue","","<div class = centerbox><div class = img-container><img src = ""/static/experiments/dot_pattern_expectancy/images/cue3.png""</img></div></div>","none","500","AY","practice","7","","",""
"-1","-1","poldrack-single-stim","34","93377","0.0-5.0-29.0","sub-13","","2000","0","fixation","","<div class = centerbox><div class = fixation>+</div></div>","none","2000","","practice","","","",""
"604","71","poldrack-single-stim","35","94887","0.0-5.0-30.0","sub-13","","1500","0","probe","","<div class = centerbox><div class = img-container><img src = ""/static/experiments/dot_pattern_expectancy/images/probe4.png""</img></div></div>","89,71","500","AY","practice","7","71","true",""
"-1","-1","poldrack-single-stim","36","95405","0.0-5.0-31.0","sub-13","","500","0","feedback","","<div class = centerbox><div style=""color:#4FE829""; class = center-text>Correct!</div></div>","none","500","","practice","8","","",""
"-1","-1","poldrack-single-stim","37","95925","0.0-5.0-32.0","sub-13","","500","0","cue","","<div class = centerbox><div class = img-container><img src = ""/static/experiments/dot_pattern_expectancy/images/cue3.png""</img></div></div>","none","500","AX","practice","8","","",""
"-1","-1","poldrack-single-stim","38","97944","0.0-5.0-33.0","sub-13","","2000","0","fixation","","<div class = centerbox><div class = fixation>+</div></div>","none","2000","","practice","","","",""
"529","89","poldrack-single-stim","39","99465","0.0-5.0-34.0","sub-13","","1500","0","probe","","<div class = centerbox><div class = img-container><img src = ""/static/experiments/dot_pattern_expectancy/images/probe1.png""</img></div></div>","89,71","500","AX","practice","8","89","true",""
"-1","-1","poldrack-single-stim","40","99985","0.0-5.0-35.0","sub-13","","500","0","feedback","","<div class = centerbox><div style=""color:#4FE829""; class = center-text>Correct!</div></div>","none","500","","practice","9","","",""
"-1","-1","poldrack-single-stim","41","100505","0.0-5.0-36.0","sub-13","","500","0","cue","","<div class = centerbox><div class = img-container><img src = ""/static/experiments/dot_pattern_expectancy/images/cue2.png""</img></div></div>","none","500","BX","practice","9","","",""
"-1","-1","poldrack-single-stim","42","102516","0.0-5.0-37.0","sub-13","","2000","0","fixation","","<div class = centerbox><div class = fixation>+</div></div>","none","2000","","practice","","","",""
"342","71","poldrack-single-stim","43","104435","0.0-5.0-38.0","sub-13","","1900","0","probe","","<div class = centerbox><div class = img-container><img src = ""/static/experiments/dot_pattern_expectancy/images/probe1.png""</img></div></div>","89,71","500","BX","practice","9","71","true",""
"-1","-1","poldrack-single-stim","44","104955","0.0-5.0-39.0","sub-13","","500","0","feedback","","<div class = centerbox><div style=""color:#4FE829""; class = center-text>Correct!</div></div>","none","500","","practice","10","","",""
"1479","32","poldrack-text","45","106440","0.0-6.0","sub-13","<div class = centerbox><div  class = center-text>Scanner Setup</div></div>","1479","0","fmri_scanner_wait","","","","","","","","","",""
"56245","84","poldrack-text","46","162689","0.0-7.0","sub-13","<div class = centerbox><div style='color:red'; class = center-text>+</div></div>","56245","0","fmri_trigger_wait","","","","","","","","","",""
"-1","-1","poldrack-single-stim","47","163705","0.0-8.0","sub-13","","1000","0","fmri_buffer","","","none","1000","","","","","",""
"-1","-1","poldrack-single-stim","48","165226","0.0-9.0","sub-13","","1500","500","test_start_block","","<div class = centerbox><div class = center-text>Preparez-vous!</p></div>","none","1500","","","","","",""
"-1","-1","poldrack-single-stim","49","166266","0.0-10.0","sub-13","","500","0","cue","","<div class = centerbox><div class = img-container><img src = ""/static/experiments/dot_pattern_expectancy/images/cue6.png""</img></div></div>","none","500","BY","test","0","","",""
"-1","-1","poldrack-single-stim","50","168270","0.0-11.0","sub-13","","2000","0","fixation","","<div class = centerbox><div class = fixation>+</div></div>","none","2000","","test","","","",""
"590","71","poldrack-single-stim","51","169925","0.0-12.0","sub-13","","1636","0","probe","","<div class = centerbox><div class = img-container><img src = ""/static/experiments/dot_pattern_expectancy/images/probe5.png""</img></div></div>","89,71","500","BY","test","0","71","true",""
"-1","-1","poldrack-single-stim","52","170446","0.0-13.0","sub-13","","500","0","cue","","<div class = centerbox><div class = img-container><img src = ""/static/experiments/dot_pattern_expectancy/images/cue3.png""</img></div></div>","none","500","AY","test","1","","",""
"-1","-1","poldrack-single-stim","53","172465","0.0-14.0","sub-13","","2000","0","fixation","","<div class = centerbox><div class = fixation>+</div></div>","none","2000","","test","","","",""
"590","71","poldrack-single-stim","54","173986","0.0-15.0","sub-13","","1500","0","probe","","<div class = centerbox><div class = img-container><img src = ""/static/experiments/dot_pattern_expectancy/images/probe2.png""</img></div></div>","89,71","500","AY","test","1","71","true",""
"-1","-1","poldrack-single-stim","55","174504","0.0-16.0","sub-13","","500","0","cue","","<div class = centerbox><div class = img-container><img src = ""/static/experiments/dot_pattern_expectancy/images/cue3.png""</img></div></div>","none","500","AX","test","2","","",""
"-1","-1","poldrack-single-stim","56","176525","0.0-17.0","sub-13","","2000","0","fixation","","<div class = centerbox><div class = fixation>+</div></div>","none","2000","","test","","","",""
"488","89","poldrack-single-stim","57","178584","0.0-18.0","sub-13","","2044","0","probe","","<div class = centerbox><div class = img-container><img src = ""/static/experiments/dot_pattern_expectancy/images/probe1.png""</img></div></div>","89,71","500","AX","test","2","89","true",""
"-1","-1","poldrack-single-stim","58","179097","0.0-19.0","sub-13","","500","0","cue","","<div class = centerbox><div class = img-container><img src = ""/static/experiments/dot_pattern_expectancy/images/cue4.png""</img></div></div>","none","500","BY","test","3","","",""
"-1","-1","poldrack-single-stim","59","181115","0.0-20.0","sub-13","","2000","0","fixation","","<div class = centerbox><div class = fixation>+</div></div>","none","2000","","test","","","",""
"329","71","poldrack-single-stim","60","182894","0.0-21.0","sub-13","","1772","0","probe","","<div class = centerbox><div class = img-container><img src = ""/static/experiments/dot_pattern_expectancy/images/probe4.png""</img></div></div>","89,71","500","BY","test","3","71","true",""
"-1","-1","poldrack-single-stim","61","183416","0.0-22.0","sub-13","","500","0","cue","","<div class = centerbox><div class = img-container><img src = ""/static/experiments/dot_pattern_expectancy/images/cue4.png""</img></div></div>","none","500","BX","test","4","","",""
"-1","-1","poldrack-single-stim","62","185436","0.0-23.0","sub-13","","2000","0","fixation","","<div class = centerbox><div class = fixation>+</div></div>","none","2000","","test","","","",""
"311","71","poldrack-single-stim","63","187093","0.0-24.0","sub-13","","1636","0","probe","","<div class = centerbox><div class = img-container><img src = ""/static/experiments/dot_pattern_expectancy/images/probe1.png""</img></div></div>","89,71","500","BX","test","4","71","true",""
"-1","-1","poldrack-single-stim","64","187615","0.0-25.0","sub-13","","500","0","cue","","<div class = centerbox><div class = img-container><img src = ""/static/experiments/dot_pattern_expectancy/images/cue3.png""</img></div></div>","none","500","AX","test","5","","",""
"-1","-1","poldrack-single-stim","65","189635","0.0-26.0","sub-13","","2000","0","fixation","","<div class = centerbox><div class = fixation>+</div></div>","none","2000","","test","","","",""
"429","89","poldrack-single-stim","66","191295","0.0-27.0","sub-13","","1636","0","probe","","<div class = centerbox><div class = img-container><img src = ""/static/experiments/dot_pattern_expectancy/images/probe1.png""</img></div></div>","89,71","500","AX","test","5","89","true",""
"-1","-1","poldrack-single-stim","67","191815","0.0-28.0","sub-13","","500","0","cue","","<div class = centerbox><div class = img-container><img src = ""/static/experiments/dot_pattern_expectancy/images/cue3.png""</img></div></div>","none","500","AX","test","6","","",""
"-1","-1","poldrack-single-stim","68","193836","0.0-29.0","sub-13","","2000","0","fixation","","<div class = centerbox><div class = fixation>+</div></div>","none","2000","","test","","","",""
"450","89","poldrack-single-stim","69","195345","0.0-30.0","sub-13","","1500","0","probe","","<div class = centerbox><div class = img-container><img src = ""/static/experiments/dot_pattern_expectancy/images/probe1.png""</img></div></div>","89,71","500","AX","test","6","89","true",""
"-1","-1","poldrack-single-stim","70","195865","0.0-31.0","sub-13","","500","0","cue","","<div class = centerbox><div class = img-container><img src = ""/static/experiments/dot_pattern_expectancy/images/cue3.png""</img></div></div>","none","500","AX","test","7","","",""
"-1","-1","poldrack-single-stim","71","197886","0.0-32.0","sub-13","","2000","0","fixation","","<div class = centerbox><div class = fixation>+</div></div>","none","2000","","test","","","",""
"554","89","poldrack-single-stim","72","199405","0.0-33.0","sub-13","","1500","0","probe","","<div class = centerbox><div class = img-container><img src = ""/static/experiments/dot_pattern_expectancy/images/probe1.png""</img></div></div>","89,71","500","AX","test","7","89","true",""
"-1","-1","poldrack-single-stim","73","199926","0.0-34.0","sub-13","","500","0","cue","","<div class = centerbox><div class = img-container><img src = ""/static/experiments/dot_pattern_expectancy/images/cue3.png""</img></div></div>","none","500","AY","test","8","","",""
"-1","-1","poldrack-single-stim","74","201946","0.0-35.0","sub-13","","2000","0","fixation","","<div class = centerbox><div class = fixation>+</div></div>","none","2000","","test","","","",""
"551","71","poldrack-single-stim","75","204005","0.0-36.0","sub-13","","2044","0","probe","","<div class = centerbox><div class = img-container><img src = ""/static/experiments/dot_pattern_expectancy/images/probe2.png""</img></div></div>","89,71","500","AY","test","8","71","true",""
"-1","-1","poldrack-single-stim","76","204526","0.0-37.0","sub-13","","500","0","cue","","<div class = centerbox><div class = img-container><img src = ""/static/experiments/dot_pattern_expectancy/images/cue3.png""</img></div></div>","none","500","AX","test","9","","",""
"-1","-1","poldrack-single-stim","77","206536","0.0-38.0","sub-13","","2000","0","fixation","","<div class = centerbox><div class = fixation>+</div></div>","none","2000","","test","","","",""
"484","89","poldrack-single-stim","78","208995","0.0-39.0","sub-13","","2452","0","probe","","<div class = centerbox><div class = img-container><img src = ""/static/experiments/dot_pattern_expectancy/images/probe1.png""</img></div></div>","89,71","500","AX","test","9","89","true",""
"-1","-1","poldrack-single-stim","79","209516","0.0-40.0","sub-13","","500","0","cue","","<div class = centerbox><div class = img-container><img src = ""/static/experiments/dot_pattern_expectancy/images/cue3.png""</img></div></div>","none","500","AX","test","10","","",""
"-1","-1","poldrack-single-stim","80","211535","0.0-41.0","sub-13","","2000","0","fixation","","<div class = centerbox><div class = fixation>+</div></div>","none","2000","","test","","","",""
"690","89","poldrack-single-stim","81","213464","0.0-42.0","sub-13","","1908","0","probe","","<div class = centerbox><div class = img-container><img src = ""/static/experiments/dot_pattern_expectancy/images/probe1.png""</img></div></div>","89,71","500","AX","test","10","89","true",""
"-1","-1","poldrack-single-stim","82","213974","0.0-43.0","sub-13","","500","0","cue","","<div class = centerbox><div class = img-container><img src = ""/static/experiments/dot_pattern_expectancy/images/cue3.png""</img></div></div>","none","500","AX","test","11","","",""
"-1","-1","poldrack-single-stim","83","215996","0.0-44.0","sub-13","","2000","0","fixation","","<div class = centerbox><div class = fixation>+</div></div>","none","2000","","test","","","",""
"534","89","poldrack-single-stim","84","217514","0.0-45.0","sub-13","","1500","0","probe","","<div class = centerbox><div class = img-container><img src = ""/static/experiments/dot_pattern_expectancy/images/probe1.png""</img></div></div>","89,71","500","AX","test","11","89","true",""
"-1","-1","poldrack-single-stim","85","218082","0.0-46.0","sub-13","","500","0","cue","","<div class = centerbox><div class = img-container><img src = ""/static/experiments/dot_pattern_expectancy/images/cue3.png""</img></div></div>","none","500","AX","test","12","","",""
"-1","-1","poldrack-single-stim","86","220106","0.0-47.0","sub-13","","2000","0","fixation","","<div class = centerbox><div class = fixation>+</div></div>","none","2000","","test","","","",""
"602","89","poldrack-single-stim","87","222025","0.0-48.0","sub-13","","1908","0","probe","","<div class = centerbox><div class = img-container><img src = ""/static/experiments/dot_pattern_expectancy/images/probe1.png""</img></div></div>","89,71","500","AX","test","12","89","true",""
"-1","-1","poldrack-single-stim","88","222546","0.0-49.0","sub-13","","500","0","cue","","<div class = centerbox><div class = img-container><img src = ""/static/experiments/dot_pattern_expectancy/images/cue1.png""</img></div></div>","none","500","BX","test","13","","",""
"-1","-1","poldrack-single-stim","89","224566","0.0-50.0","sub-13","","2000","0","fixation","","<div class = centerbox><div class = fixation>+</div></div>","none","2000","","test","","","",""
"290","71","poldrack-single-stim","90","226765","0.0-51.0","sub-13","","2180","0","probe","","<div class = centerbox><div class = img-container><img src = ""/static/experiments/dot_pattern_expectancy/images/probe1.png""</img></div></div>","89,71","500","BX","test","13","71","true",""
"-1","-1","poldrack-single-stim","91","227285","0.0-52.0","sub-13","","500","0","cue","","<div class = centerbox><div class = img-container><img src = ""/static/experiments/dot_pattern_expectancy/images/cue3.png""</img></div></div>","none","500","AX","test","14","","",""
"-1","-1","poldrack-single-stim","92","229295","0.0-53.0","sub-13","","2000","0","fixation","","<div class = centerbox><div class = fixation>+</div></div>","none","2000","","test","","","",""
"441","89","poldrack-single-stim","93","230814","0.0-54.0","sub-13","","1500","0","probe","","<div class = centerbox><div class = img-container><img src = ""/static/experiments/dot_pattern_expectancy/images/probe1.png""</img></div></div>","89,71","500","AX","test","14","89","true",""
"-1","-1","poldrack-single-stim","94","231334","0.0-55.0","sub-13","","500","0","cue","","<div class = centerbox><div class = img-container><img src = ""/static/experiments/dot_pattern_expectancy/images/cue5.png""</img></div></div>","none","500","BY","test","15","","",""
"-1","-1","poldrack-single-stim","95","233356","0.0-56.0","sub-13","","2000","0","fixation","","<div class = centerbox><div class = fixation>+</div></div>","none","2000","","test","","","",""
"374","71","poldrack-single-stim","96","235274","0.0-57.0","sub-13","","1908","0","probe","","<div class = centerbox><div class = img-container><img src = ""/static/experiments/dot_pattern_expectancy/images/probe4.png""</img></div></div>","89,71","500","BY","test","15","71","true",""
"-1","-1","poldrack-single-stim","97","235796","0.0-58.0","sub-13","","500","0","cue","","<div class = centerbox><div class = img-container><img src = ""/static/experiments/dot_pattern_expectancy/images/cue5.png""</img></div></div>","none","500","BX","test","16","","",""
"-1","-1","poldrack-single-stim","98","237816","0.0-59.0","sub-13","","2000","0","fixation","","<div class = centerbox><div class = fixation>+</div></div>","none","2000","","test","","","",""
"491","71","poldrack-single-stim","99","240134","0.0-60.0","sub-13","","2316","0","probe","","<div class = centerbox><div class = img-container><img src = ""/static/experiments/dot_pattern_expectancy/images/probe1.png""</img></div></div>","89,71","500","BX","test","16","71","true",""
"-1","-1","poldrack-single-stim","100","240655","0.0-61.0","sub-13","","500","0","cue","","<div class = centerbox><div class = img-container><img src = ""/static/experiments/dot_pattern_expectancy/images/cue3.png""</img></div></div>","none","500","AY","test","17","","",""
"-1","-1","poldrack-single-stim","101","242676","0.0-62.0","sub-13","","2000","0","fixation","","<div class = centerbox><div class = fixation>+</div></div>","none","2000","","test","","","",""
"540","71","poldrack-single-stim","102","245015","0.0-63.0","sub-13","","2316","0","probe","","<div class = centerbox><div class = img-container><img src = ""/static/experiments/dot_pattern_expectancy/images/probe4.png""</img></div></div>","89,71","500","AY","test","17","71","true",""
"-1","-1","poldrack-single-stim","103","245535","0.0-64.0","sub-13","","500","0","cue","","<div class = centerbox><div class = img-container><img src = ""/static/experiments/dot_pattern_expectancy/images/cue4.png""</img></div></div>","none","500","BX","test","18","","",""
"-1","-1","poldrack-single-stim","104","247555","0.0-65.0","sub-13","","2000","0","fixation","","<div class = centerbox><div class = fixation>+</div></div>","none","2000","","test","","","",""
"329","71","poldrack-single-stim","105","249214","0.0-66.0","sub-13","","1636","0","probe","","<div class = centerbox><div class = img-container><img src = ""/static/experiments/dot_pattern_expectancy/images/probe1.png""</img></div></div>","89,71","500","BX","test","18","71","true",""
"-1","-1","poldrack-single-stim","106","249735","0.0-67.0","sub-13","","500","0","cue","","<div class = centerbox><div class = img-container><img src = ""/static/experiments/dot_pattern_expectancy/images/cue3.png""</img></div></div>","none","500","AY","test","19","","",""
"-1","-1","poldrack-single-stim","107","251755","0.0-68.0","sub-13","","2000","0","fixation","","<div class = centerbox><div class = fixation>+</div></div>","none","2000","","test","","","",""
"611","71","poldrack-single-stim","108","253274","0.0-69.0","sub-13","","1500","0","probe","","<div class = centerbox><div class = img-container><img src = ""/static/experiments/dot_pattern_expectancy/images/probe4.png""</img></div></div>","89,71","500","AY","test","19","71","true",""
"-1","-1","poldrack-single-stim","109","253793","0.0-70.0","sub-13","","500","0","cue","","<div class = centerbox><div class = img-container><img src = ""/static/experiments/dot_pattern_expectancy/images/cue5.png""</img></div></div>","none","500","BY","test","20","","",""
"-1","-1","poldrack-single-stim","110","255815","0.0-71.0","sub-13","","2000","0","fixation","","<div class = centerbox><div class = fixation>+</div></div>","none","2000","","test","","","",""
"352","71","poldrack-single-stim","111","257735","0.0-72.0","sub-13","","1908","0","probe","","<div class = centerbox><div class = img-container><img src = ""/static/experiments/dot_pattern_expectancy/images/probe6.png""</img></div></div>","89,71","500","BY","test","20","71","true",""
"-1","-1","poldrack-single-stim","112","258245","0.0-73.0","sub-13","","500","0","cue","","<div class = centerbox><div class = img-container><img src = ""/static/experiments/dot_pattern_expectancy/images/cue3.png""</img></div></div>","none","500","AX","test","21","","",""
"-1","-1","poldrack-single-stim","113","260257","0.0-74.0","sub-13","","2000","0","fixation","","<div class = centerbox><div class = fixation>+</div></div>","none","2000","","test","","","",""
"524","89","poldrack-single-stim","114","261773","0.0-75.0","sub-13","","1500","0","probe","","<div class = centerbox><div class = img-container><img src = ""/static/experiments/dot_pattern_expectancy/images/probe1.png""</img></div></div>","89,71","500","AX","test","21","89","true",""
"-1","-1","poldrack-single-stim","115","262296","0.0-76.0","sub-13","","500","0","cue","","<div class = centerbox><div class = img-container><img src = ""/static/experiments/dot_pattern_expectancy/images/cue3.png""</img></div></div>","none","500","AY","test","22","","",""
"-1","-1","poldrack-single-stim","116","264315","0.0-77.0","sub-13","","2000","0","fixation","","<div class = centerbox><div class = fixation>+</div></div>","none","2000","","test","","","",""
"550","71","poldrack-single-stim","117","266635","0.0-78.0","sub-13","","2316","0","probe","","<div class = centerbox><div class = img-container><img src = ""/static/experiments/dot_pattern_expectancy/images/probe2.png""</img></div></div>","89,71","500","AY","test","22","71","true",""
"-1","-1","poldrack-single-stim","118","267157","0.0-79.0","sub-13","","500","0","cue","","<div class = centerbox><div class = img-container><img src = ""/static/experiments/dot_pattern_expectancy/images/cue3.png""</img></div></div>","none","500","AX","test","23","","",""
"-1","-1","poldrack-single-stim","119","269165","0.0-80.0","sub-13","","2000","0","fixation","","<div class = centerbox><div class = fixation>+</div></div>","none","2000","","test","","","",""
"608","89","poldrack-single-stim","120","270686","0.0-81.0","sub-13","","1500","0","probe","","<div class = centerbox><div class = img-container><img src = ""/static/experiments/dot_pattern_expectancy/images/probe1.png""</img></div></div>","89,71","500","AX","test","23","89","true",""
"-1","-1","poldrack-single-stim","121","271213","0.0-82.0","sub-13","","500","0","cue","","<div class = centerbox><div class = img-container><img src = ""/static/experiments/dot_pattern_expectancy/images/cue3.png""</img></div></div>","none","500","AY","test","24","","",""
"-1","-1","poldrack-single-stim","122","273225","0.0-83.0","sub-13","","2000","0","fixation","","<div class = centerbox><div class = fixation>+</div></div>","none","2000","","test","","","",""
"499","71","poldrack-single-stim","123","275965","0.0-84.0","sub-13","","2724","0","probe","","<div class = centerbox><div class = img-container><img src = ""/static/experiments/dot_pattern_expectancy/images/probe2.png""</img></div></div>","89,71","500","AY","test","24","71","true",""
"-1","-1","poldrack-single-stim","124","276487","0.0-85.0","sub-13","","500","0","cue","","<div class = centerbox><div class = img-container><img src = ""/static/experiments/dot_pattern_expectancy/images/cue3.png""</img></div></div>","none","500","AX","test","25","","",""
"-1","-1","poldrack-single-stim","125","278505","0.0-86.0","sub-13","","2000","0","fixation","","<div class = centerbox><div class = fixation>+</div></div>","none","2000","","test","","","",""
"482","89","poldrack-single-stim","126","280025","0.0-87.0","sub-13","","1500","0","probe","","<div class = centerbox><div class = img-container><img src = ""/static/experiments/dot_pattern_expectancy/images/probe1.png""</img></div></div>","89,71","500","AX","test","25","89","true",""
"-1","-1","poldrack-single-stim","127","280545","0.0-88.0","sub-13","","500","0","cue","","<div class = centerbox><div class = img-container><img src = ""/static/experiments/dot_pattern_expectancy/images/cue3.png""</img></div></div>","none","500","AX","test","26","","",""
"-1","-1","poldrack-single-stim","128","282566","0.0-89.0","sub-13","","2000","0","fixation","","<div class = centerbox><div class = fixation>+</div></div>","none","2000","","test","","","",""
"665","89","poldrack-single-stim","129","284204","0.0-90.0","sub-13","","1636","0","probe","","<div class = centerbox><div class = img-container><img src = ""/static/experiments/dot_pattern_expectancy/images/probe1.png""</img></div></div>","89,71","500","AX","test","26","89","true",""
"-1","-1","poldrack-single-stim","130","284724","0.0-91.0","sub-13","","500","0","cue","","<div class = centerbox><div class = img-container><img src = ""/static/experiments/dot_pattern_expectancy/images/cue3.png""</img></div></div>","none","500","AX","test","27","","",""
"-1","-1","poldrack-single-stim","131","286746","0.0-92.0","sub-13","","2000","0","fixation","","<div class = centerbox><div class = fixation>+</div></div>","none","2000","","test","","","",""
"515","89","poldrack-single-stim","132","288395","0.0-93.0","sub-13","","1636","0","probe","","<div class = centerbox><div class = img-container><img src = ""/static/experiments/dot_pattern_expectancy/images/probe1.png""</img></div></div>","89,71","500","AX","test","27","89","true",""
"-1","-1","poldrack-single-stim","133","288915","0.0-94.0","sub-13","","500","0","cue","","<div class = centerbox><div class = img-container><img src = ""/static/experiments/dot_pattern_expectancy/images/cue3.png""</img></div></div>","none","500","AX","test","28","","",""
"-1","-1","poldrack-single-stim","134","290935","0.0-95.0","sub-13","","2000","0","fixation","","<div class = centerbox><div class = fixation>+</div></div>","none","2000","","test","","","",""
"528","89","poldrack-single-stim","135","292724","0.0-96.0","sub-13","","1772","0","probe","","<div class = centerbox><div class = img-container><img src = ""/static/experiments/dot_pattern_expectancy/images/probe1.png""</img></div></div>","89,71","500","AX","test","28","89","true",""
"-1","-1","poldrack-single-stim","136","293245","0.0-97.0","sub-13","","500","0","cue","","<div class = centerbox><div class = img-container><img src = ""/static/experiments/dot_pattern_expectancy/images/cue5.png""</img></div></div>","none","500","BY","test","29","","",""
"-1","-1","poldrack-single-stim","137","295255","0.0-98.0","sub-13","","2000","0","fixation","","<div class = centerbox><div class = fixation>+</div></div>","none","2000","","test","","","",""
"447","71","poldrack-single-stim","138","297035","0.0-99.0","sub-13","","1772","0","probe","","<div class = centerbox><div class = img-container><img src = ""/static/experiments/dot_pattern_expectancy/images/probe3.png""</img></div></div>","89,71","500","BY","test","29","71","true",""
"-1","-1","poldrack-single-stim","139","297556","0.0-100.0","sub-13","","500","0","cue","","<div class = centerbox><div class = img-container><img src = ""/static/experiments/dot_pattern_expectancy/images/cue3.png""</img></div></div>","none","500","AX","test","30","","",""
"-1","-1","poldrack-single-stim","140","299565","0.0-101.0","sub-13","","2000","0","fixation","","<div class = centerbox><div class = fixation>+</div></div>","none","2000","","test","","","",""
"606","89","poldrack-single-stim","141","301084","0.0-102.0","sub-13","","1500","0","probe","","<div class = centerbox><div class = img-container><img src = ""/static/experiments/dot_pattern_expectancy/images/probe1.png""</img></div></div>","89,71","500","AX","test","30","89","true",""
"-1","-1","poldrack-single-stim","142","301605","0.0-103.0","sub-13","","500","0","cue","","<div class = centerbox><div class = img-container><img src = ""/static/experiments/dot_pattern_expectancy/images/cue2.png""</img></div></div>","none","500","BY","test","31","","",""
"-1","-1","poldrack-single-stim","143","303615","0.0-104.0","sub-13","","2000","0","fixation","","<div class = centerbox><div class = fixation>+</div></div>","none","2000","","test","","","",""
"711","71","poldrack-single-stim","144","306077","0.0-105.0","sub-13","","2452","0","probe","","<div class = centerbox><div class = img-container><img src = ""/static/experiments/dot_pattern_expectancy/images/probe5.png""</img></div></div>","89,71","500","BY","test","31","71","true",""
"-1","-1","poldrack-single-stim","145","306595","0.0-106.0","sub-13","","500","0","cue","","<div class = centerbox><div class = img-container><img src = ""/static/experiments/dot_pattern_expectancy/images/cue3.png""</img></div></div>","none","500","AX","test","32","","",""
"-1","-1","poldrack-single-stim","146","308614","0.0-107.0","sub-13","","2000","0","fixation","","<div class = centerbox><div class = fixation>+</div></div>","none","2000","","test","","","",""
"446","89","poldrack-single-stim","147","310255","0.0-108.0","sub-13","","1636","0","probe","","<div class = centerbox><div class = img-container><img src = ""/static/experiments/dot_pattern_expectancy/images/probe1.png""</img></div></div>","89,71","500","AX","test","32","89","true",""
"-1","-1","poldrack-single-stim","148","310765","0.0-109.0","sub-13","","500","0","cue","","<div class = centerbox><div class = img-container><img src = ""/static/experiments/dot_pattern_expectancy/images/cue3.png""</img></div></div>","none","500","AX","test","33","","",""
"-1","-1","poldrack-single-stim","149","312785","0.0-110.0","sub-13","","2000","0","fixation","","<div class = centerbox><div class = fixation>+</div></div>","none","2000","","test","","","",""
"346","89","poldrack-single-stim","150","314444","0.0-111.0","sub-13","","1636","0","probe","","<div class = centerbox><div class = img-container><img src = ""/static/experiments/dot_pattern_expectancy/images/probe1.png""</img></div></div>","89,71","500","AX","test","33","89","true",""
"-1","-1","poldrack-single-stim","151","314965","0.0-112.0","sub-13","","500","0","cue","","<div class = centerbox><div class = img-container><img src = ""/static/experiments/dot_pattern_expectancy/images/cue4.png""</img></div></div>","none","500","BX","test","34","","",""
"-1","-1","poldrack-single-stim","152","316986","0.0-113.0","sub-13","","2000","0","fixation","","<div class = centerbox><div class = fixation>+</div></div>","none","2000","","test","","","",""
"337","71","poldrack-single-stim","153","318505","0.0-114.0","sub-13","","1500","0","probe","","<div class = centerbox><div class = img-container><img src = ""/static/experiments/dot_pattern_expectancy/images/probe1.png""</img></div></div>","89,71","500","BX","test","34","71","true",""
"-1","-1","poldrack-single-stim","154","319025","0.0-115.0","sub-13","","500","0","cue","","<div class = centerbox><div class = img-container><img src = ""/static/experiments/dot_pattern_expectancy/images/cue5.png""</img></div></div>","none","500","BX","test","35","","",""
"-1","-1","poldrack-single-stim","155","321045","0.0-116.0","sub-13","","2000","0","fixation","","<div class = centerbox><div class = fixation>+</div></div>","none","2000","","test","","","",""
"402","71","poldrack-single-stim","156","322564","0.0-117.0","sub-13","","1500","0","probe","","<div class = centerbox><div class = img-container><img src = ""/static/experiments/dot_pattern_expectancy/images/probe1.png""</img></div></div>","89,71","500","BX","test","35","71","true",""
"-1","-1","poldrack-single-stim","157","323083","0.0-118.0","sub-13","","500","0","cue","","<div class = centerbox><div class = img-container><img src = ""/static/experiments/dot_pattern_expectancy/images/cue3.png""</img></div></div>","none","500","AX","test","36","","",""
"-1","-1","poldrack-single-stim","158","325105","0.0-119.0","sub-13","","2000","0","fixation","","<div class = centerbox><div class = fixation>+</div></div>","none","2000","","test","","","",""
"389","89","poldrack-single-stim","159","327444","0.0-120.0","sub-13","","2316","0","probe","","<div class = centerbox><div class = img-container><img src = ""/static/experiments/dot_pattern_expectancy/images/probe1.png""</img></div></div>","89,71","500","AX","test","36","89","true",""
"-1","-1","poldrack-single-stim","160","327965","0.0-121.0","sub-13","","500","0","cue","","<div class = centerbox><div class = img-container><img src = ""/static/experiments/dot_pattern_expectancy/images/cue3.png""</img></div></div>","none","500","AY","test","37","","",""
"-1","-1","poldrack-single-stim","161","329975","0.0-122.0","sub-13","","2000","0","fixation","","<div class = centerbox><div class = fixation>+</div></div>","none","2000","","test","","","",""
"571","71","poldrack-single-stim","162","332034","0.0-123.0","sub-13","","2044","0","probe","","<div class = centerbox><div class = img-container><img src = ""/static/experiments/dot_pattern_expectancy/images/probe4.png""</img></div></div>","89,71","500","AY","test","37","71","true",""
"-1","-1","poldrack-single-stim","163","332555","0.0-124.0","sub-13","","500","0","cue","","<div class = centerbox><div class = img-container><img src = ""/static/experiments/dot_pattern_expectancy/images/cue3.png""</img></div></div>","none","500","AX","test","38","","",""
"-1","-1","poldrack-single-stim","164","334576","0.0-125.0","sub-13","","2000","0","fixation","","<div class = centerbox><div class = fixation>+</div></div>","none","2000","","test","","","",""
"451","89","poldrack-single-stim","165","338536","0.0-126.0","sub-13","","3948","0","probe","","<div class = centerbox><div class = img-container><img src = ""/static/experiments/dot_pattern_expectancy/images/probe1.png""</img></div></div>","89,71","500","AX","test","38","89","true",""
"-1","-1","poldrack-single-stim","166","339057","0.0-127.0","sub-13","","500","0","cue","","<div class = centerbox><div class = img-container><img src = ""/static/experiments/dot_pattern_expectancy/images/cue3.png""</img></div></div>","none","500","AX","test","39","","",""
"-1","-1","poldrack-single-stim","167","341075","0.0-128.0","sub-13","","2000","0","fixation","","<div class = centerbox><div class = fixation>+</div></div>","none","2000","","test","","","",""
"419","89","poldrack-single-stim","168","342715","0.0-129.0","sub-13","","1636","0","probe","","<div class = centerbox><div class = img-container><img src = ""/static/experiments/dot_pattern_expectancy/images/probe1.png""</img></div></div>","89,71","500","AX","test","39","89","true",""
"-1","-1","poldrack-single-stim","169","350236","0.0-130.0","sub-13","","7500","1000","rest_block","","<div class = centerbox><div class = center-text>+</div></div>","none","7500","","","","","",""
"-1","-1","poldrack-single-stim","170","352775","0.0-131.0","sub-13","","1500","500","test_start_block","","<div class = centerbox><div class = center-text>Preparez-vous!</p></div>","none","1500","","","","","",""
"-1","-1","poldrack-single-stim","171","353817","0.0-132.0","sub-13","","500","0","cue","","<div class = centerbox><div class = img-container><img src = ""/static/experiments/dot_pattern_expectancy/images/cue3.png""</img></div></div>","none","500","AY","test","0","","",""
"-1","-1","poldrack-single-stim","172","355836","0.0-133.0","sub-13","","2000","0","fixation","","<div class = centerbox><div class = fixation>+</div></div>","none","2000","","test","","","",""
"1100","71","poldrack-single-stim","173","357495","0.0-134.0","sub-13","","1636","0","probe","","<div class = centerbox><div class = img-container><img src = ""/static/experiments/dot_pattern_expectancy/images/probe6.png""</img></div></div>","89,71","500","AY","test","0","71","true",""
"-1","-1","poldrack-single-stim","174","358014","0.0-135.0","sub-13","","500","0","cue","","<div class = centerbox><div class = img-container><img src = ""/static/experiments/dot_pattern_expectancy/images/cue3.png""</img></div></div>","none","500","AX","test","1","","",""
"-1","-1","poldrack-single-stim","175","360035","0.0-136.0","sub-13","","2000","0","fixation","","<div class = centerbox><div class = fixation>+</div></div>","none","2000","","test","","","",""
"1155","89","poldrack-single-stim","176","361674","0.0-137.0","sub-13","","1636","0","probe","","<div class = centerbox><div class = img-container><img src = ""/static/experiments/dot_pattern_expectancy/images/probe1.png""</img></div></div>","89,71","500","AX","test","1","89","true",""
"-1","-1","poldrack-single-stim","177","362194","0.0-138.0","sub-13","","500","0","cue","","<div class = centerbox><div class = img-container><img src = ""/static/experiments/dot_pattern_expectancy/images/cue3.png""</img></div></div>","none","500","AX","test","2","","",""
"-1","-1","poldrack-single-stim","178","364212","0.0-139.0","sub-13","","2000","0","fixation","","<div class = centerbox><div class = fixation>+</div></div>","none","2000","","test","","","",""
"554","89","poldrack-single-stim","179","365736","0.0-140.0","sub-13","","1500","0","probe","","<div class = centerbox><div class = img-container><img src = ""/static/experiments/dot_pattern_expectancy/images/probe1.png""</img></div></div>","89,71","500","AX","test","2","89","true",""
"-1","-1","poldrack-single-stim","180","366256","0.0-141.0","sub-13","","500","0","cue","","<div class = centerbox><div class = img-container><img src = ""/static/experiments/dot_pattern_expectancy/images/cue3.png""</img></div></div>","none","500","AX","test","3","","",""
"-1","-1","poldrack-single-stim","181","368276","0.0-142.0","sub-13","","2000","0","fixation","","<div class = centerbox><div class = fixation>+</div></div>","none","2000","","test","","","",""
"417","89","poldrack-single-stim","182","369795","0.0-143.0","sub-13","","1500","0","probe","","<div class = centerbox><div class = img-container><img src = ""/static/experiments/dot_pattern_expectancy/images/probe1.png""</img></div></div>","89,71","500","AX","test","3","89","true",""
"-1","-1","poldrack-single-stim","183","370316","0.0-144.0","sub-13","","500","0","cue","","<div class = centerbox><div class = img-container><img src = ""/static/experiments/dot_pattern_expectancy/images/cue3.png""</img></div></div>","none","500","AX","test","4","","",""
"-1","-1","poldrack-single-stim","184","372335","0.0-145.0","sub-13","","2000","0","fixation","","<div class = centerbox><div class = fixation>+</div></div>","none","2000","","test","","","",""
"296","71","poldrack-single-stim","185","374254","0.0-146.0","sub-13","","1908","0","probe","","<div class = centerbox><div class = img-container><img src = ""/static/experiments/dot_pattern_expectancy/images/probe1.png""</img></div></div>","89,71","500","AX","test","4","89","false",""
"-1","-1","poldrack-single-stim","186","374775","0.0-147.0","sub-13","","500","0","cue","","<div class = centerbox><div class = img-container><img src = ""/static/experiments/dot_pattern_expectancy/images/cue4.png""</img></div></div>","none","500","BX","test","5","","",""
"-1","-1","poldrack-single-stim","187","376796","0.0-148.0","sub-13","","2000","0","fixation","","<div class = centerbox><div class = fixation>+</div></div>","none","2000","","test","","","",""
"372","71","poldrack-single-stim","188","378455","0.0-149.0","sub-13","","1636","0","probe","","<div class = centerbox><div class = img-container><img src = ""/static/experiments/dot_pattern_expectancy/images/probe1.png""</img></div></div>","89,71","500","BX","test","5","71","true",""
"-1","-1","poldrack-single-stim","189","378976","0.0-150.0","sub-13","","500","0","cue","","<div class = centerbox><div class = img-container><img src = ""/static/experiments/dot_pattern_expectancy/images/cue3.png""</img></div></div>","none","500","AX","test","6","","",""
"-1","-1","poldrack-single-stim","190","380995","0.0-151.0","sub-13","","2000","0","fixation","","<div class = centerbox><div class = fixation>+</div></div>","none","2000","","test","","","",""
"443","89","poldrack-single-stim","191","383044","0.0-152.0","sub-13","","2044","0","probe","","<div class = centerbox><div class = img-container><img src = ""/static/experiments/dot_pattern_expectancy/images/probe1.png""</img></div></div>","89,71","500","AX","test","6","89","true",""
"-1","-1","poldrack-single-stim","192","383553","0.0-153.0","sub-13","","500","0","cue","","<div class = centerbox><div class = img-container><img src = ""/static/experiments/dot_pattern_expectancy/images/cue3.png""</img></div></div>","none","500","AX","test","7","","",""
"-1","-1","poldrack-single-stim","193","385565","0.0-154.0","sub-13","","2000","0","fixation","","<div class = centerbox><div class = fixation>+</div></div>","none","2000","","test","","","",""
"470","89","poldrack-single-stim","194","387345","0.0-155.0","sub-13","","1772","0","probe","","<div class = centerbox><div class = img-container><img src = ""/static/experiments/dot_pattern_expectancy/images/probe1.png""</img></div></div>","89,71","500","AX","test","7","89","true",""
"-1","-1","poldrack-single-stim","195","387863","0.0-156.0","sub-13","","500","0","cue","","<div class = centerbox><div class = img-container><img src = ""/static/experiments/dot_pattern_expectancy/images/cue3.png""</img></div></div>","none","500","AX","test","8","","",""
"-1","-1","poldrack-single-stim","196","389886","0.0-157.0","sub-13","","2000","0","fixation","","<div class = centerbox><div class = fixation>+</div></div>","none","2000","","test","","","",""
"466","89","poldrack-single-stim","197","391405","0.0-158.0","sub-13","","1500","0","probe","","<div class = centerbox><div class = img-container><img src = ""/static/experiments/dot_pattern_expectancy/images/probe1.png""</img></div></div>","89,71","500","AX","test","8","89","true",""
"-1","-1","poldrack-single-stim","198","391925","0.0-159.0","sub-13","","500","0","cue","","<div class = centerbox><div class = img-container><img src = ""/static/experiments/dot_pattern_expectancy/images/cue3.png""</img></div></div>","none","500","AX","test","9","","",""
"-1","-1","poldrack-single-stim","199","393945","0.0-160.0","sub-13","","2000","0","fixation","","<div class = centerbox><div class = fixation>+</div></div>","none","2000","","test","","","",""
"442","89","poldrack-single-stim","200","396144","0.0-161.0","sub-13","","2180","0","probe","","<div class = centerbox><div class = img-container><img src = ""/static/experiments/dot_pattern_expectancy/images/probe1.png""</img></div></div>","89,71","500","AX","test","9","89","true",""
"-1","-1","poldrack-single-stim","201","396665","0.0-162.0","sub-13","","500","0","cue","","<div class = centerbox><div class = img-container><img src = ""/static/experiments/dot_pattern_expectancy/images/cue3.png""</img></div></div>","none","500","AX","test","10","","",""
"-1","-1","poldrack-single-stim","202","398675","0.0-163.0","sub-13","","2000","0","fixation","","<div class = centerbox><div class = fixation>+</div></div>","none","2000","","test","","","",""
"545","89","poldrack-single-stim","203","400194","0.0-164.0","sub-13","","1500","0","probe","","<div class = centerbox><div class = img-container><img src = ""/static/experiments/dot_pattern_expectancy/images/probe1.png""</img></div></div>","89,71","500","AX","test","10","89","true",""
"-1","-1","poldrack-single-stim","204","400714","0.0-165.0","sub-13","","500","0","cue","","<div class = centerbox><div class = img-container><img src = ""/static/experiments/dot_pattern_expectancy/images/cue5.png""</img></div></div>","none","500","BX","test","11","","",""
"-1","-1","poldrack-single-stim","205","402736","0.0-166.0","sub-13","","2000","0","fixation","","<div class = centerbox><div class = fixation>+</div></div>","none","2000","","test","","","",""
"355","71","poldrack-single-stim","206","406423","0.0-167.0","sub-13","","3676","0","probe","","<div class = centerbox><div class = img-container><img src = ""/static/experiments/dot_pattern_expectancy/images/probe1.png""</img></div></div>","89,71","500","BX","test","11","71","true",""
"-1","-1","poldrack-single-stim","207","406946","0.0-168.0","sub-13","","500","0","cue","","<div class = centerbox><div class = img-container><img src = ""/static/experiments/dot_pattern_expectancy/images/cue1.png""</img></div></div>","none","500","BY","test","12","","",""
"-1","-1","poldrack-single-stim","208","408955","0.0-169.0","sub-13","","2000","0","fixation","","<div class = centerbox><div class = fixation>+</div></div>","none","2000","","test","","","",""
"565","71","poldrack-single-stim","209","410595","0.0-170.0","sub-13","","1636","0","probe","","<div class = centerbox><div class = img-container><img src = ""/static/experiments/dot_pattern_expectancy/images/probe2.png""</img></div></div>","89,71","500","BY","test","12","71","true",""
"-1","-1","poldrack-single-stim","210","411116","0.0-171.0","sub-13","","500","0","cue","","<div class = centerbox><div class = img-container><img src = ""/static/experiments/dot_pattern_expectancy/images/cue5.png""</img></div></div>","none","500","BY","test","13","","",""
"-1","-1","poldrack-single-stim","211","413133","0.0-172.0","sub-13","","2000","0","fixation","","<div class = centerbox><div class = fixation>+</div></div>","none","2000","","test","","","",""
"664","71","poldrack-single-stim","212","414775","0.0-173.0","sub-13","","1636","0","probe","","<div class = centerbox><div class = img-container><img src = ""/static/experiments/dot_pattern_expectancy/images/probe6.png""</img></div></div>","89,71","500","BY","test","13","71","true",""
"-1","-1","poldrack-single-stim","213","415296","0.0-174.0","sub-13","","500","0","cue","","<div class = centerbox><div class = img-container><img src = ""/static/experiments/dot_pattern_expectancy/images/cue6.png""</img></div></div>","none","500","BX","test","14","","",""
"-1","-1","poldrack-single-stim","214","417315","0.0-175.0","sub-13","","2000","0","fixation","","<div class = centerbox><div class = fixation>+</div></div>","none","2000","","test","","","",""
"615","71","poldrack-single-stim","215","418824","0.0-176.0","sub-13","","1500","0","probe","","<div class = centerbox><div class = img-container><img src = ""/static/experiments/dot_pattern_expectancy/images/probe1.png""</img></div></div>","89,71","500","BX","test","14","71","true",""
"-1","-1","poldrack-single-stim","216","419345","0.0-177.0","sub-13","","500","0","cue","","<div class = centerbox><div class = img-container><img src = ""/static/experiments/dot_pattern_expectancy/images/cue3.png""</img></div></div>","none","500","AX","test","15","","",""
"-1","-1","poldrack-single-stim","217","421366","0.0-178.0","sub-13","","2000","0","fixation","","<div class = centerbox><div class = fixation>+</div></div>","none","2000","","test","","","",""
"557","89","poldrack-single-stim","218","423284","0.0-179.0","sub-13","","1908","0","probe","","<div class = centerbox><div class = img-container><img src = ""/static/experiments/dot_pattern_expectancy/images/probe1.png""</img></div></div>","89,71","500","AX","test","15","89","true",""
"-1","-1","poldrack-single-stim","219","423806","0.0-180.0","sub-13","","500","0","cue","","<div class = centerbox><div class = img-container><img src = ""/static/experiments/dot_pattern_expectancy/images/cue3.png""</img></div></div>","none","500","AX","test","16","","",""
"-1","-1","poldrack-single-stim","220","425815","0.0-181.0","sub-13","","2000","0","fixation","","<div class = centerbox><div class = fixation>+</div></div>","none","2000","","test","","","",""
"444","89","poldrack-single-stim","221","427454","0.0-182.0","sub-13","","1636","0","probe","","<div class = centerbox><div class = img-container><img src = ""/static/experiments/dot_pattern_expectancy/images/probe1.png""</img></div></div>","89,71","500","AX","test","16","89","true",""
"-1","-1","poldrack-single-stim","222","427975","0.0-183.0","sub-13","","500","0","cue","","<div class = centerbox><div class = img-container><img src = ""/static/experiments/dot_pattern_expectancy/images/cue5.png""</img></div></div>","none","500","BX","test","17","","",""
"-1","-1","poldrack-single-stim","223","429996","0.0-184.0","sub-13","","2000","0","fixation","","<div class = centerbox><div class = fixation>+</div></div>","none","2000","","test","","","",""
"762","89","poldrack-single-stim","224","431515","0.0-185.0","sub-13","","1500","0","probe","","<div class = centerbox><div class = img-container><img src = ""/static/experiments/dot_pattern_expectancy/images/probe1.png""</img></div></div>","89,71","500","BX","test","17","71","false",""
"-1","-1","poldrack-single-stim","225","432035","0.0-186.0","sub-13","","500","0","cue","","<div class = centerbox><div class = img-container><img src = ""/static/experiments/dot_pattern_expectancy/images/cue3.png""</img></div></div>","none","500","AX","test","18","","",""
"-1","-1","poldrack-single-stim","226","434045","0.0-187.0","sub-13","","2000","0","fixation","","<div class = centerbox><div class = fixation>+</div></div>","none","2000","","test","","","",""
"527","89","poldrack-single-stim","227","435964","0.0-188.0","sub-13","","1908","0","probe","","<div class = centerbox><div class = img-container><img src = ""/static/experiments/dot_pattern_expectancy/images/probe1.png""</img></div></div>","89,71","500","AX","test","18","89","true",""
"-1","-1","poldrack-single-stim","228","436486","0.0-189.0","sub-13","","500","0","cue","","<div class = centerbox><div class = img-container><img src = ""/static/experiments/dot_pattern_expectancy/images/cue1.png""</img></div></div>","none","500","BY","test","19","","",""
"-1","-1","poldrack-single-stim","229","438506","0.0-190.0","sub-13","","2000","0","fixation","","<div class = centerbox><div class = fixation>+</div></div>","none","2000","","test","","","",""
"415","71","poldrack-single-stim","230","440705","0.0-191.0","sub-13","","2180","0","probe","","<div class = centerbox><div class = img-container><img src = ""/static/experiments/dot_pattern_expectancy/images/probe5.png""</img></div></div>","89,71","500","BY","test","19","71","true",""
"-1","-1","poldrack-single-stim","231","441225","0.0-192.0","sub-13","","500","0","cue","","<div class = centerbox><div class = img-container><img src = ""/static/experiments/dot_pattern_expectancy/images/cue3.png""</img></div></div>","none","500","AX","test","20","","",""
"-1","-1","poldrack-single-stim","232","443246","0.0-193.0","sub-13","","2000","0","fixation","","<div class = centerbox><div class = fixation>+</div></div>","none","2000","","test","","","",""
"533","89","poldrack-single-stim","233","445024","0.0-194.0","sub-13","","1772","0","probe","","<div class = centerbox><div class = img-container><img src = ""/static/experiments/dot_pattern_expectancy/images/probe1.png""</img></div></div>","89,71","500","AX","test","20","89","true",""
"-1","-1","poldrack-single-stim","234","445546","0.0-195.0","sub-13","","500","0","cue","","<div class = centerbox><div class = img-container><img src = ""/static/experiments/dot_pattern_expectancy/images/cue3.png""</img></div></div>","none","500","AX","test","21","","",""
"-1","-1","poldrack-single-stim","235","447565","0.0-196.0","sub-13","","2000","0","fixation","","<div class = centerbox><div class = fixation>+</div></div>","none","2000","","test","","","",""
"367","89","poldrack-single-stim","236","449085","0.0-197.0","sub-13","","1500","0","probe","","<div class = centerbox><div class = img-container><img src = ""/static/experiments/dot_pattern_expectancy/images/probe1.png""</img></div></div>","89,71","500","AX","test","21","89","true",""
"-1","-1","poldrack-single-stim","237","449605","0.0-198.0","sub-13","","500","0","cue","","<div class = centerbox><div class = img-container><img src = ""/static/experiments/dot_pattern_expectancy/images/cue3.png""</img></div></div>","none","500","AX","test","22","","",""
"-1","-1","poldrack-single-stim","238","451626","0.0-199.0","sub-13","","2000","0","fixation","","<div class = centerbox><div class = fixation>+</div></div>","none","2000","","test","","","",""
"533","89","poldrack-single-stim","239","453144","0.0-200.0","sub-13","","1500","0","probe","","<div class = centerbox><div class = img-container><img src = ""/static/experiments/dot_pattern_expectancy/images/probe1.png""</img></div></div>","89,71","500","AX","test","22","89","true",""
"-1","-1","poldrack-single-stim","240","453664","0.0-201.0","sub-13","","500","0","cue","","<div class = centerbox><div class = img-container><img src = ""/static/experiments/dot_pattern_expectancy/images/cue3.png""</img></div></div>","none","500","AX","test","23","","",""
"-1","-1","poldrack-single-stim","241","455676","0.0-202.0","sub-13","","2000","0","fixation","","<div class = centerbox><div class = fixation>+</div></div>","none","2000","","test","","","",""
"579","89","poldrack-single-stim","242","457736","0.0-203.0","sub-13","","2044","0","probe","","<div class = centerbox><div class = img-container><img src = ""/static/experiments/dot_pattern_expectancy/images/probe1.png""</img></div></div>","89,71","500","AX","test","23","89","true",""
"-1","-1","poldrack-single-stim","243","458255","0.0-204.0","sub-13","","500","0","cue","","<div class = centerbox><div class = img-container><img src = ""/static/experiments/dot_pattern_expectancy/images/cue3.png""</img></div></div>","none","500","AX","test","24","","",""
"-1","-1","poldrack-single-stim","244","460275","0.0-205.0","sub-13","","2000","0","fixation","","<div class = centerbox><div class = fixation>+</div></div>","none","2000","","test","","","",""
"476","89","poldrack-single-stim","245","463155","0.0-206.0","sub-13","","2860","0","probe","","<div class = centerbox><div class = img-container><img src = ""/static/experiments/dot_pattern_expectancy/images/probe1.png""</img></div></div>","89,71","500","AX","test","24","89","true",""
"-1","-1","poldrack-single-stim","246","463675","0.0-207.0","sub-13","","500","0","cue","","<div class = centerbox><div class = img-container><img src = ""/static/experiments/dot_pattern_expectancy/images/cue5.png""</img></div></div>","none","500","BX","test","25","","",""
"-1","-1","poldrack-single-stim","247","465695","0.0-208.0","sub-13","","2000","0","fixation","","<div class = centerbox><div class = fixation>+</div></div>","none","2000","","test","","","",""
"611","71","poldrack-single-stim","248","467214","0.0-209.0","sub-13","","1500","0","probe","","<div class = centerbox><div class = img-container><img src = ""/static/experiments/dot_pattern_expectancy/images/probe1.png""</img></div></div>","89,71","500","BX","test","25","71","true",""
"-1","-1","poldrack-single-stim","249","467725","0.0-210.0","sub-13","","500","0","cue","","<div class = centerbox><div class = img-container><img src = ""/static/experiments/dot_pattern_expectancy/images/cue1.png""</img></div></div>","none","500","BY","test","26","","",""
"-1","-1","poldrack-single-stim","250","469745","0.0-211.0","sub-13","","2000","0","fixation","","<div class = centerbox><div class = fixation>+</div></div>","none","2000","","test","","","",""
"373","71","poldrack-single-stim","251","471546","0.0-212.0","sub-13","","1772","0","probe","","<div class = centerbox><div class = img-container><img src = ""/static/experiments/dot_pattern_expectancy/images/probe2.png""</img></div></div>","89,71","500","BY","test","26","71","true",""
"-1","-1","poldrack-single-stim","252","472067","0.0-213.0","sub-13","","500","0","cue","","<div class = centerbox><div class = img-container><img src = ""/static/experiments/dot_pattern_expectancy/images/cue3.png""</img></div></div>","none","500","AX","test","27","","",""
"-1","-1","poldrack-single-stim","253","474085","0.0-214.0","sub-13","","2000","0","fixation","","<div class = centerbox><div class = fixation>+</div></div>","none","2000","","test","","","",""
"318","71","poldrack-single-stim","254","475864","0.0-215.0","sub-13","","1772","0","probe","","<div class = centerbox><div class = img-container><img src = ""/static/experiments/dot_pattern_expectancy/images/probe1.png""</img></div></div>","89,71","500","AX","test","27","89","false",""
"-1","-1","poldrack-single-stim","255","476385","0.0-216.0","sub-13","","500","0","cue","","<div class = centerbox><div class = img-container><img src = ""/static/experiments/dot_pattern_expectancy/images/cue3.png""</img></div></div>","none","500","AX","test","28","","",""
"-1","-1","poldrack-single-stim","256","478395","0.0-217.0","sub-13","","2000","0","fixation","","<div class = centerbox><div class = fixation>+</div></div>","none","2000","","test","","","",""
"390","89","poldrack-single-stim","257","481278","0.0-218.0","sub-13","","2860","0","probe","","<div class = centerbox><div class = img-container><img src = ""/static/experiments/dot_pattern_expectancy/images/probe1.png""</img></div></div>","89,71","500","AX","test","28","89","true",""
"-1","-1","poldrack-single-stim","258","481797","0.0-219.0","sub-13","","500","0","cue","","<div class = centerbox><div class = img-container><img src = ""/static/experiments/dot_pattern_expectancy/images/cue3.png""</img></div></div>","none","500","AX","test","29","","",""
"-1","-1","poldrack-single-stim","259","483815","0.0-220.0","sub-13","","2000","0","fixation","","<div class = centerbox><div class = fixation>+</div></div>","none","2000","","test","","","",""
"451","89","poldrack-single-stim","260","485594","0.0-221.0","sub-13","","1772","0","probe","","<div class = centerbox><div class = img-container><img src = ""/static/experiments/dot_pattern_expectancy/images/probe1.png""</img></div></div>","89,71","500","AX","test","29","89","true",""
"-1","-1","poldrack-single-stim","261","486115","0.0-222.0","sub-13","","500","0","cue","","<div class = centerbox><div class = img-container><img src = ""/static/experiments/dot_pattern_expectancy/images/cue6.png""</img></div></div>","none","500","BX","test","30","","",""
"-1","-1","poldrack-single-stim","262","488124","0.0-223.0","sub-13","","2000","0","fixation","","<div class = centerbox><div class = fixation>+</div></div>","none","2000","","test","","","",""
"304","71","poldrack-single-stim","263","489765","0.0-224.0","sub-13","","1636","0","probe","","<div class = centerbox><div class = img-container><img src = ""/static/experiments/dot_pattern_expectancy/images/probe1.png""</img></div></div>","89,71","500","BX","test","30","71","true",""
"-1","-1","poldrack-single-stim","264","490285","0.0-225.0","sub-13","","500","0","cue","","<div class = centerbox><div class = img-container><img src = ""/static/experiments/dot_pattern_expectancy/images/cue1.png""</img></div></div>","none","500","BX","test","31","","",""
"-1","-1","poldrack-single-stim","265","492305","0.0-226.0","sub-13","","2000","0","fixation","","<div class = centerbox><div class = fixation>+</div></div>","none","2000","","test","","","",""
"534","71","poldrack-single-stim","266","494764","0.0-227.0","sub-13","","2452","0","probe","","<div class = centerbox><div class = img-container><img src = ""/static/experiments/dot_pattern_expectancy/images/probe1.png""</img></div></div>","89,71","500","BX","test","31","71","true",""
"-1","-1","poldrack-single-stim","267","495275","0.0-228.0","sub-13","","500","0","cue","","<div class = centerbox><div class = img-container><img src = ""/static/experiments/dot_pattern_expectancy/images/cue3.png""</img></div></div>","none","500","AX","test","32","","",""
"-1","-1","poldrack-single-stim","268","497296","0.0-229.0","sub-13","","2000","0","fixation","","<div class = centerbox><div class = fixation>+</div></div>","none","2000","","test","","","",""
"506","89","poldrack-single-stim","269","498944","0.0-230.0","sub-13","","1636","0","probe","","<div class = centerbox><div class = img-container><img src = ""/static/experiments/dot_pattern_expectancy/images/probe1.png""</img></div></div>","89,71","500","AX","test","32","89","true",""
"-1","-1","poldrack-single-stim","270","499465","0.0-231.0","sub-13","","500","0","cue","","<div class = centerbox><div class = img-container><img src = ""/static/experiments/dot_pattern_expectancy/images/cue2.png""</img></div></div>","none","500","BX","test","33","","",""
"-1","-1","poldrack-single-stim","271","501485","0.0-232.0","sub-13","","2000","0","fixation","","<div class = centerbox><div class = fixation>+</div></div>","none","2000","","test","","","",""
"430","71","poldrack-single-stim","272","503005","0.0-233.0","sub-13","","1500","0","probe","","<div class = centerbox><div class = img-container><img src = ""/static/experiments/dot_pattern_expectancy/images/probe1.png""</img></div></div>","89,71","500","BX","test","33","71","true",""
"-1","-1","poldrack-single-stim","273","503525","0.0-234.0","sub-13","","500","0","cue","","<div class = centerbox><div class = img-container><img src = ""/static/experiments/dot_pattern_expectancy/images/cue3.png""</img></div></div>","none","500","AX","test","34","","",""
"-1","-1","poldrack-single-stim","274","505546","0.0-235.0","sub-13","","2000","0","fixation","","<div class = centerbox><div class = fixation>+</div></div>","none","2000","","test","","","",""
"411","89","poldrack-single-stim","275","507204","0.0-236.0","sub-13","","1636","0","probe","","<div class = centerbox><div class = img-container><img src = ""/static/experiments/dot_pattern_expectancy/images/probe1.png""</img></div></div>","89,71","500","AX","test","34","89","true",""
"-1","-1","poldrack-single-stim","276","507725","0.0-237.0","sub-13","","500","0","cue","","<div class = centerbox><div class = img-container><img src = ""/static/experiments/dot_pattern_expectancy/images/cue3.png""</img></div></div>","none","500","AX","test","35","","",""
"-1","-1","poldrack-single-stim","277","509746","0.0-238.0","sub-13","","2000","0","fixation","","<div class = centerbox><div class = fixation>+</div></div>","none","2000","","test","","","",""
"657","89","poldrack-single-stim","278","511404","0.0-239.0","sub-13","","1636","0","probe","","<div class = centerbox><div class = img-container><img src = ""/static/experiments/dot_pattern_expectancy/images/probe1.png""</img></div></div>","89,71","500","AX","test","35","89","true",""
"-1","-1","poldrack-single-stim","279","511926","0.0-240.0","sub-13","","500","0","cue","","<div class = centerbox><div class = img-container><img src = ""/static/experiments/dot_pattern_expectancy/images/cue1.png""</img></div></div>","none","500","BY","test","36","","",""
"-1","-1","poldrack-single-stim","280","513945","0.0-241.0","sub-13","","2000","0","fixation","","<div class = centerbox><div class = fixation>+</div></div>","none","2000","","test","","","",""
"386","71","poldrack-single-stim","281","516145","0.0-242.0","sub-13","","2180","0","probe","","<div class = centerbox><div class = img-container><img src = ""/static/experiments/dot_pattern_expectancy/images/probe3.png""</img></div></div>","89,71","500","BY","test","36","71","true",""
"-1","-1","poldrack-single-stim","282","516666","0.0-243.0","sub-13","","500","0","cue","","<div class = centerbox><div class = img-container><img src = ""/static/experiments/dot_pattern_expectancy/images/cue3.png""</img></div></div>","none","500","AX","test","37","","",""
"-1","-1","poldrack-single-stim","283","518685","0.0-244.0","sub-13","","2000","0","fixation","","<div class = centerbox><div class = fixation>+</div></div>","none","2000","","test","","","",""
"390","89","poldrack-single-stim","284","520205","0.0-245.0","sub-13","","1500","0","probe","","<div class = centerbox><div class = img-container><img src = ""/static/experiments/dot_pattern_expectancy/images/probe1.png""</img></div></div>","89,71","500","AX","test","37","89","true",""
"-1","-1","poldrack-single-stim","285","520725","0.0-246.0","sub-13","","500","0","cue","","<div class = centerbox><div class = img-container><img src = ""/static/experiments/dot_pattern_expectancy/images/cue3.png""</img></div></div>","none","500","AY","test","38","","",""
"-1","-1","poldrack-single-stim","286","522745","0.0-247.0","sub-13","","2000","0","fixation","","<div class = centerbox><div class = fixation>+</div></div>","none","2000","","test","","","",""
"750","71","poldrack-single-stim","287","524405","0.0-248.0","sub-13","","1636","0","probe","","<div class = centerbox><div class = img-container><img src = ""/static/experiments/dot_pattern_expectancy/images/probe6.png""</img></div></div>","89,71","500","AY","test","38","71","true",""
"-1","-1","poldrack-single-stim","288","524925","0.0-249.0","sub-13","","500","0","cue","","<div class = centerbox><div class = img-container><img src = ""/static/experiments/dot_pattern_expectancy/images/cue3.png""</img></div></div>","none","500","AX","test","39","","",""
"-1","-1","poldrack-single-stim","289","526950","0.0-250.0","sub-13","","2000","0","fixation","","<div class = centerbox><div class = fixation>+</div></div>","none","2000","","test","","","",""
"677","89","poldrack-single-stim","290","528604","0.0-251.0","sub-13","","1636","0","probe","","<div class = centerbox><div class = img-container><img src = ""/static/experiments/dot_pattern_expectancy/images/probe1.png""</img></div></div>","89,71","500","AX","test","39","89","true",""
"-1","-1","poldrack-single-stim","291","536125","0.0-252.0","sub-13","","7500","1000","rest_block","","<div class = centerbox><div class = center-text>+</div></div>","none","7500","","","","","",""
"-1","-1","poldrack-single-stim","292","538666","0.0-253.0","sub-13","","1500","500","test_start_block","","<div class = centerbox><div class = center-text>Preparez-vous!</p></div>","none","1500","","","","","",""
"-1","-1","poldrack-single-stim","293","539705","0.0-254.0","sub-13","","500","0","cue","","<div class = centerbox><div class = img-container><img src = ""/static/experiments/dot_pattern_expectancy/images/cue3.png""</img></div></div>","none","500","AX","test","0","","",""
"-1","-1","poldrack-single-stim","294","541715","0.0-255.0","sub-13","","2000","0","fixation","","<div class = centerbox><div class = fixation>+</div></div>","none","2000","","test","","","",""
"1283","71","poldrack-single-stim","295","543905","0.0-256.0","sub-13","","2180","0","probe","","<div class = centerbox><div class = img-container><img src = ""/static/experiments/dot_pattern_expectancy/images/probe1.png""</img></div></div>","89,71","500","AX","test","0","89","false",""
"-1","-1","poldrack-single-stim","296","544424","0.0-257.0","sub-13","","500","0","cue","","<div class = centerbox><div class = img-container><img src = ""/static/experiments/dot_pattern_expectancy/images/cue3.png""</img></div></div>","none","500","AY","test","1","","",""
"-1","-1","poldrack-single-stim","297","546435","0.0-258.0","sub-13","","2000","0","fixation","","<div class = centerbox><div class = fixation>+</div></div>","none","2000","","test","","","",""
"641","71","poldrack-single-stim","298","548755","0.0-259.0","sub-13","","2316","0","probe","","<div class = centerbox><div class = img-container><img src = ""/static/experiments/dot_pattern_expectancy/images/probe3.png""</img></div></div>","89,71","500","AY","test","1","71","true",""
"-1","-1","poldrack-single-stim","299","549266","0.0-260.0","sub-13","","500","0","cue","","<div class = centerbox><div class = img-container><img src = ""/static/experiments/dot_pattern_expectancy/images/cue3.png""</img></div></div>","none","500","AY","test","2","","",""
"-1","-1","poldrack-single-stim","300","551283","0.0-261.0","sub-13","","2000","0","fixation","","<div class = centerbox><div class = fixation>+</div></div>","none","2000","","test","","","",""
"703","71","poldrack-single-stim","301","552936","0.0-262.0","sub-13","","1636","0","probe","","<div class = centerbox><div class = img-container><img src = ""/static/experiments/dot_pattern_expectancy/images/probe4.png""</img></div></div>","89,71","500","AY","test","2","71","true",""
"-1","-1","poldrack-single-stim","302","553455","0.0-263.0","sub-13","","500","0","cue","","<div class = centerbox><div class = img-container><img src = ""/static/experiments/dot_pattern_expectancy/images/cue1.png""</img></div></div>","none","500","BX","test","3","","",""
"-1","-1","poldrack-single-stim","303","555463","0.0-264.0","sub-13","","2000","0","fixation","","<div class = centerbox><div class = fixation>+</div></div>","none","2000","","test","","","",""
"709","71","poldrack-single-stim","304","557385","0.0-265.0","sub-13","","1908","0","probe","","<div class = centerbox><div class = img-container><img src = ""/static/experiments/dot_pattern_expectancy/images/probe1.png""</img></div></div>","89,71","500","BX","test","3","71","true",""
"-1","-1","poldrack-single-stim","305","557905","0.0-266.0","sub-13","","500","0","cue","","<div class = centerbox><div class = img-container><img src = ""/static/experiments/dot_pattern_expectancy/images/cue3.png""</img></div></div>","none","500","AX","test","4","","",""
"-1","-1","poldrack-single-stim","306","559914","0.0-267.0","sub-13","","2000","0","fixation","","<div class = centerbox><div class = fixation>+</div></div>","none","2000","","test","","","",""
"402","89","poldrack-single-stim","307","563475","0.0-268.0","sub-13","","3540","0","probe","","<div class = centerbox><div class = img-container><img src = ""/static/experiments/dot_pattern_expectancy/images/probe1.png""</img></div></div>","89,71","500","AX","test","4","89","true",""
"-1","-1","poldrack-single-stim","308","563995","0.0-269.0","sub-13","","500","0","cue","","<div class = centerbox><div class = img-container><img src = ""/static/experiments/dot_pattern_expectancy/images/cue6.png""</img></div></div>","none","500","BX","test","5","","",""
"-1","-1","poldrack-single-stim","309","566005","0.0-270.0","sub-13","","2000","0","fixation","","<div class = centerbox><div class = fixation>+</div></div>","none","2000","","test","","","",""
"363","71","poldrack-single-stim","310","567645","0.0-271.0","sub-13","","1636","0","probe","","<div class = centerbox><div class = img-container><img src = ""/static/experiments/dot_pattern_expectancy/images/probe1.png""</img></div></div>","89,71","500","BX","test","5","71","true",""
"-1","-1","poldrack-single-stim","311","568165","0.0-272.0","sub-13","","500","0","cue","","<div class = centerbox><div class = img-container><img src = ""/static/experiments/dot_pattern_expectancy/images/cue2.png""</img></div></div>","none","500","BY","test","6","","",""
"-1","-1","poldrack-single-stim","312","570187","0.0-273.0","sub-13","","2000","0","fixation","","<div class = centerbox><div class = fixation>+</div></div>","none","2000","","test","","","",""
"374","71","poldrack-single-stim","313","571705","0.0-274.0","sub-13","","1500","0","probe","","<div class = centerbox><div class = img-container><img src = ""/static/experiments/dot_pattern_expectancy/images/probe5.png""</img></div></div>","89,71","500","BY","test","6","71","true",""
"-1","-1","poldrack-single-stim","314","572225","0.0-275.0","sub-13","","500","0","cue","","<div class = centerbox><div class = img-container><img src = ""/static/experiments/dot_pattern_expectancy/images/cue3.png""</img></div></div>","none","500","AX","test","7","","",""
"-1","-1","poldrack-single-stim","315","574244","0.0-276.0","sub-13","","2000","0","fixation","","<div class = centerbox><div class = fixation>+</div></div>","none","2000","","test","","","",""
"454","89","poldrack-single-stim","316","575753","0.0-277.0","sub-13","","1500","0","probe","","<div class = centerbox><div class = img-container><img src = ""/static/experiments/dot_pattern_expectancy/images/probe1.png""</img></div></div>","89,71","500","AX","test","7","89","true",""
"-1","-1","poldrack-single-stim","317","576275","0.0-278.0","sub-13","","500","0","cue","","<div class = centerbox><div class = img-container><img src = ""/static/experiments/dot_pattern_expectancy/images/cue3.png""</img></div></div>","none","500","AX","test","8","","",""
"-1","-1","poldrack-single-stim","318","578295","0.0-279.0","sub-13","","2000","0","fixation","","<div class = centerbox><div class = fixation>+</div></div>","none","2000","","test","","","",""
"495","89","poldrack-single-stim","319","580075","0.0-280.0","sub-13","","1772","0","probe","","<div class = centerbox><div class = img-container><img src = ""/static/experiments/dot_pattern_expectancy/images/probe1.png""</img></div></div>","89,71","500","AX","test","8","89","true",""
"-1","-1","poldrack-single-stim","320","580595","0.0-281.0","sub-13","","500","0","cue","","<div class = centerbox><div class = img-container><img src = ""/static/experiments/dot_pattern_expectancy/images/cue2.png""</img></div></div>","none","500","BY","test","9","","",""
"-1","-1","poldrack-single-stim","321","582615","0.0-282.0","sub-13","","2000","0","fixation","","<div class = centerbox><div class = fixation>+</div></div>","none","2000","","test","","","",""
"244","71","poldrack-single-stim","322","585076","0.0-283.0","sub-13","","2452","0","probe","","<div class = centerbox><div class = img-container><img src = ""/static/experiments/dot_pattern_expectancy/images/probe2.png""</img></div></div>","89,71","500","BY","test","9","71","true",""
"-1","-1","poldrack-single-stim","323","585595","0.0-284.0","sub-13","","500","0","cue","","<div class = centerbox><div class = img-container><img src = ""/static/experiments/dot_pattern_expectancy/images/cue3.png""</img></div></div>","none","500","AX","test","10","","",""
"-1","-1","poldrack-single-stim","324","587615","0.0-285.0","sub-13","","2000","0","fixation","","<div class = centerbox><div class = fixation>+</div></div>","none","2000","","test","","","",""
"495","89","poldrack-single-stim","325","589534","0.0-286.0","sub-13","","1908","0","probe","","<div class = centerbox><div class = img-container><img src = ""/static/experiments/dot_pattern_expectancy/images/probe1.png""</img></div></div>","89,71","500","AX","test","10","89","true",""
"-1","-1","poldrack-single-stim","326","590056","0.0-287.0","sub-13","","500","0","cue","","<div class = centerbox><div class = img-container><img src = ""/static/experiments/dot_pattern_expectancy/images/cue4.png""</img></div></div>","none","500","BX","test","11","","",""
"-1","-1","poldrack-single-stim","327","592065","0.0-288.0","sub-13","","2000","0","fixation","","<div class = centerbox><div class = fixation>+</div></div>","none","2000","","test","","","",""
"29","71","poldrack-single-stim","328","593714","0.0-289.0","sub-13","","1636","0","probe","","<div class = centerbox><div class = img-container><img src = ""/static/experiments/dot_pattern_expectancy/images/probe1.png""</img></div></div>","89,71","500","BX","test","11","71","true",""
"-1","-1","poldrack-single-stim","329","594235","0.0-290.0","sub-13","","500","0","cue","","<div class = centerbox><div class = img-container><img src = ""/static/experiments/dot_pattern_expectancy/images/cue3.png""</img></div></div>","none","500","AX","test","12","","",""
"-1","-1","poldrack-single-stim","330","596255","0.0-291.0","sub-13","","2000","0","fixation","","<div class = centerbox><div class = fixation>+</div></div>","none","2000","","test","","","",""
"495","89","poldrack-single-stim","331","597775","0.0-292.0","sub-13","","1500","0","probe","","<div class = centerbox><div class = img-container><img src = ""/static/experiments/dot_pattern_expectancy/images/probe1.png""</img></div></div>","89,71","500","AX","test","12","89","true",""
"-1","-1","poldrack-single-stim","332","598295","0.0-293.0","sub-13","","500","0","cue","","<div class = centerbox><div class = img-container><img src = ""/static/experiments/dot_pattern_expectancy/images/cue3.png""</img></div></div>","none","500","AX","test","13","","",""
"-1","-1","poldrack-single-stim","333","600315","0.0-294.0","sub-13","","2000","0","fixation","","<div class = centerbox><div class = fixation>+</div></div>","none","2000","","test","","","",""
"533","89","poldrack-single-stim","334","601973","0.0-295.0","sub-13","","1636","0","probe","","<div class = centerbox><div class = img-container><img src = ""/static/experiments/dot_pattern_expectancy/images/probe1.png""</img></div></div>","89,71","500","AX","test","13","89","true",""
"-1","-1","poldrack-single-stim","335","602496","0.0-296.0","sub-13","","500","0","cue","","<div class = centerbox><div class = img-container><img src = ""/static/experiments/dot_pattern_expectancy/images/cue3.png""</img></div></div>","none","500","AX","test","14","","",""
"-1","-1","poldrack-single-stim","336","604509","0.0-297.0","sub-13","","2000","0","fixation","","<div class = centerbox><div class = fixation>+</div></div>","none","2000","","test","","","",""
"467","89","poldrack-single-stim","337","606165","0.0-298.0","sub-13","","1636","0","probe","","<div class = centerbox><div class = img-container><img src = ""/static/experiments/dot_pattern_expectancy/images/probe1.png""</img></div></div>","89,71","500","AX","test","14","89","true",""
"-1","-1","poldrack-single-stim","338","606685","0.0-299.0","sub-13","","500","0","cue","","<div class = centerbox><div class = img-container><img src = ""/static/experiments/dot_pattern_expectancy/images/cue1.png""</img></div></div>","none","500","BY","test","15","","",""
"-1","-1","poldrack-single-stim","339","608695","0.0-300.0","sub-13","","2000","0","fixation","","<div class = centerbox><div class = fixation>+</div></div>","none","2000","","test","","","",""
"362","71","poldrack-single-stim","340","611154","0.0-301.0","sub-13","","2452","0","probe","","<div class = centerbox><div class = img-container><img src = ""/static/experiments/dot_pattern_expectancy/images/probe3.png""</img></div></div>","89,71","500","BY","test","15","71","true",""
"-1","-1","poldrack-single-stim","341","611675","0.0-302.0","sub-13","","500","0","cue","","<div class = centerbox><div class = img-container><img src = ""/static/experiments/dot_pattern_expectancy/images/cue3.png""</img></div></div>","none","500","AX","test","16","","",""
"-1","-1","poldrack-single-stim","342","613686","0.0-303.0","sub-13","","2000","0","fixation","","<div class = centerbox><div class = fixation>+</div></div>","none","2000","","test","","","",""
"479","89","poldrack-single-stim","343","615195","0.0-304.0","sub-13","","1500","0","probe","","<div class = centerbox><div class = img-container><img src = ""/static/experiments/dot_pattern_expectancy/images/probe1.png""</img></div></div>","89,71","500","AX","test","16","89","true",""
"-1","-1","poldrack-single-stim","344","615715","0.0-305.0","sub-13","","500","0","cue","","<div class = centerbox><div class = img-container><img src = ""/static/experiments/dot_pattern_expectancy/images/cue6.png""</img></div></div>","none","500","BY","test","17","","",""
"-1","-1","poldrack-single-stim","345","617736","0.0-306.0","sub-13","","2000","0","fixation","","<div class = centerbox><div class = fixation>+</div></div>","none","2000","","test","","","",""
"479","71","poldrack-single-stim","346","619245","0.0-307.0","sub-13","","1500","0","probe","","<div class = centerbox><div class = img-container><img src = ""/static/experiments/dot_pattern_expectancy/images/probe4.png""</img></div></div>","89,71","500","BY","test","17","71","true",""
"-1","-1","poldrack-single-stim","347","619767","0.0-308.0","sub-13","","500","0","cue","","<div class = centerbox><div class = img-container><img src = ""/static/experiments/dot_pattern_expectancy/images/cue3.png""</img></div></div>","none","500","AX","test","18","","",""
"-1","-1","poldrack-single-stim","348","621783","0.0-309.0","sub-13","","2000","0","fixation","","<div class = centerbox><div class = fixation>+</div></div>","none","2000","","test","","","",""
"537","89","poldrack-single-stim","349","623423","0.0-310.0","sub-13","","1636","0","probe","","<div class = centerbox><div class = img-container><img src = ""/static/experiments/dot_pattern_expectancy/images/probe1.png""</img></div></div>","89,71","500","AX","test","18","89","true",""
"-1","-1","poldrack-single-stim","350","623945","0.0-311.0","sub-13","","500","0","cue","","<div class = centerbox><div class = img-container><img src = ""/static/experiments/dot_pattern_expectancy/images/cue3.png""</img></div></div>","none","500","AX","test","19","","",""
"-1","-1","poldrack-single-stim","351","625966","0.0-312.0","sub-13","","2000","0","fixation","","<div class = centerbox><div class = fixation>+</div></div>","none","2000","","test","","","",""
"679","89","poldrack-single-stim","352","627625","0.0-313.0","sub-13","","1636","0","probe","","<div class = centerbox><div class = img-container><img src = ""/static/experiments/dot_pattern_expectancy/images/probe1.png""</img></div></div>","89,71","500","AX","test","19","89","true",""
"-1","-1","poldrack-single-stim","353","628145","0.0-314.0","sub-13","","500","0","cue","","<div class = centerbox><div class = img-container><img src = ""/static/experiments/dot_pattern_expectancy/images/cue3.png""</img></div></div>","none","500","AY","test","20","","",""
"-1","-1","poldrack-single-stim","354","630166","0.0-315.0","sub-13","","2000","0","fixation","","<div class = centerbox><div class = fixation>+</div></div>","none","2000","","test","","","",""
"593","71","poldrack-single-stim","355","631814","0.0-316.0","sub-13","","1636","0","probe","","<div class = centerbox><div class = img-container><img src = ""/static/experiments/dot_pattern_expectancy/images/probe2.png""</img></div></div>","89,71","500","AY","test","20","71","true",""
"-1","-1","poldrack-single-stim","356","632335","0.0-317.0","sub-13","","500","0","cue","","<div class = centerbox><div class = img-container><img src = ""/static/experiments/dot_pattern_expectancy/images/cue3.png""</img></div></div>","none","500","AX","test","21","","",""
"-1","-1","poldrack-single-stim","357","634355","0.0-318.0","sub-13","","2000","0","fixation","","<div class = centerbox><div class = fixation>+</div></div>","none","2000","","test","","","",""
"524","89","poldrack-single-stim","358","635874","0.0-319.0","sub-13","","1500","0","probe","","<div class = centerbox><div class = img-container><img src = ""/static/experiments/dot_pattern_expectancy/images/probe1.png""</img></div></div>","89,71","500","AX","test","21","89","true",""
"-1","-1","poldrack-single-stim","359","636395","0.0-320.0","sub-13","","500","0","cue","","<div class = centerbox><div class = img-container><img src = ""/static/experiments/dot_pattern_expectancy/images/cue3.png""</img></div></div>","none","500","AX","test","22","","",""
"-1","-1","poldrack-single-stim","360","638407","0.0-321.0","sub-13","","2000","0","fixation","","<div class = centerbox><div class = fixation>+</div></div>","none","2000","","test","","","",""
"791","89","poldrack-single-stim","361","639914","0.0-322.0","sub-13","","1500","0","probe","","<div class = centerbox><div class = img-container><img src = ""/static/experiments/dot_pattern_expectancy/images/probe1.png""</img></div></div>","89,71","500","AX","test","22","89","true",""
"-1","-1","poldrack-single-stim","362","640436","0.0-323.0","sub-13","","500","0","cue","","<div class = centerbox><div class = img-container><img src = ""/static/experiments/dot_pattern_expectancy/images/cue3.png""</img></div></div>","none","500","AX","test","23","","",""
"-1","-1","poldrack-single-stim","363","642458","0.0-324.0","sub-13","","2000","0","fixation","","<div class = centerbox><div class = fixation>+</div></div>","none","2000","","test","","","",""
"457","89","poldrack-single-stim","364","644234","0.0-325.0","sub-13","","1772","0","probe","","<div class = centerbox><div class = img-container><img src = ""/static/experiments/dot_pattern_expectancy/images/probe1.png""</img></div></div>","89,71","500","AX","test","23","89","true",""
"-1","-1","poldrack-single-stim","365","644755","0.0-326.0","sub-13","","500","0","cue","","<div class = centerbox><div class = img-container><img src = ""/static/experiments/dot_pattern_expectancy/images/cue3.png""</img></div></div>","none","500","AX","test","24","","",""
"-1","-1","poldrack-single-stim","366","646776","0.0-327.0","sub-13","","2000","0","fixation","","<div class = centerbox><div class = fixation>+</div></div>","none","2000","","test","","","",""
"593","89","poldrack-single-stim","367","648974","0.0-328.0","sub-13","","2180","0","probe","","<div class = centerbox><div class = img-container><img src = ""/static/experiments/dot_pattern_expectancy/images/probe1.png""</img></div></div>","89,71","500","AX","test","24","89","true",""
"-1","-1","poldrack-single-stim","368","649496","0.0-329.0","sub-13","","500","0","cue","","<div class = centerbox><div class = img-container><img src = ""/static/experiments/dot_pattern_expectancy/images/cue6.png""</img></div></div>","none","500","BX","test","25","","",""
"-1","-1","poldrack-single-stim","369","651516","0.0-330.0","sub-13","","2000","0","fixation","","<div class = centerbox><div class = fixation>+</div></div>","none","2000","","test","","","",""
"334","71","poldrack-single-stim","370","653304","0.0-331.0","sub-13","","1772","0","probe","","<div class = centerbox><div class = img-container><img src = ""/static/experiments/dot_pattern_expectancy/images/probe1.png""</img></div></div>","89,71","500","BX","test","25","71","true",""
"-1","-1","poldrack-single-stim","371","653826","0.0-332.0","sub-13","","500","0","cue","","<div class = centerbox><div class = img-container><img src = ""/static/experiments/dot_pattern_expectancy/images/cue5.png""</img></div></div>","none","500","BY","test","26","","",""
"-1","-1","poldrack-single-stim","372","655836","0.0-333.0","sub-13","","2000","0","fixation","","<div class = centerbox><div class = fixation>+</div></div>","none","2000","","test","","","",""
"481","71","poldrack-single-stim","373","657354","0.0-334.0","sub-13","","1500","0","probe","","<div class = centerbox><div class = img-container><img src = ""/static/experiments/dot_pattern_expectancy/images/probe4.png""</img></div></div>","89,71","500","BY","test","26","71","true",""
"-1","-1","poldrack-single-stim","374","657875","0.0-335.0","sub-13","","500","0","cue","","<div class = centerbox><div class = img-container><img src = ""/static/experiments/dot_pattern_expectancy/images/cue3.png""</img></div></div>","none","500","AX","test","27","","",""
"-1","-1","poldrack-single-stim","375","659894","0.0-336.0","sub-13","","2000","0","fixation","","<div class = centerbox><div class = fixation>+</div></div>","none","2000","","test","","","",""
"435","89","poldrack-single-stim","376","661415","0.0-337.0","sub-13","","1500","0","probe","","<div class = centerbox><div class = img-container><img src = ""/static/experiments/dot_pattern_expectancy/images/probe1.png""</img></div></div>","89,71","500","AX","test","27","89","true",""
"-1","-1","poldrack-single-stim","377","661935","0.0-338.0","sub-13","","500","0","cue","","<div class = centerbox><div class = img-container><img src = ""/static/experiments/dot_pattern_expectancy/images/cue3.png""</img></div></div>","none","500","AX","test","28","","",""
"-1","-1","poldrack-single-stim","378","663945","0.0-339.0","sub-13","","2000","0","fixation","","<div class = centerbox><div class = fixation>+</div></div>","none","2000","","test","","","",""
"564","89","poldrack-single-stim","379","665583","0.0-340.0","sub-13","","1636","0","probe","","<div class = centerbox><div class = img-container><img src = ""/static/experiments/dot_pattern_expectancy/images/probe1.png""</img></div></div>","89,71","500","AX","test","28","89","true",""
"-1","-1","poldrack-single-stim","380","666105","0.0-341.0","sub-13","","500","0","cue","","<div class = centerbox><div class = img-container><img src = ""/static/experiments/dot_pattern_expectancy/images/cue3.png""</img></div></div>","none","500","AY","test","29","","",""
"-1","-1","poldrack-single-stim","381","668115","0.0-342.0","sub-13","","2000","0","fixation","","<div class = centerbox><div class = fixation>+</div></div>","none","2000","","test","","","",""
"601","71","poldrack-single-stim","382","670314","0.0-343.0","sub-13","","2180","0","probe","","<div class = centerbox><div class = img-container><img src = ""/static/experiments/dot_pattern_expectancy/images/probe3.png""</img></div></div>","89,71","500","AY","test","29","71","true",""
"-1","-1","poldrack-single-stim","383","670836","0.0-344.0","sub-13","","500","0","cue","","<div class = centerbox><div class = img-container><img src = ""/static/experiments/dot_pattern_expectancy/images/cue3.png""</img></div></div>","none","500","AY","test","30","","",""
"-1","-1","poldrack-single-stim","384","672856","0.0-345.0","sub-13","","2000","0","fixation","","<div class = centerbox><div class = fixation>+</div></div>","none","2000","","test","","","",""
"517","71","poldrack-single-stim","385","675185","0.0-346.0","sub-13","","2316","0","probe","","<div class = centerbox><div class = img-container><img src = ""/static/experiments/dot_pattern_expectancy/images/probe3.png""</img></div></div>","89,71","500","AY","test","30","71","true",""
"-1","-1","poldrack-single-stim","386","675706","0.0-347.0","sub-13","","500","0","cue","","<div class = centerbox><div class = img-container><img src = ""/static/experiments/dot_pattern_expectancy/images/cue2.png""</img></div></div>","none","500","BX","test","31","","",""
"-1","-1","poldrack-single-stim","387","677726","0.0-348.0","sub-13","","2000","0","fixation","","<div class = centerbox><div class = fixation>+</div></div>","none","2000","","test","","","",""
"576","71","poldrack-single-stim","388","679364","0.0-349.0","sub-13","","1636","0","probe","","<div class = centerbox><div class = img-container><img src = ""/static/experiments/dot_pattern_expectancy/images/probe1.png""</img></div></div>","89,71","500","BX","test","31","71","true",""
"-1","-1","poldrack-single-stim","389","679885","0.0-350.0","sub-13","","500","0","cue","","<div class = centerbox><div class = img-container><img src = ""/static/experiments/dot_pattern_expectancy/images/cue1.png""</img></div></div>","none","500","BX","test","32","","",""
"-1","-1","poldrack-single-stim","390","681895","0.0-351.0","sub-13","","2000","0","fixation","","<div class = centerbox><div class = fixation>+</div></div>","none","2000","","test","","","",""
"768","71","poldrack-single-stim","391","684084","0.0-352.0","sub-13","","2180","0","probe","","<div class = centerbox><div class = img-container><img src = ""/static/experiments/dot_pattern_expectancy/images/probe1.png""</img></div></div>","89,71","500","BX","test","32","71","true",""
"-1","-1","poldrack-single-stim","392","684605","0.0-353.0","sub-13","","500","0","cue","","<div class = centerbox><div class = img-container><img src = ""/static/experiments/dot_pattern_expectancy/images/cue3.png""</img></div></div>","none","500","AY","test","33","","",""
"-1","-1","poldrack-single-stim","393","686625","0.0-354.0","sub-13","","2000","0","fixation","","<div class = centerbox><div class = fixation>+</div></div>","none","2000","","test","","","",""
"524","71","poldrack-single-stim","394","688674","0.0-355.0","sub-13","","2044","0","probe","","<div class = centerbox><div class = img-container><img src = ""/static/experiments/dot_pattern_expectancy/images/probe2.png""</img></div></div>","89,71","500","AY","test","33","71","true",""
"-1","-1","poldrack-single-stim","395","689195","0.0-356.0","sub-13","","500","0","cue","","<div class = centerbox><div class = img-container><img src = ""/static/experiments/dot_pattern_expectancy/images/cue3.png""</img></div></div>","none","500","AX","test","34","","",""
"-1","-1","poldrack-single-stim","396","691216","0.0-357.0","sub-13","","2000","0","fixation","","<div class = centerbox><div class = fixation>+</div></div>","none","2000","","test","","","",""
"550","89","poldrack-single-stim","397","693016","0.0-358.0","sub-13","","1772","0","probe","","<div class = centerbox><div class = img-container><img src = ""/static/experiments/dot_pattern_expectancy/images/probe1.png""</img></div></div>","89,71","500","AX","test","34","89","true",""
