"rt","key_press","trial_type","trial_index","time_elapsed","internal_node_id","subject","text","block_duration","timing_post_trial","trial_id","stimulus","possible_responses","stim_duration","exp_stage","correct","correct_response","feedback_duration","flanker_middle_direction","flanker_type","flanker_location","cue","trial_num","exp_id"
"2244","13","text","0","2248","0.0-0.0","sub-09_ses-01_1","","","","","","","","","","","","","","","","",""
"2171","89","poldrack-text","1","5433","0.0-1.0","sub-09_ses-01_1","<div class = centerbox><div style = 'font-size: 50px' class = center-text>Veuillez appuyer avec votre index</p></div>","2171","500","fmri_response_test","","","","","","","","","","","","",""
"444","71","poldrack-text","2","6398","0.0-2.0","sub-09_ses-01_1","<div class = centerbox><div style = 'font-size: 50px' class = center-text>Veuillez appuyer avec votre majeur</p></div>","444","500","fmri_response_test","","","","","","","","","","","","",""
"5402","32","poldrack-single-stim","3","12314","0.0-3.0","sub-09_ses-01_1","","5402","500","instructions","<div class = centerbox><div class = center-text>Indiquez dans quelle direction la fleche centrale pointe.<br>Apuyez sur l'index (gauche) ou le majeur (droite).</div>","32","5402","","","","","","","","","",""
"-1","-1","poldrack-single-stim","4","12950","0.0-4.0-0.0","sub-09_ses-01_1","","100","0","doublecue","<div class = centerbox><div class = ANT_text>+</div></div><div class = ANT_down><div class = ANT_text>*</div></div><div class = ANT_up><div class = ANT_text>*</div><div></div>","none","100","practice","","","","","","","","",""
"-1","-1","poldrack-single-stim","5","13368","0.0-4.0-1.0","sub-09_ses-01_1","","400","0","fixation","<div class = centerbox><div class = ANT_text>+</div></div>","none","400","practice","","","","","","","","",""
"835","71","poldrack-categorize","6","16126","0.0-4.0-2.0","sub-09_ses-01_1","","1700","500","stim","<div class = centerbox><div class = ANT_text>+</div></div><div class = ANT_down><img class = ""ANT_img first"" src = /static/experiments/attention_network_task/images/left_arrow.png></img><img class = ANT_img src = /static/experiments/attention_network_task/images/left_arrow.png></img><img class = ANT_img src = /static/experiments/attention_network_task/images/right_arrow.png></img><img class = ANT_img src = /static/experiments/attention_network_task/images/left_arrow.png></img><img class = ANT_img src = /static/experiments/attention_network_task/images/left_arrow.png></img></div></div>","89,71","1700","practice","true","71","1000","right","incongruent","down","double","",""
"-1","-1","poldrack-single-stim","7","16767","0.0-4.0-3.0","sub-09_ses-01_1","","100","0","doublecue","<div class = centerbox><div class = ANT_text>+</div></div><div class = ANT_down><div class = ANT_text>*</div></div><div class = ANT_up><div class = ANT_text>*</div><div></div>","none","100","practice","","","","","","","","",""
"-1","-1","poldrack-single-stim","8","17186","0.0-4.0-4.0","sub-09_ses-01_1","","400","0","fixation","<div class = centerbox><div class = ANT_text>+</div></div>","none","400","practice","","","","","","","","",""
"651","89","poldrack-categorize","9","19927","0.0-4.0-5.0","sub-09_ses-01_1","","1700","500","stim","<div class = centerbox><div class = ANT_text>+</div></div><div class = ANT_down><img class = ""ANT_img first"" src = /static/experiments/attention_network_task/images/left_arrow.png></img><img class = ANT_img src = /static/experiments/attention_network_task/images/left_arrow.png></img><img class = ANT_img src = /static/experiments/attention_network_task/images/left_arrow.png></img><img class = ANT_img src = /static/experiments/attention_network_task/images/left_arrow.png></img><img class = ANT_img src = /static/experiments/attention_network_task/images/left_arrow.png></img></div></div>","89,71","1700","practice","true","89","1000","left","congruent","down","double","",""
"-1","-1","poldrack-single-stim","10","20567","0.0-4.0-6.0","sub-09_ses-01_1","","100","0","spatialcue","<div class = centerbox><div class = ANT_text>+</div></div><div class = centerbox><div class = ANT_up><div class = ANT_text>*</p></div></div>","none","100","practice","","","","","","","","",""
"-1","-1","poldrack-single-stim","11","20987","0.0-4.0-7.0","sub-09_ses-01_1","","400","0","fixation","<div class = centerbox><div class = ANT_text>+</div></div>","none","400","practice","","","","","","","","",""
"830","71","poldrack-categorize","12","23716","0.0-4.0-8.0","sub-09_ses-01_1","","1700","500","stim","<div class = centerbox><div class = ANT_text>+</div></div><div class = ANT_up><img class = ""ANT_img first"" src = /static/experiments/attention_network_task/images/right_arrow.png></img><img class = ANT_img src = /static/experiments/attention_network_task/images/right_arrow.png></img><img class = ANT_img src = /static/experiments/attention_network_task/images/right_arrow.png></img><img class = ANT_img src = /static/experiments/attention_network_task/images/right_arrow.png></img><img class = ANT_img src = /static/experiments/attention_network_task/images/right_arrow.png></img></div></div>","89,71","1700","practice","true","71","1000","right","congruent","up","spatial","",""
"-1","-1","poldrack-single-stim","13","24355","0.0-4.0-9.0","sub-09_ses-01_1","","100","0","doublecue","<div class = centerbox><div class = ANT_text>+</div></div><div class = ANT_down><div class = ANT_text>*</div></div><div class = ANT_up><div class = ANT_text>*</div><div></div>","none","100","practice","","","","","","","","",""
"-1","-1","poldrack-single-stim","14","24779","0.0-4.0-10.0","sub-09_ses-01_1","","400","0","fixation","<div class = centerbox><div class = ANT_text>+</div></div>","none","400","practice","","","","","","","","",""
"777","89","poldrack-categorize","15","27506","0.0-4.0-11.0","sub-09_ses-01_1","","1700","500","stim","<div class = centerbox><div class = ANT_text>+</div></div><div class = ANT_up><img class = ""ANT_img first"" src = /static/experiments/attention_network_task/images/right_arrow.png></img><img class = ANT_img src = /static/experiments/attention_network_task/images/right_arrow.png></img><img class = ANT_img src = /static/experiments/attention_network_task/images/left_arrow.png></img><img class = ANT_img src = /static/experiments/attention_network_task/images/right_arrow.png></img><img class = ANT_img src = /static/experiments/attention_network_task/images/right_arrow.png></img></div></div>","89,71","1700","practice","true","89","1000","left","incongruent","up","double","",""
"-1","-1","poldrack-single-stim","16","28145","0.0-4.0-12.0","sub-09_ses-01_1","","100","0","doublecue","<div class = centerbox><div class = ANT_text>+</div></div><div class = ANT_down><div class = ANT_text>*</div></div><div class = ANT_up><div class = ANT_text>*</div><div></div>","none","100","practice","","","","","","","","",""
"-1","-1","poldrack-single-stim","17","28558","0.0-4.0-13.0","sub-09_ses-01_1","","400","0","fixation","<div class = centerbox><div class = ANT_text>+</div></div>","none","400","practice","","","","","","","","",""
"608","71","poldrack-categorize","18","31285","0.0-4.0-14.0","sub-09_ses-01_1","","1700","500","stim","<div class = centerbox><div class = ANT_text>+</div></div><div class = ANT_up><img class = ""ANT_img first"" src = /static/experiments/attention_network_task/images/left_arrow.png></img><img class = ANT_img src = /static/experiments/attention_network_task/images/left_arrow.png></img><img class = ANT_img src = /static/experiments/attention_network_task/images/right_arrow.png></img><img class = ANT_img src = /static/experiments/attention_network_task/images/left_arrow.png></img><img class = ANT_img src = /static/experiments/attention_network_task/images/left_arrow.png></img></div></div>","89,71","1700","practice","true","71","1000","right","incongruent","up","double","",""
"-1","-1","poldrack-single-stim","19","31927","0.0-4.0-15.0","sub-09_ses-01_1","","100","0","doublecue","<div class = centerbox><div class = ANT_text>+</div></div><div class = ANT_down><div class = ANT_text>*</div></div><div class = ANT_up><div class = ANT_text>*</div><div></div>","none","100","practice","","","","","","","","",""
"-1","-1","poldrack-single-stim","20","32347","0.0-4.0-16.0","sub-09_ses-01_1","","400","0","fixation","<div class = centerbox><div class = ANT_text>+</div></div>","none","400","practice","","","","","","","","",""
"517","89","poldrack-categorize","21","35087","0.0-4.0-17.0","sub-09_ses-01_1","","1700","500","stim","<div class = centerbox><div class = ANT_text>+</div></div><div class = ANT_up><img class = ""ANT_img first"" src = /static/experiments/attention_network_task/images/left_arrow.png></img><img class = ANT_img src = /static/experiments/attention_network_task/images/left_arrow.png></img><img class = ANT_img src = /static/experiments/attention_network_task/images/left_arrow.png></img><img class = ANT_img src = /static/experiments/attention_network_task/images/left_arrow.png></img><img class = ANT_img src = /static/experiments/attention_network_task/images/left_arrow.png></img></div></div>","89,71","1700","practice","true","89","1000","left","congruent","up","double","",""
"-1","-1","poldrack-single-stim","22","35727","0.0-4.0-18.0","sub-09_ses-01_1","","100","0","spatialcue","<div class = centerbox><div class = ANT_text>+</div></div><div class = centerbox><div class = ANT_up><div class = ANT_text>*</p></div></div>","none","100","practice","","","","","","","","",""
"-1","-1","poldrack-single-stim","23","36135","0.0-4.0-19.0","sub-09_ses-01_1","","400","0","fixation","<div class = centerbox><div class = ANT_text>+</div></div>","none","400","practice","","","","","","","","",""
"545","71","poldrack-categorize","24","38856","0.0-4.0-20.0","sub-09_ses-01_1","","1700","500","stim","<div class = centerbox><div class = ANT_text>+</div></div><div class = ANT_up><img class = ""ANT_img first"" src = /static/experiments/attention_network_task/images/left_arrow.png></img><img class = ANT_img src = /static/experiments/attention_network_task/images/left_arrow.png></img><img class = ANT_img src = /static/experiments/attention_network_task/images/right_arrow.png></img><img class = ANT_img src = /static/experiments/attention_network_task/images/left_arrow.png></img><img class = ANT_img src = /static/experiments/attention_network_task/images/left_arrow.png></img></div></div>","89,71","1700","practice","true","71","1000","right","incongruent","up","spatial","",""
"-1","-1","poldrack-single-stim","25","39496","0.0-4.0-21.0","sub-09_ses-01_1","","100","0","doublecue","<div class = centerbox><div class = ANT_text>+</div></div><div class = ANT_down><div class = ANT_text>*</div></div><div class = ANT_up><div class = ANT_text>*</div><div></div>","none","100","practice","","","","","","","","",""
"-1","-1","poldrack-single-stim","26","39918","0.0-4.0-22.0","sub-09_ses-01_1","","400","0","fixation","<div class = centerbox><div class = ANT_text>+</div></div>","none","400","practice","","","","","","","","",""
"818","71","poldrack-categorize","27","42656","0.0-4.0-23.0","sub-09_ses-01_1","","1700","500","stim","<div class = centerbox><div class = ANT_text>+</div></div><div class = ANT_down><img class = ""ANT_img first"" src = /static/experiments/attention_network_task/images/right_arrow.png></img><img class = ANT_img src = /static/experiments/attention_network_task/images/right_arrow.png></img><img class = ANT_img src = /static/experiments/attention_network_task/images/right_arrow.png></img><img class = ANT_img src = /static/experiments/attention_network_task/images/right_arrow.png></img><img class = ANT_img src = /static/experiments/attention_network_task/images/right_arrow.png></img></div></div>","89,71","1700","practice","true","71","1000","right","congruent","down","double","",""
"-1","-1","poldrack-single-stim","28","43296","0.0-4.0-24.0","sub-09_ses-01_1","","100","0","spatialcue","<div class = centerbox><div class = ANT_text>+</div></div><div class = centerbox><div class = ANT_down><div class = ANT_text>*</p></div></div>","none","100","practice","","","","","","","","",""
"-1","-1","poldrack-single-stim","29","43715","0.0-4.0-25.0","sub-09_ses-01_1","","400","0","fixation","<div class = centerbox><div class = ANT_text>+</div></div>","none","400","practice","","","","","","","","",""
"572","71","poldrack-categorize","30","46456","0.0-4.0-26.0","sub-09_ses-01_1","","1700","500","stim","<div class = centerbox><div class = ANT_text>+</div></div><div class = ANT_down><img class = ""ANT_img first"" src = /static/experiments/attention_network_task/images/left_arrow.png></img><img class = ANT_img src = /static/experiments/attention_network_task/images/left_arrow.png></img><img class = ANT_img src = /static/experiments/attention_network_task/images/right_arrow.png></img><img class = ANT_img src = /static/experiments/attention_network_task/images/left_arrow.png></img><img class = ANT_img src = /static/experiments/attention_network_task/images/left_arrow.png></img></div></div>","89,71","1700","practice","true","71","1000","right","incongruent","down","spatial","",""
"-1","-1","poldrack-single-stim","31","47096","0.0-4.0-27.0","sub-09_ses-01_1","","100","0","doublecue","<div class = centerbox><div class = ANT_text>+</div></div><div class = ANT_down><div class = ANT_text>*</div></div><div class = ANT_up><div class = ANT_text>*</div><div></div>","none","100","practice","","","","","","","","",""
"-1","-1","poldrack-single-stim","32","47517","0.0-4.0-28.0","sub-09_ses-01_1","","400","0","fixation","<div class = centerbox><div class = ANT_text>+</div></div>","none","400","practice","","","","","","","","",""
"618","89","poldrack-categorize","33","50256","0.0-4.0-29.0","sub-09_ses-01_1","","1700","500","stim","<div class = centerbox><div class = ANT_text>+</div></div><div class = ANT_down><img class = ""ANT_img first"" src = /static/experiments/attention_network_task/images/right_arrow.png></img><img class = ANT_img src = /static/experiments/attention_network_task/images/right_arrow.png></img><img class = ANT_img src = /static/experiments/attention_network_task/images/left_arrow.png></img><img class = ANT_img src = /static/experiments/attention_network_task/images/right_arrow.png></img><img class = ANT_img src = /static/experiments/attention_network_task/images/right_arrow.png></img></div></div>","89,71","1700","practice","true","89","1000","left","incongruent","down","double","",""
"-1","-1","poldrack-single-stim","34","50897","0.0-4.0-30.0","sub-09_ses-01_1","","100","0","spatialcue","<div class = centerbox><div class = ANT_text>+</div></div><div class = centerbox><div class = ANT_down><div class = ANT_text>*</p></div></div>","none","100","practice","","","","","","","","",""
"-1","-1","poldrack-single-stim","35","51316","0.0-4.0-31.0","sub-09_ses-01_1","","400","0","fixation","<div class = centerbox><div class = ANT_text>+</div></div>","none","400","practice","","","","","","","","",""
"600","89","poldrack-categorize","36","54056","0.0-4.0-32.0","sub-09_ses-01_1","","1700","500","stim","<div class = centerbox><div class = ANT_text>+</div></div><div class = ANT_down><img class = ""ANT_img first"" src = /static/experiments/attention_network_task/images/left_arrow.png></img><img class = ANT_img src = /static/experiments/attention_network_task/images/left_arrow.png></img><img class = ANT_img src = /static/experiments/attention_network_task/images/left_arrow.png></img><img class = ANT_img src = /static/experiments/attention_network_task/images/left_arrow.png></img><img class = ANT_img src = /static/experiments/attention_network_task/images/left_arrow.png></img></div></div>","89,71","1700","practice","true","89","1000","left","congruent","down","spatial","",""
"-1","-1","poldrack-single-stim","37","54687","0.0-4.0-33.0","sub-09_ses-01_1","","100","0","spatialcue","<div class = centerbox><div class = ANT_text>+</div></div><div class = centerbox><div class = ANT_down><div class = ANT_text>*</p></div></div>","none","100","practice","","","","","","","","",""
"-1","-1","poldrack-single-stim","38","55107","0.0-4.0-34.0","sub-09_ses-01_1","","400","0","fixation","<div class = centerbox><div class = ANT_text>+</div></div>","none","400","practice","","","","","","","","",""
"613","71","poldrack-categorize","39","57827","0.0-4.0-35.0","sub-09_ses-01_1","","1700","500","stim","<div class = centerbox><div class = ANT_text>+</div></div><div class = ANT_down><img class = ""ANT_img first"" src = /static/experiments/attention_network_task/images/right_arrow.png></img><img class = ANT_img src = /static/experiments/attention_network_task/images/right_arrow.png></img><img class = ANT_img src = /static/experiments/attention_network_task/images/right_arrow.png></img><img class = ANT_img src = /static/experiments/attention_network_task/images/right_arrow.png></img><img class = ANT_img src = /static/experiments/attention_network_task/images/right_arrow.png></img></div></div>","89,71","1700","practice","true","71","1000","right","congruent","down","spatial","",""
"2451","32","poldrack-text","40","60800","0.0-5.0","sub-09_ses-01_1","<div class = centerbox><div  class = center-text>Scanner Setup</div></div>","2451","0","fmri_scanner_wait","","","","","","","","","","","","",""
"54879","84","poldrack-text","41","115680","0.0-6.0","sub-09_ses-01_1","<div class = centerbox><div style='color:red'; class = center-text>+</div></div>","54879","0","fmri_trigger_wait","","","","","","","","","","","","",""
"-1","-1","poldrack-single-stim","42","116696","0.0-7.0","sub-09_ses-01_1","","1000","0","fmri_buffer","","none","1000","","","","","","","","","",""
"-1","-1","poldrack-single-stim","43","118218","0.0-8.0","sub-09_ses-01_1","","1500","500","test_start_block","<div class = centerbox><div class = center-text>Preparez-vous!</div></div>","none","1500","","","","","","","","","",""
"-1","-1","poldrack-single-stim","44","118857","0.0-9.0","sub-09_ses-01_1","","100","0","spatialcue","<div class = centerbox><div class = ANT_text>+</div></div><div class = centerbox><div class = ANT_down><div class = ANT_text>*</p></div></div>","none","100","test","","","","","","","","",""
"-1","-1","poldrack-single-stim","45","119276","0.0-10.0","sub-09_ses-01_1","","400","0","fixation","<div class = centerbox><div class = ANT_text>+</div></div>","none","400","test","","","","","","","","",""
"578","89","poldrack-single-stim","46","121397","0.0-11.0","sub-09_ses-01_1","","2100","0","stim","<div class = centerbox><div class = ANT_text>+</div></div><div class = ANT_down><img class = ""ANT_img first"" src = /static/experiments/attention_network_task/images/left_arrow.png></img><img class = ANT_img src = /static/experiments/attention_network_task/images/left_arrow.png></img><img class = ANT_img src = /static/experiments/attention_network_task/images/left_arrow.png></img><img class = ANT_img src = /static/experiments/attention_network_task/images/left_arrow.png></img><img class = ANT_img src = /static/experiments/attention_network_task/images/left_arrow.png></img></div></div>","89,71","1700","test","true","89","","left","congruent","down","spatial","0",""
"-1","-1","poldrack-single-stim","47","121516","0.0-12.0","sub-09_ses-01_1","","100","0","doublecue","<div class = centerbox><div class = ANT_text>+</div></div><div class = ANT_down><div class = ANT_text>*</div></div><div class = ANT_up><div class = ANT_text>*</div><div></div>","none","100","test","","","","","","","","",""
"-1","-1","poldrack-single-stim","48","121936","0.0-13.0","sub-09_ses-01_1","","400","0","fixation","<div class = centerbox><div class = ANT_text>+</div></div>","none","400","test","","","","","","","","",""
"621","71","poldrack-single-stim","49","124047","0.0-14.0","sub-09_ses-01_1","","2100.272","0","stim","<div class = centerbox><div class = ANT_text>+</div></div><div class = ANT_up><img class = ""ANT_img first"" src = /static/experiments/attention_network_task/images/left_arrow.png></img><img class = ANT_img src = /static/experiments/attention_network_task/images/left_arrow.png></img><img class = ANT_img src = /static/experiments/attention_network_task/images/right_arrow.png></img><img class = ANT_img src = /static/experiments/attention_network_task/images/left_arrow.png></img><img class = ANT_img src = /static/experiments/attention_network_task/images/left_arrow.png></img></div></div>","89,71","1700","test","true","71","","right","incongruent","up","double","1",""
"-1","-1","poldrack-single-stim","50","124168","0.0-15.0","sub-09_ses-01_1","","100","0","spatialcue","<div class = centerbox><div class = ANT_text>+</div></div><div class = centerbox><div class = ANT_up><div class = ANT_text>*</p></div></div>","none","100","test","","","","","","","","",""
"-1","-1","poldrack-single-stim","51","124587","0.0-16.0","sub-09_ses-01_1","","400","0","fixation","<div class = centerbox><div class = ANT_text>+</div></div>","none","400","test","","","","","","","","",""
"772","89","poldrack-single-stim","52","126707","0.0-17.0","sub-09_ses-01_1","","2100","0","stim","<div class = centerbox><div class = ANT_text>+</div></div><div class = ANT_up><img class = ""ANT_img first"" src = /static/experiments/attention_network_task/images/left_arrow.png></img><img class = ANT_img src = /static/experiments/attention_network_task/images/left_arrow.png></img><img class = ANT_img src = /static/experiments/attention_network_task/images/left_arrow.png></img><img class = ANT_img src = /static/experiments/attention_network_task/images/left_arrow.png></img><img class = ANT_img src = /static/experiments/attention_network_task/images/left_arrow.png></img></div></div>","89,71","1700","test","true","89","","left","congruent","up","spatial","2",""
"-1","-1","poldrack-single-stim","53","126827","0.0-18.0","sub-09_ses-01_1","","100","0","spatialcue","<div class = centerbox><div class = ANT_text>+</div></div><div class = centerbox><div class = ANT_down><div class = ANT_text>*</p></div></div>","none","100","test","","","","","","","","",""
"-1","-1","poldrack-single-stim","54","127247","0.0-19.0","sub-09_ses-01_1","","400","0","fixation","<div class = centerbox><div class = ANT_text>+</div></div>","none","400","test","","","","","","","","",""
"725","71","poldrack-single-stim","55","129356","0.0-20.0","sub-09_ses-01_1","","2100.136","0","stim","<div class = centerbox><div class = ANT_text>+</div></div><div class = ANT_down><img class = ""ANT_img first"" src = /static/experiments/attention_network_task/images/right_arrow.png></img><img class = ANT_img src = /static/experiments/attention_network_task/images/right_arrow.png></img><img class = ANT_img src = /static/experiments/attention_network_task/images/right_arrow.png></img><img class = ANT_img src = /static/experiments/attention_network_task/images/right_arrow.png></img><img class = ANT_img src = /static/experiments/attention_network_task/images/right_arrow.png></img></div></div>","89,71","1700","test","true","71","","right","congruent","down","spatial","3",""
"-1","-1","poldrack-single-stim","56","129477","0.0-21.0","sub-09_ses-01_1","","100","0","doublecue","<div class = centerbox><div class = ANT_text>+</div></div><div class = ANT_down><div class = ANT_text>*</div></div><div class = ANT_up><div class = ANT_text>*</div><div></div>","none","100","test","","","","","","","","",""
"-1","-1","poldrack-single-stim","57","129896","0.0-22.0","sub-09_ses-01_1","","400","0","fixation","<div class = centerbox><div class = ANT_text>+</div></div>","none","400","test","","","","","","","","",""
"820","89","poldrack-single-stim","58","132016","0.0-23.0","sub-09_ses-01_1","","2100.408","0","stim","<div class = centerbox><div class = ANT_text>+</div></div><div class = ANT_down><img class = ""ANT_img first"" src = /static/experiments/attention_network_task/images/right_arrow.png></img><img class = ANT_img src = /static/experiments/attention_network_task/images/right_arrow.png></img><img class = ANT_img src = /static/experiments/attention_network_task/images/left_arrow.png></img><img class = ANT_img src = /static/experiments/attention_network_task/images/right_arrow.png></img><img class = ANT_img src = /static/experiments/attention_network_task/images/right_arrow.png></img></div></div>","89,71","1700","test","true","89","","left","incongruent","down","double","4",""
"-1","-1","poldrack-single-stim","59","132136","0.0-24.0","sub-09_ses-01_1","","100","0","doublecue","<div class = centerbox><div class = ANT_text>+</div></div><div class = ANT_down><div class = ANT_text>*</div></div><div class = ANT_up><div class = ANT_text>*</div><div></div>","none","100","test","","","","","","","","",""
"-1","-1","poldrack-single-stim","60","132556","0.0-25.0","sub-09_ses-01_1","","400","0","fixation","<div class = centerbox><div class = ANT_text>+</div></div>","none","400","test","","","","","","","","",""
"534","71","poldrack-single-stim","61","134668","0.0-26.0","sub-09_ses-01_1","","2100.544","0","stim","<div class = centerbox><div class = ANT_text>+</div></div><div class = ANT_up><img class = ""ANT_img first"" src = /static/experiments/attention_network_task/images/right_arrow.png></img><img class = ANT_img src = /static/experiments/attention_network_task/images/right_arrow.png></img><img class = ANT_img src = /static/experiments/attention_network_task/images/right_arrow.png></img><img class = ANT_img src = /static/experiments/attention_network_task/images/right_arrow.png></img><img class = ANT_img src = /static/experiments/attention_network_task/images/right_arrow.png></img></div></div>","89,71","1700","test","true","71","","right","congruent","up","double","5",""
"-1","-1","poldrack-single-stim","62","134786","0.0-27.0","sub-09_ses-01_1","","100","0","doublecue","<div class = centerbox><div class = ANT_text>+</div></div><div class = ANT_down><div class = ANT_text>*</div></div><div class = ANT_up><div class = ANT_text>*</div><div></div>","none","100","test","","","","","","","","",""
"-1","-1","poldrack-single-stim","63","135207","0.0-28.0","sub-09_ses-01_1","","400","0","fixation","<div class = centerbox><div class = ANT_text>+</div></div>","none","400","test","","","","","","","","",""
"750","71","poldrack-single-stim","64","137317","0.0-29.0","sub-09_ses-01_1","","2100","0","stim","<div class = centerbox><div class = ANT_text>+</div></div><div class = ANT_down><img class = ""ANT_img first"" src = /static/experiments/attention_network_task/images/left_arrow.png></img><img class = ANT_img src = /static/experiments/attention_network_task/images/left_arrow.png></img><img class = ANT_img src = /static/experiments/attention_network_task/images/right_arrow.png></img><img class = ANT_img src = /static/experiments/attention_network_task/images/left_arrow.png></img><img class = ANT_img src = /static/experiments/attention_network_task/images/left_arrow.png></img></div></div>","89,71","1700","test","true","71","","right","incongruent","down","double","6",""
"-1","-1","poldrack-single-stim","65","137436","0.0-30.0","sub-09_ses-01_1","","100","0","spatialcue","<div class = centerbox><div class = ANT_text>+</div></div><div class = centerbox><div class = ANT_down><div class = ANT_text>*</p></div></div>","none","100","test","","","","","","","","",""
"-1","-1","poldrack-single-stim","66","137857","0.0-31.0","sub-09_ses-01_1","","400","0","fixation","<div class = centerbox><div class = ANT_text>+</div></div>","none","400","test","","","","","","","","",""
"630","89","poldrack-single-stim","67","140029","0.0-32.0","sub-09_ses-01_1","","2100.136","0","stim","<div class = centerbox><div class = ANT_text>+</div></div><div class = ANT_down><img class = ""ANT_img first"" src = /static/experiments/attention_network_task/images/right_arrow.png></img><img class = ANT_img src = /static/experiments/attention_network_task/images/right_arrow.png></img><img class = ANT_img src = /static/experiments/attention_network_task/images/left_arrow.png></img><img class = ANT_img src = /static/experiments/attention_network_task/images/right_arrow.png></img><img class = ANT_img src = /static/experiments/attention_network_task/images/right_arrow.png></img></div></div>","89,71","1700","test","true","89","","left","incongruent","down","spatial","7",""
"-1","-1","poldrack-single-stim","68","140145","0.0-33.0","sub-09_ses-01_1","","100","0","doublecue","<div class = centerbox><div class = ANT_text>+</div></div><div class = ANT_down><div class = ANT_text>*</div></div><div class = ANT_up><div class = ANT_text>*</div><div></div>","none","100","test","","","","","","","","",""
"-1","-1","poldrack-single-stim","69","140557","0.0-34.0","sub-09_ses-01_1","","400","0","fixation","<div class = centerbox><div class = ANT_text>+</div></div>","none","400","test","","","","","","","","",""
"593","89","poldrack-single-stim","70","142666","0.0-35.0","sub-09_ses-01_1","","2100.136","0","stim","<div class = centerbox><div class = ANT_text>+</div></div><div class = ANT_down><img class = ""ANT_img first"" src = /static/experiments/attention_network_task/images/right_arrow.png></img><img class = ANT_img src = /static/experiments/attention_network_task/images/right_arrow.png></img><img class = ANT_img src = /static/experiments/attention_network_task/images/left_arrow.png></img><img class = ANT_img src = /static/experiments/attention_network_task/images/right_arrow.png></img><img class = ANT_img src = /static/experiments/attention_network_task/images/right_arrow.png></img></div></div>","89,71","1700","test","true","89","","left","incongruent","down","double","8",""
"-1","-1","poldrack-single-stim","71","142787","0.0-36.0","sub-09_ses-01_1","","100","0","spatialcue","<div class = centerbox><div class = ANT_text>+</div></div><div class = centerbox><div class = ANT_up><div class = ANT_text>*</p></div></div>","none","100","test","","","","","","","","",""
"-1","-1","poldrack-single-stim","72","143207","0.0-37.0","sub-09_ses-01_1","","400","0","fixation","<div class = centerbox><div class = ANT_text>+</div></div>","none","400","test","","","","","","","","",""
"468","71","poldrack-single-stim","73","145327","0.0-38.0","sub-09_ses-01_1","","2100.136","0","stim","<div class = centerbox><div class = ANT_text>+</div></div><div class = ANT_up><img class = ""ANT_img first"" src = /static/experiments/attention_network_task/images/left_arrow.png></img><img class = ANT_img src = /static/experiments/attention_network_task/images/left_arrow.png></img><img class = ANT_img src = /static/experiments/attention_network_task/images/right_arrow.png></img><img class = ANT_img src = /static/experiments/attention_network_task/images/left_arrow.png></img><img class = ANT_img src = /static/experiments/attention_network_task/images/left_arrow.png></img></div></div>","89,71","1700","test","true","71","","right","incongruent","up","spatial","9",""
"-1","-1","poldrack-single-stim","74","145447","0.0-39.0","sub-09_ses-01_1","","100","0","doublecue","<div class = centerbox><div class = ANT_text>+</div></div><div class = ANT_down><div class = ANT_text>*</div></div><div class = ANT_up><div class = ANT_text>*</div><div></div>","none","100","test","","","","","","","","",""
"-1","-1","poldrack-single-stim","75","145868","0.0-40.0","sub-09_ses-01_1","","400","0","fixation","<div class = centerbox><div class = ANT_text>+</div></div>","none","400","test","","","","","","","","",""
"678","71","poldrack-single-stim","76","147985","0.0-41.0","sub-09_ses-01_1","","2100.136","0","stim","<div class = centerbox><div class = ANT_text>+</div></div><div class = ANT_up><img class = ""ANT_img first"" src = /static/experiments/attention_network_task/images/right_arrow.png></img><img class = ANT_img src = /static/experiments/attention_network_task/images/right_arrow.png></img><img class = ANT_img src = /static/experiments/attention_network_task/images/right_arrow.png></img><img class = ANT_img src = /static/experiments/attention_network_task/images/right_arrow.png></img><img class = ANT_img src = /static/experiments/attention_network_task/images/right_arrow.png></img></div></div>","89,71","1700","test","true","71","","right","congruent","up","double","10",""
"-1","-1","poldrack-single-stim","77","148106","0.0-42.0","sub-09_ses-01_1","","100","0","spatialcue","<div class = centerbox><div class = ANT_text>+</div></div><div class = centerbox><div class = ANT_up><div class = ANT_text>*</p></div></div>","none","100","test","","","","","","","","",""
"-1","-1","poldrack-single-stim","78","148527","0.0-43.0","sub-09_ses-01_1","","400","0","fixation","<div class = centerbox><div class = ANT_text>+</div></div>","none","400","test","","","","","","","","",""
"695","71","poldrack-single-stim","79","150647","0.0-44.0","sub-09_ses-01_1","","2100.272","0","stim","<div class = centerbox><div class = ANT_text>+</div></div><div class = ANT_up><img class = ""ANT_img first"" src = /static/experiments/attention_network_task/images/left_arrow.png></img><img class = ANT_img src = /static/experiments/attention_network_task/images/left_arrow.png></img><img class = ANT_img src = /static/experiments/attention_network_task/images/right_arrow.png></img><img class = ANT_img src = /static/experiments/attention_network_task/images/left_arrow.png></img><img class = ANT_img src = /static/experiments/attention_network_task/images/left_arrow.png></img></div></div>","89,71","1700","test","true","71","","right","incongruent","up","spatial","11",""
"-1","-1","poldrack-single-stim","80","150767","0.0-45.0","sub-09_ses-01_1","","100","0","spatialcue","<div class = centerbox><div class = ANT_text>+</div></div><div class = centerbox><div class = ANT_down><div class = ANT_text>*</p></div></div>","none","100","test","","","","","","","","",""
"-1","-1","poldrack-single-stim","81","151187","0.0-46.0","sub-09_ses-01_1","","400","0","fixation","<div class = centerbox><div class = ANT_text>+</div></div>","none","400","test","","","","","","","","",""
"585","71","poldrack-single-stim","82","153307","0.0-47.0","sub-09_ses-01_1","","2100.136","0","stim","<div class = centerbox><div class = ANT_text>+</div></div><div class = ANT_down><img class = ""ANT_img first"" src = /static/experiments/attention_network_task/images/left_arrow.png></img><img class = ANT_img src = /static/experiments/attention_network_task/images/left_arrow.png></img><img class = ANT_img src = /static/experiments/attention_network_task/images/right_arrow.png></img><img class = ANT_img src = /static/experiments/attention_network_task/images/left_arrow.png></img><img class = ANT_img src = /static/experiments/attention_network_task/images/left_arrow.png></img></div></div>","89,71","1700","test","true","71","","right","incongruent","down","spatial","12",""
"-1","-1","poldrack-single-stim","83","153427","0.0-48.0","sub-09_ses-01_1","","100","0","spatialcue","<div class = centerbox><div class = ANT_text>+</div></div><div class = centerbox><div class = ANT_down><div class = ANT_text>*</p></div></div>","none","100","test","","","","","","","","",""
"-1","-1","poldrack-single-stim","84","153847","0.0-49.0","sub-09_ses-01_1","","400","0","fixation","<div class = centerbox><div class = ANT_text>+</div></div>","none","400","test","","","","","","","","",""
"557","71","poldrack-single-stim","85","155966","0.0-50.0","sub-09_ses-01_1","","2100.408","0","stim","<div class = centerbox><div class = ANT_text>+</div></div><div class = ANT_down><img class = ""ANT_img first"" src = /static/experiments/attention_network_task/images/left_arrow.png></img><img class = ANT_img src = /static/experiments/attention_network_task/images/left_arrow.png></img><img class = ANT_img src = /static/experiments/attention_network_task/images/right_arrow.png></img><img class = ANT_img src = /static/experiments/attention_network_task/images/left_arrow.png></img><img class = ANT_img src = /static/experiments/attention_network_task/images/left_arrow.png></img></div></div>","89,71","1700","test","true","71","","right","incongruent","down","spatial","13",""
"-1","-1","poldrack-single-stim","86","156087","0.0-51.0","sub-09_ses-01_1","","100","0","doublecue","<div class = centerbox><div class = ANT_text>+</div></div><div class = ANT_down><div class = ANT_text>*</div></div><div class = ANT_up><div class = ANT_text>*</div><div></div>","none","100","test","","","","","","","","",""
"-1","-1","poldrack-single-stim","87","156507","0.0-52.0","sub-09_ses-01_1","","400","0","fixation","<div class = centerbox><div class = ANT_text>+</div></div>","none","400","test","","","","","","","","",""
"755","71","poldrack-single-stim","88","158626","0.0-53.0","sub-09_ses-01_1","","2100","0","stim","<div class = centerbox><div class = ANT_text>+</div></div><div class = ANT_down><img class = ""ANT_img first"" src = /static/experiments/attention_network_task/images/left_arrow.png></img><img class = ANT_img src = /static/experiments/attention_network_task/images/left_arrow.png></img><img class = ANT_img src = /static/experiments/attention_network_task/images/right_arrow.png></img><img class = ANT_img src = /static/experiments/attention_network_task/images/left_arrow.png></img><img class = ANT_img src = /static/experiments/attention_network_task/images/left_arrow.png></img></div></div>","89,71","1700","test","true","71","","right","incongruent","down","double","14",""
"-1","-1","poldrack-single-stim","89","158747","0.0-54.0","sub-09_ses-01_1","","100","0","doublecue","<div class = centerbox><div class = ANT_text>+</div></div><div class = ANT_down><div class = ANT_text>*</div></div><div class = ANT_up><div class = ANT_text>*</div><div></div>","none","100","test","","","","","","","","",""
"-1","-1","poldrack-single-stim","90","159165","0.0-55.0","sub-09_ses-01_1","","400","0","fixation","<div class = centerbox><div class = ANT_text>+</div></div>","none","400","test","","","","","","","","",""
"667","89","poldrack-single-stim","91","161286","0.0-56.0","sub-09_ses-01_1","","2100.136","0","stim","<div class = centerbox><div class = ANT_text>+</div></div><div class = ANT_down><img class = ""ANT_img first"" src = /static/experiments/attention_network_task/images/left_arrow.png></img><img class = ANT_img src = /static/experiments/attention_network_task/images/left_arrow.png></img><img class = ANT_img src = /static/experiments/attention_network_task/images/left_arrow.png></img><img class = ANT_img src = /static/experiments/attention_network_task/images/left_arrow.png></img><img class = ANT_img src = /static/experiments/attention_network_task/images/left_arrow.png></img></div></div>","89,71","1700","test","true","89","","left","congruent","down","double","15",""
"-1","-1","poldrack-single-stim","92","161406","0.0-57.0","sub-09_ses-01_1","","100","0","spatialcue","<div class = centerbox><div class = ANT_text>+</div></div><div class = centerbox><div class = ANT_down><div class = ANT_text>*</p></div></div>","none","100","test","","","","","","","","",""
"-1","-1","poldrack-single-stim","93","161825","0.0-58.0","sub-09_ses-01_1","","400","0","fixation","<div class = centerbox><div class = ANT_text>+</div></div>","none","400","test","","","","","","","","",""
"546","71","poldrack-single-stim","94","163947","0.0-59.0","sub-09_ses-01_1","","2100","0","stim","<div class = centerbox><div class = ANT_text>+</div></div><div class = ANT_down><img class = ""ANT_img first"" src = /static/experiments/attention_network_task/images/right_arrow.png></img><img class = ANT_img src = /static/experiments/attention_network_task/images/right_arrow.png></img><img class = ANT_img src = /static/experiments/attention_network_task/images/right_arrow.png></img><img class = ANT_img src = /static/experiments/attention_network_task/images/right_arrow.png></img><img class = ANT_img src = /static/experiments/attention_network_task/images/right_arrow.png></img></div></div>","89,71","1700","test","true","71","","right","congruent","down","spatial","16",""
"-1","-1","poldrack-single-stim","95","164065","0.0-60.0","sub-09_ses-01_1","","100","0","doublecue","<div class = centerbox><div class = ANT_text>+</div></div><div class = ANT_down><div class = ANT_text>*</div></div><div class = ANT_up><div class = ANT_text>*</div><div></div>","none","100","test","","","","","","","","",""
"-1","-1","poldrack-single-stim","96","164487","0.0-61.0","sub-09_ses-01_1","","400","0","fixation","<div class = centerbox><div class = ANT_text>+</div></div>","none","400","test","","","","","","","","",""
"679","89","poldrack-single-stim","97","166606","0.0-62.0","sub-09_ses-01_1","","2100.136","0","stim","<div class = centerbox><div class = ANT_text>+</div></div><div class = ANT_down><img class = ""ANT_img first"" src = /static/experiments/attention_network_task/images/right_arrow.png></img><img class = ANT_img src = /static/experiments/attention_network_task/images/right_arrow.png></img><img class = ANT_img src = /static/experiments/attention_network_task/images/left_arrow.png></img><img class = ANT_img src = /static/experiments/attention_network_task/images/right_arrow.png></img><img class = ANT_img src = /static/experiments/attention_network_task/images/right_arrow.png></img></div></div>","89,71","1700","test","true","89","","left","incongruent","down","double","17",""
"-1","-1","poldrack-single-stim","98","166727","0.0-63.0","sub-09_ses-01_1","","100","0","spatialcue","<div class = centerbox><div class = ANT_text>+</div></div><div class = centerbox><div class = ANT_down><div class = ANT_text>*</p></div></div>","none","100","test","","","","","","","","",""
"-1","-1","poldrack-single-stim","99","167146","0.0-64.0","sub-09_ses-01_1","","400","0","fixation","<div class = centerbox><div class = ANT_text>+</div></div>","none","400","test","","","","","","","","",""
"537","89","poldrack-single-stim","100","169265","0.0-65.0","sub-09_ses-01_1","","2100.952","0","stim","<div class = centerbox><div class = ANT_text>+</div></div><div class = ANT_down><img class = ""ANT_img first"" src = /static/experiments/attention_network_task/images/left_arrow.png></img><img class = ANT_img src = /static/experiments/attention_network_task/images/left_arrow.png></img><img class = ANT_img src = /static/experiments/attention_network_task/images/left_arrow.png></img><img class = ANT_img src = /static/experiments/attention_network_task/images/left_arrow.png></img><img class = ANT_img src = /static/experiments/attention_network_task/images/left_arrow.png></img></div></div>","89,71","1700","test","true","89","","left","congruent","down","spatial","18",""
"-1","-1","poldrack-single-stim","101","169387","0.0-66.0","sub-09_ses-01_1","","100","0","doublecue","<div class = centerbox><div class = ANT_text>+</div></div><div class = ANT_down><div class = ANT_text>*</div></div><div class = ANT_up><div class = ANT_text>*</div><div></div>","none","100","test","","","","","","","","",""
"-1","-1","poldrack-single-stim","102","169797","0.0-67.0","sub-09_ses-01_1","","400","0","fixation","<div class = centerbox><div class = ANT_text>+</div></div>","none","400","test","","","","","","","","",""
"658","71","poldrack-single-stim","103","171917","0.0-68.0","sub-09_ses-01_1","","2100.272","0","stim","<div class = centerbox><div class = ANT_text>+</div></div><div class = ANT_down><img class = ""ANT_img first"" src = /static/experiments/attention_network_task/images/right_arrow.png></img><img class = ANT_img src = /static/experiments/attention_network_task/images/right_arrow.png></img><img class = ANT_img src = /static/experiments/attention_network_task/images/right_arrow.png></img><img class = ANT_img src = /static/experiments/attention_network_task/images/right_arrow.png></img><img class = ANT_img src = /static/experiments/attention_network_task/images/right_arrow.png></img></div></div>","89,71","1700","test","true","71","","right","congruent","down","double","19",""
"-1","-1","poldrack-single-stim","104","172037","0.0-69.0","sub-09_ses-01_1","","100","0","doublecue","<div class = centerbox><div class = ANT_text>+</div></div><div class = ANT_down><div class = ANT_text>*</div></div><div class = ANT_up><div class = ANT_text>*</div><div></div>","none","100","test","","","","","","","","",""
"-1","-1","poldrack-single-stim","105","172457","0.0-70.0","sub-09_ses-01_1","","400","0","fixation","<div class = centerbox><div class = ANT_text>+</div></div>","none","400","test","","","","","","","","",""
"732","71","poldrack-single-stim","106","174577","0.0-71.0","sub-09_ses-01_1","","2100.136","0","stim","<div class = centerbox><div class = ANT_text>+</div></div><div class = ANT_down><img class = ""ANT_img first"" src = /static/experiments/attention_network_task/images/right_arrow.png></img><img class = ANT_img src = /static/experiments/attention_network_task/images/right_arrow.png></img><img class = ANT_img src = /static/experiments/attention_network_task/images/right_arrow.png></img><img class = ANT_img src = /static/experiments/attention_network_task/images/right_arrow.png></img><img class = ANT_img src = /static/experiments/attention_network_task/images/right_arrow.png></img></div></div>","89,71","1700","test","true","71","","right","congruent","down","double","20",""
"-1","-1","poldrack-single-stim","107","174697","0.0-72.0","sub-09_ses-01_1","","100","0","doublecue","<div class = centerbox><div class = ANT_text>+</div></div><div class = ANT_down><div class = ANT_text>*</div></div><div class = ANT_up><div class = ANT_text>*</div><div></div>","none","100","test","","","","","","","","",""
"-1","-1","poldrack-single-stim","108","175115","0.0-73.0","sub-09_ses-01_1","","400","0","fixation","<div class = centerbox><div class = ANT_text>+</div></div>","none","400","test","","","","","","","","",""
"747","71","poldrack-single-stim","109","177237","0.0-74.0","sub-09_ses-01_1","","2100","0","stim","<div class = centerbox><div class = ANT_text>+</div></div><div class = ANT_up><img class = ""ANT_img first"" src = /static/experiments/attention_network_task/images/left_arrow.png></img><img class = ANT_img src = /static/experiments/attention_network_task/images/left_arrow.png></img><img class = ANT_img src = /static/experiments/attention_network_task/images/right_arrow.png></img><img class = ANT_img src = /static/experiments/attention_network_task/images/left_arrow.png></img><img class = ANT_img src = /static/experiments/attention_network_task/images/left_arrow.png></img></div></div>","89,71","1700","test","true","71","","right","incongruent","up","double","21",""
"-1","-1","poldrack-single-stim","110","177357","0.0-75.0","sub-09_ses-01_1","","100","0","spatialcue","<div class = centerbox><div class = ANT_text>+</div></div><div class = centerbox><div class = ANT_down><div class = ANT_text>*</p></div></div>","none","100","test","","","","","","","","",""
"-1","-1","poldrack-single-stim","111","177767","0.0-76.0","sub-09_ses-01_1","","400","0","fixation","<div class = centerbox><div class = ANT_text>+</div></div>","none","400","test","","","","","","","","",""
"399","71","poldrack-single-stim","112","179876","0.0-77.0","sub-09_ses-01_1","","2100.136","0","stim","<div class = centerbox><div class = ANT_text>+</div></div><div class = ANT_down><img class = ""ANT_img first"" src = /static/experiments/attention_network_task/images/left_arrow.png></img><img class = ANT_img src = /static/experiments/attention_network_task/images/left_arrow.png></img><img class = ANT_img src = /static/experiments/attention_network_task/images/right_arrow.png></img><img class = ANT_img src = /static/experiments/attention_network_task/images/left_arrow.png></img><img class = ANT_img src = /static/experiments/attention_network_task/images/left_arrow.png></img></div></div>","89,71","1700","test","true","71","","right","incongruent","down","spatial","22",""
"-1","-1","poldrack-single-stim","113","179997","0.0-78.0","sub-09_ses-01_1","","100","0","doublecue","<div class = centerbox><div class = ANT_text>+</div></div><div class = ANT_down><div class = ANT_text>*</div></div><div class = ANT_up><div class = ANT_text>*</div><div></div>","none","100","test","","","","","","","","",""
"-1","-1","poldrack-single-stim","114","180417","0.0-79.0","sub-09_ses-01_1","","400","0","fixation","<div class = centerbox><div class = ANT_text>+</div></div>","none","400","test","","","","","","","","",""
"512","89","poldrack-single-stim","115","182527","0.0-80.0","sub-09_ses-01_1","","2100","0","stim","<div class = centerbox><div class = ANT_text>+</div></div><div class = ANT_down><img class = ""ANT_img first"" src = /static/experiments/attention_network_task/images/left_arrow.png></img><img class = ANT_img src = /static/experiments/attention_network_task/images/left_arrow.png></img><img class = ANT_img src = /static/experiments/attention_network_task/images/left_arrow.png></img><img class = ANT_img src = /static/experiments/attention_network_task/images/left_arrow.png></img><img class = ANT_img src = /static/experiments/attention_network_task/images/left_arrow.png></img></div></div>","89,71","1700","test","true","89","","left","congruent","down","double","23",""
"-1","-1","poldrack-single-stim","116","182647","0.0-81.0","sub-09_ses-01_1","","100","0","spatialcue","<div class = centerbox><div class = ANT_text>+</div></div><div class = centerbox><div class = ANT_up><div class = ANT_text>*</p></div></div>","none","100","test","","","","","","","","",""
"-1","-1","poldrack-single-stim","117","183066","0.0-82.0","sub-09_ses-01_1","","400","0","fixation","<div class = centerbox><div class = ANT_text>+</div></div>","none","400","test","","","","","","","","",""
"634","71","poldrack-single-stim","118","185176","0.0-83.0","sub-09_ses-01_1","","2100.136","0","stim","<div class = centerbox><div class = ANT_text>+</div></div><div class = ANT_up><img class = ""ANT_img first"" src = /static/experiments/attention_network_task/images/left_arrow.png></img><img class = ANT_img src = /static/experiments/attention_network_task/images/left_arrow.png></img><img class = ANT_img src = /static/experiments/attention_network_task/images/right_arrow.png></img><img class = ANT_img src = /static/experiments/attention_network_task/images/left_arrow.png></img><img class = ANT_img src = /static/experiments/attention_network_task/images/left_arrow.png></img></div></div>","89,71","1700","test","true","71","","right","incongruent","up","spatial","24",""
"-1","-1","poldrack-single-stim","119","185297","0.0-84.0","sub-09_ses-01_1","","100","0","doublecue","<div class = centerbox><div class = ANT_text>+</div></div><div class = ANT_down><div class = ANT_text>*</div></div><div class = ANT_up><div class = ANT_text>*</div><div></div>","none","100","test","","","","","","","","",""
"-1","-1","poldrack-single-stim","120","185717","0.0-85.0","sub-09_ses-01_1","","400","0","fixation","<div class = centerbox><div class = ANT_text>+</div></div>","none","400","test","","","","","","","","",""
"627","89","poldrack-single-stim","121","187827","0.0-86.0","sub-09_ses-01_1","","2100.272","0","stim","<div class = centerbox><div class = ANT_text>+</div></div><div class = ANT_down><img class = ""ANT_img first"" src = /static/experiments/attention_network_task/images/right_arrow.png></img><img class = ANT_img src = /static/experiments/attention_network_task/images/right_arrow.png></img><img class = ANT_img src = /static/experiments/attention_network_task/images/left_arrow.png></img><img class = ANT_img src = /static/experiments/attention_network_task/images/right_arrow.png></img><img class = ANT_img src = /static/experiments/attention_network_task/images/right_arrow.png></img></div></div>","89,71","1700","test","true","89","","left","incongruent","down","double","25",""
"-1","-1","poldrack-single-stim","122","187953","0.0-87.0","sub-09_ses-01_1","","100","0","spatialcue","<div class = centerbox><div class = ANT_text>+</div></div><div class = centerbox><div class = ANT_down><div class = ANT_text>*</p></div></div>","none","100","test","","","","","","","","",""
"-1","-1","poldrack-single-stim","123","188367","0.0-88.0","sub-09_ses-01_1","","400","0","fixation","<div class = centerbox><div class = ANT_text>+</div></div>","none","400","test","","","","","","","","",""
"981","89","poldrack-single-stim","124","190479","0.0-89.0","sub-09_ses-01_1","","2100.272","0","stim","<div class = centerbox><div class = ANT_text>+</div></div><div class = ANT_down><img class = ""ANT_img first"" src = /static/experiments/attention_network_task/images/right_arrow.png></img><img class = ANT_img src = /static/experiments/attention_network_task/images/right_arrow.png></img><img class = ANT_img src = /static/experiments/attention_network_task/images/left_arrow.png></img><img class = ANT_img src = /static/experiments/attention_network_task/images/right_arrow.png></img><img class = ANT_img src = /static/experiments/attention_network_task/images/right_arrow.png></img></div></div>","89,71","1700","test","true","89","","left","incongruent","down","spatial","26",""
"-1","-1","poldrack-single-stim","125","190594","0.0-90.0","sub-09_ses-01_1","","100","0","doublecue","<div class = centerbox><div class = ANT_text>+</div></div><div class = ANT_down><div class = ANT_text>*</div></div><div class = ANT_up><div class = ANT_text>*</div><div></div>","none","100","test","","","","","","","","",""
"-1","-1","poldrack-single-stim","126","191006","0.0-91.0","sub-09_ses-01_1","","400","0","fixation","<div class = centerbox><div class = ANT_text>+</div></div>","none","400","test","","","","","","","","",""
"620","71","poldrack-single-stim","127","193127","0.0-92.0","sub-09_ses-01_1","","2100.136","0","stim","<div class = centerbox><div class = ANT_text>+</div></div><div class = ANT_up><img class = ""ANT_img first"" src = /static/experiments/attention_network_task/images/right_arrow.png></img><img class = ANT_img src = /static/experiments/attention_network_task/images/right_arrow.png></img><img class = ANT_img src = /static/experiments/attention_network_task/images/right_arrow.png></img><img class = ANT_img src = /static/experiments/attention_network_task/images/right_arrow.png></img><img class = ANT_img src = /static/experiments/attention_network_task/images/right_arrow.png></img></div></div>","89,71","1700","test","true","71","","right","congruent","up","double","27",""
"-1","-1","poldrack-single-stim","128","193247","0.0-93.0","sub-09_ses-01_1","","100","0","doublecue","<div class = centerbox><div class = ANT_text>+</div></div><div class = ANT_down><div class = ANT_text>*</div></div><div class = ANT_up><div class = ANT_text>*</div><div></div>","none","100","test","","","","","","","","",""
"-1","-1","poldrack-single-stim","129","193666","0.0-94.0","sub-09_ses-01_1","","400","0","fixation","<div class = centerbox><div class = ANT_text>+</div></div>","none","400","test","","","","","","","","",""
"781","89","poldrack-single-stim","130","195786","0.0-95.0","sub-09_ses-01_1","","2100","0","stim","<div class = centerbox><div class = ANT_text>+</div></div><div class = ANT_up><img class = ""ANT_img first"" src = /static/experiments/attention_network_task/images/right_arrow.png></img><img class = ANT_img src = /static/experiments/attention_network_task/images/right_arrow.png></img><img class = ANT_img src = /static/experiments/attention_network_task/images/left_arrow.png></img><img class = ANT_img src = /static/experiments/attention_network_task/images/right_arrow.png></img><img class = ANT_img src = /static/experiments/attention_network_task/images/right_arrow.png></img></div></div>","89,71","1700","test","true","89","","left","incongruent","up","double","28",""
"-1","-1","poldrack-single-stim","131","195897","0.0-96.0","sub-09_ses-01_1","","100","0","doublecue","<div class = centerbox><div class = ANT_text>+</div></div><div class = ANT_down><div class = ANT_text>*</div></div><div class = ANT_up><div class = ANT_text>*</div><div></div>","none","100","test","","","","","","","","",""
"-1","-1","poldrack-single-stim","132","196307","0.0-97.0","sub-09_ses-01_1","","400","0","fixation","<div class = centerbox><div class = ANT_text>+</div></div>","none","400","test","","","","","","","","",""
"907","89","poldrack-single-stim","133","198417","0.0-98.0","sub-09_ses-01_1","","2100.136","0","stim","<div class = centerbox><div class = ANT_text>+</div></div><div class = ANT_up><img class = ""ANT_img first"" src = /static/experiments/attention_network_task/images/right_arrow.png></img><img class = ANT_img src = /static/experiments/attention_network_task/images/right_arrow.png></img><img class = ANT_img src = /static/experiments/attention_network_task/images/left_arrow.png></img><img class = ANT_img src = /static/experiments/attention_network_task/images/right_arrow.png></img><img class = ANT_img src = /static/experiments/attention_network_task/images/right_arrow.png></img></div></div>","89,71","1700","test","true","89","","left","incongruent","up","double","29",""
"-1","-1","poldrack-single-stim","134","198599","0.0-99.0","sub-09_ses-01_1","","100","0","spatialcue","<div class = centerbox><div class = ANT_text>+</div></div><div class = centerbox><div class = ANT_up><div class = ANT_text>*</p></div></div>","none","100","test","","","","","","","","",""
"-1","-1","poldrack-single-stim","135","199022","0.0-100.0","sub-09_ses-01_1","","400","0","fixation","<div class = centerbox><div class = ANT_text>+</div></div>","none","400","test","","","","","","","","",""
"769","71","poldrack-single-stim","136","201136","0.0-101.0","sub-09_ses-01_1","","2100","0","stim","<div class = centerbox><div class = ANT_text>+</div></div><div class = ANT_up><img class = ""ANT_img first"" src = /static/experiments/attention_network_task/images/right_arrow.png></img><img class = ANT_img src = /static/experiments/attention_network_task/images/right_arrow.png></img><img class = ANT_img src = /static/experiments/attention_network_task/images/right_arrow.png></img><img class = ANT_img src = /static/experiments/attention_network_task/images/right_arrow.png></img><img class = ANT_img src = /static/experiments/attention_network_task/images/right_arrow.png></img></div></div>","89,71","1700","test","true","71","","right","congruent","up","spatial","30",""
"-1","-1","poldrack-single-stim","137","201257","0.0-102.0","sub-09_ses-01_1","","100","0","doublecue","<div class = centerbox><div class = ANT_text>+</div></div><div class = ANT_down><div class = ANT_text>*</div></div><div class = ANT_up><div class = ANT_text>*</div><div></div>","none","100","test","","","","","","","","",""
"-1","-1","poldrack-single-stim","138","201675","0.0-103.0","sub-09_ses-01_1","","400","0","fixation","<div class = centerbox><div class = ANT_text>+</div></div>","none","400","test","","","","","","","","",""
"792","89","poldrack-single-stim","139","203796","0.0-104.0","sub-09_ses-01_1","","2100.272","0","stim","<div class = centerbox><div class = ANT_text>+</div></div><div class = ANT_down><img class = ""ANT_img first"" src = /static/experiments/attention_network_task/images/left_arrow.png></img><img class = ANT_img src = /static/experiments/attention_network_task/images/left_arrow.png></img><img class = ANT_img src = /static/experiments/attention_network_task/images/left_arrow.png></img><img class = ANT_img src = /static/experiments/attention_network_task/images/left_arrow.png></img><img class = ANT_img src = /static/experiments/attention_network_task/images/left_arrow.png></img></div></div>","89,71","1700","test","true","89","","left","congruent","down","double","31",""
"-1","-1","poldrack-single-stim","140","203916","0.0-105.0","sub-09_ses-01_1","","100","0","spatialcue","<div class = centerbox><div class = ANT_text>+</div></div><div class = centerbox><div class = ANT_down><div class = ANT_text>*</p></div></div>","none","100","test","","","","","","","","",""
"-1","-1","poldrack-single-stim","141","204337","0.0-106.0","sub-09_ses-01_1","","400","0","fixation","<div class = centerbox><div class = ANT_text>+</div></div>","none","400","test","","","","","","","","",""
"719","71","poldrack-single-stim","142","206458","0.0-107.0","sub-09_ses-01_1","","2100","0","stim","<div class = centerbox><div class = ANT_text>+</div></div><div class = ANT_down><img class = ""ANT_img first"" src = /static/experiments/attention_network_task/images/left_arrow.png></img><img class = ANT_img src = /static/experiments/attention_network_task/images/left_arrow.png></img><img class = ANT_img src = /static/experiments/attention_network_task/images/right_arrow.png></img><img class = ANT_img src = /static/experiments/attention_network_task/images/left_arrow.png></img><img class = ANT_img src = /static/experiments/attention_network_task/images/left_arrow.png></img></div></div>","89,71","1700","test","true","71","","right","incongruent","down","spatial","32",""
"-1","-1","poldrack-single-stim","143","206576","0.0-108.0","sub-09_ses-01_1","","100","0","spatialcue","<div class = centerbox><div class = ANT_text>+</div></div><div class = centerbox><div class = ANT_down><div class = ANT_text>*</p></div></div>","none","100","test","","","","","","","","",""
"-1","-1","poldrack-single-stim","144","206983","0.0-109.0","sub-09_ses-01_1","","400","0","fixation","<div class = centerbox><div class = ANT_text>+</div></div>","none","400","test","","","","","","","","",""
"1095","71","poldrack-single-stim","145","209106","0.0-110.0","sub-09_ses-01_1","","2100","0","stim","<div class = centerbox><div class = ANT_text>+</div></div><div class = ANT_down><img class = ""ANT_img first"" src = /static/experiments/attention_network_task/images/left_arrow.png></img><img class = ANT_img src = /static/experiments/attention_network_task/images/left_arrow.png></img><img class = ANT_img src = /static/experiments/attention_network_task/images/right_arrow.png></img><img class = ANT_img src = /static/experiments/attention_network_task/images/left_arrow.png></img><img class = ANT_img src = /static/experiments/attention_network_task/images/left_arrow.png></img></div></div>","89,71","1700","test","true","71","","right","incongruent","down","spatial","33",""
"-1","-1","poldrack-single-stim","146","209227","0.0-111.0","sub-09_ses-01_1","","100","0","spatialcue","<div class = centerbox><div class = ANT_text>+</div></div><div class = centerbox><div class = ANT_down><div class = ANT_text>*</p></div></div>","none","100","test","","","","","","","","",""
"-1","-1","poldrack-single-stim","147","209646","0.0-112.0","sub-09_ses-01_1","","400","0","fixation","<div class = centerbox><div class = ANT_text>+</div></div>","none","400","test","","","","","","","","",""
"587","89","poldrack-single-stim","148","211767","0.0-113.0","sub-09_ses-01_1","","2100.136","0","stim","<div class = centerbox><div class = ANT_text>+</div></div><div class = ANT_down><img class = ""ANT_img first"" src = /static/experiments/attention_network_task/images/left_arrow.png></img><img class = ANT_img src = /static/experiments/attention_network_task/images/left_arrow.png></img><img class = ANT_img src = /static/experiments/attention_network_task/images/left_arrow.png></img><img class = ANT_img src = /static/experiments/attention_network_task/images/left_arrow.png></img><img class = ANT_img src = /static/experiments/attention_network_task/images/left_arrow.png></img></div></div>","89,71","1700","test","true","89","","left","congruent","down","spatial","34",""
"-1","-1","poldrack-single-stim","149","211886","0.0-114.0","sub-09_ses-01_1","","100","0","spatialcue","<div class = centerbox><div class = ANT_text>+</div></div><div class = centerbox><div class = ANT_up><div class = ANT_text>*</p></div></div>","none","100","test","","","","","","","","",""
"-1","-1","poldrack-single-stim","150","212305","0.0-115.0","sub-09_ses-01_1","","400","0","fixation","<div class = centerbox><div class = ANT_text>+</div></div>","none","400","test","","","","","","","","",""
"477","71","poldrack-single-stim","151","214417","0.0-116.0","sub-09_ses-01_1","","2100.272","0","stim","<div class = centerbox><div class = ANT_text>+</div></div><div class = ANT_up><img class = ""ANT_img first"" src = /static/experiments/attention_network_task/images/right_arrow.png></img><img class = ANT_img src = /static/experiments/attention_network_task/images/right_arrow.png></img><img class = ANT_img src = /static/experiments/attention_network_task/images/right_arrow.png></img><img class = ANT_img src = /static/experiments/attention_network_task/images/right_arrow.png></img><img class = ANT_img src = /static/experiments/attention_network_task/images/right_arrow.png></img></div></div>","89,71","1700","test","true","71","","right","congruent","up","spatial","35",""
"-1","-1","poldrack-single-stim","152","214536","0.0-117.0","sub-09_ses-01_1","","100","0","doublecue","<div class = centerbox><div class = ANT_text>+</div></div><div class = ANT_down><div class = ANT_text>*</div></div><div class = ANT_up><div class = ANT_text>*</div><div></div>","none","100","test","","","","","","","","",""
"-1","-1","poldrack-single-stim","153","214957","0.0-118.0","sub-09_ses-01_1","","400","0","fixation","<div class = centerbox><div class = ANT_text>+</div></div>","none","400","test","","","","","","","","",""
"655","71","poldrack-single-stim","154","217076","0.0-119.0","sub-09_ses-01_1","","2100.408","0","stim","<div class = centerbox><div class = ANT_text>+</div></div><div class = ANT_up><img class = ""ANT_img first"" src = /static/experiments/attention_network_task/images/left_arrow.png></img><img class = ANT_img src = /static/experiments/attention_network_task/images/left_arrow.png></img><img class = ANT_img src = /static/experiments/attention_network_task/images/right_arrow.png></img><img class = ANT_img src = /static/experiments/attention_network_task/images/left_arrow.png></img><img class = ANT_img src = /static/experiments/attention_network_task/images/left_arrow.png></img></div></div>","89,71","1700","test","true","71","","right","incongruent","up","double","36",""
"-1","-1","poldrack-single-stim","155","217196","0.0-120.0","sub-09_ses-01_1","","100","0","doublecue","<div class = centerbox><div class = ANT_text>+</div></div><div class = ANT_down><div class = ANT_text>*</div></div><div class = ANT_up><div class = ANT_text>*</div><div></div>","none","100","test","","","","","","","","",""
"-1","-1","poldrack-single-stim","156","217615","0.0-121.0","sub-09_ses-01_1","","400","0","fixation","<div class = centerbox><div class = ANT_text>+</div></div>","none","400","test","","","","","","","","",""
"548","71","poldrack-single-stim","157","219725","0.0-122.0","sub-09_ses-01_1","","2100","0","stim","<div class = centerbox><div class = ANT_text>+</div></div><div class = ANT_down><img class = ""ANT_img first"" src = /static/experiments/attention_network_task/images/right_arrow.png></img><img class = ANT_img src = /static/experiments/attention_network_task/images/right_arrow.png></img><img class = ANT_img src = /static/experiments/attention_network_task/images/right_arrow.png></img><img class = ANT_img src = /static/experiments/attention_network_task/images/right_arrow.png></img><img class = ANT_img src = /static/experiments/attention_network_task/images/right_arrow.png></img></div></div>","89,71","1700","test","true","71","","right","congruent","down","double","37",""
"-1","-1","poldrack-single-stim","158","219846","0.0-123.0","sub-09_ses-01_1","","100","0","doublecue","<div class = centerbox><div class = ANT_text>+</div></div><div class = ANT_down><div class = ANT_text>*</div></div><div class = ANT_up><div class = ANT_text>*</div><div></div>","none","100","test","","","","","","","","",""
"-1","-1","poldrack-single-stim","159","220267","0.0-124.0","sub-09_ses-01_1","","400","0","fixation","<div class = centerbox><div class = ANT_text>+</div></div>","none","400","test","","","","","","","","",""
"481","89","poldrack-single-stim","160","222386","0.0-125.0","sub-09_ses-01_1","","2100.136","0","stim","<div class = centerbox><div class = ANT_text>+</div></div><div class = ANT_up><img class = ""ANT_img first"" src = /static/experiments/attention_network_task/images/left_arrow.png></img><img class = ANT_img src = /static/experiments/attention_network_task/images/left_arrow.png></img><img class = ANT_img src = /static/experiments/attention_network_task/images/left_arrow.png></img><img class = ANT_img src = /static/experiments/attention_network_task/images/left_arrow.png></img><img class = ANT_img src = /static/experiments/attention_network_task/images/left_arrow.png></img></div></div>","89,71","1700","test","true","89","","left","congruent","up","double","38",""
"-1","-1","poldrack-single-stim","161","222507","0.0-126.0","sub-09_ses-01_1","","100","0","spatialcue","<div class = centerbox><div class = ANT_text>+</div></div><div class = centerbox><div class = ANT_up><div class = ANT_text>*</p></div></div>","none","100","test","","","","","","","","",""
"-1","-1","poldrack-single-stim","162","222926","0.0-127.0","sub-09_ses-01_1","","400","0","fixation","<div class = centerbox><div class = ANT_text>+</div></div>","none","400","test","","","","","","","","",""
"607","71","poldrack-single-stim","163","225046","0.0-128.0","sub-09_ses-01_1","","2100.136","0","stim","<div class = centerbox><div class = ANT_text>+</div></div><div class = ANT_up><img class = ""ANT_img first"" src = /static/experiments/attention_network_task/images/right_arrow.png></img><img class = ANT_img src = /static/experiments/attention_network_task/images/right_arrow.png></img><img class = ANT_img src = /static/experiments/attention_network_task/images/right_arrow.png></img><img class = ANT_img src = /static/experiments/attention_network_task/images/right_arrow.png></img><img class = ANT_img src = /static/experiments/attention_network_task/images/right_arrow.png></img></div></div>","89,71","1700","test","true","71","","right","congruent","up","spatial","39",""
"-1","-1","poldrack-single-stim","164","225167","0.0-129.0","sub-09_ses-01_1","","100","0","doublecue","<div class = centerbox><div class = ANT_text>+</div></div><div class = ANT_down><div class = ANT_text>*</div></div><div class = ANT_up><div class = ANT_text>*</div><div></div>","none","100","test","","","","","","","","",""
"-1","-1","poldrack-single-stim","165","225586","0.0-130.0","sub-09_ses-01_1","","400","0","fixation","<div class = centerbox><div class = ANT_text>+</div></div>","none","400","test","","","","","","","","",""
"776","71","poldrack-single-stim","166","227708","0.0-131.0","sub-09_ses-01_1","","2100","0","stim","<div class = centerbox><div class = ANT_text>+</div></div><div class = ANT_up><img class = ""ANT_img first"" src = /static/experiments/attention_network_task/images/right_arrow.png></img><img class = ANT_img src = /static/experiments/attention_network_task/images/right_arrow.png></img><img class = ANT_img src = /static/experiments/attention_network_task/images/right_arrow.png></img><img class = ANT_img src = /static/experiments/attention_network_task/images/right_arrow.png></img><img class = ANT_img src = /static/experiments/attention_network_task/images/right_arrow.png></img></div></div>","89,71","1700","test","true","71","","right","congruent","up","double","40",""
"-1","-1","poldrack-single-stim","167","227827","0.0-132.0","sub-09_ses-01_1","","100","0","doublecue","<div class = centerbox><div class = ANT_text>+</div></div><div class = ANT_down><div class = ANT_text>*</div></div><div class = ANT_up><div class = ANT_text>*</div><div></div>","none","100","test","","","","","","","","",""
"-1","-1","poldrack-single-stim","168","228247","0.0-133.0","sub-09_ses-01_1","","400","0","fixation","<div class = centerbox><div class = ANT_text>+</div></div>","none","400","test","","","","","","","","",""
"887","71","poldrack-single-stim","169","230356","0.0-134.0","sub-09_ses-01_1","","2100.408","0","stim","<div class = centerbox><div class = ANT_text>+</div></div><div class = ANT_down><img class = ""ANT_img first"" src = /static/experiments/attention_network_task/images/left_arrow.png></img><img class = ANT_img src = /static/experiments/attention_network_task/images/left_arrow.png></img><img class = ANT_img src = /static/experiments/attention_network_task/images/right_arrow.png></img><img class = ANT_img src = /static/experiments/attention_network_task/images/left_arrow.png></img><img class = ANT_img src = /static/experiments/attention_network_task/images/left_arrow.png></img></div></div>","89,71","1700","test","true","71","","right","incongruent","down","double","41",""
"-1","-1","poldrack-single-stim","170","230477","0.0-135.0","sub-09_ses-01_1","","100","0","spatialcue","<div class = centerbox><div class = ANT_text>+</div></div><div class = centerbox><div class = ANT_down><div class = ANT_text>*</p></div></div>","none","100","test","","","","","","","","",""
"-1","-1","poldrack-single-stim","171","230896","0.0-136.0","sub-09_ses-01_1","","400","0","fixation","<div class = centerbox><div class = ANT_text>+</div></div>","none","400","test","","","","","","","","",""
"515","89","poldrack-single-stim","172","233016","0.0-137.0","sub-09_ses-01_1","","2100.544","0","stim","<div class = centerbox><div class = ANT_text>+</div></div><div class = ANT_down><img class = ""ANT_img first"" src = /static/experiments/attention_network_task/images/left_arrow.png></img><img class = ANT_img src = /static/experiments/attention_network_task/images/left_arrow.png></img><img class = ANT_img src = /static/experiments/attention_network_task/images/left_arrow.png></img><img class = ANT_img src = /static/experiments/attention_network_task/images/left_arrow.png></img><img class = ANT_img src = /static/experiments/attention_network_task/images/left_arrow.png></img></div></div>","89,71","1700","test","true","89","","left","congruent","down","spatial","42",""
"-1","-1","poldrack-single-stim","173","233136","0.0-138.0","sub-09_ses-01_1","","100","0","spatialcue","<div class = centerbox><div class = ANT_text>+</div></div><div class = centerbox><div class = ANT_down><div class = ANT_text>*</p></div></div>","none","100","test","","","","","","","","",""
"-1","-1","poldrack-single-stim","174","233556","0.0-139.0","sub-09_ses-01_1","","400","0","fixation","<div class = centerbox><div class = ANT_text>+</div></div>","none","400","test","","","","","","","","",""
"568","89","poldrack-single-stim","175","235676","0.0-140.0","sub-09_ses-01_1","","2100.136","0","stim","<div class = centerbox><div class = ANT_text>+</div></div><div class = ANT_down><img class = ""ANT_img first"" src = /static/experiments/attention_network_task/images/left_arrow.png></img><img class = ANT_img src = /static/experiments/attention_network_task/images/left_arrow.png></img><img class = ANT_img src = /static/experiments/attention_network_task/images/left_arrow.png></img><img class = ANT_img src = /static/experiments/attention_network_task/images/left_arrow.png></img><img class = ANT_img src = /static/experiments/attention_network_task/images/left_arrow.png></img></div></div>","89,71","1700","test","true","89","","left","congruent","down","spatial","43",""
"-1","-1","poldrack-single-stim","176","235797","0.0-141.0","sub-09_ses-01_1","","100","0","spatialcue","<div class = centerbox><div class = ANT_text>+</div></div><div class = centerbox><div class = ANT_down><div class = ANT_text>*</p></div></div>","none","100","test","","","","","","","","",""
"-1","-1","poldrack-single-stim","177","236217","0.0-142.0","sub-09_ses-01_1","","400","0","fixation","<div class = centerbox><div class = ANT_text>+</div></div>","none","400","test","","","","","","","","",""
"571","71","poldrack-single-stim","178","238338","0.0-143.0","sub-09_ses-01_1","","2100.136","0","stim","<div class = centerbox><div class = ANT_text>+</div></div><div class = ANT_down><img class = ""ANT_img first"" src = /static/experiments/attention_network_task/images/right_arrow.png></img><img class = ANT_img src = /static/experiments/attention_network_task/images/right_arrow.png></img><img class = ANT_img src = /static/experiments/attention_network_task/images/right_arrow.png></img><img class = ANT_img src = /static/experiments/attention_network_task/images/right_arrow.png></img><img class = ANT_img src = /static/experiments/attention_network_task/images/right_arrow.png></img></div></div>","89,71","1700","test","true","71","","right","congruent","down","spatial","44",""
"-1","-1","poldrack-single-stim","179","238457","0.0-144.0","sub-09_ses-01_1","","100","0","spatialcue","<div class = centerbox><div class = ANT_text>+</div></div><div class = centerbox><div class = ANT_down><div class = ANT_text>*</p></div></div>","none","100","test","","","","","","","","",""
"-1","-1","poldrack-single-stim","180","238876","0.0-145.0","sub-09_ses-01_1","","400","0","fixation","<div class = centerbox><div class = ANT_text>+</div></div>","none","400","test","","","","","","","","",""
"570","89","poldrack-single-stim","181","240995","0.0-146.0","sub-09_ses-01_1","","2100","0","stim","<div class = centerbox><div class = ANT_text>+</div></div><div class = ANT_down><img class = ""ANT_img first"" src = /static/experiments/attention_network_task/images/right_arrow.png></img><img class = ANT_img src = /static/experiments/attention_network_task/images/right_arrow.png></img><img class = ANT_img src = /static/experiments/attention_network_task/images/left_arrow.png></img><img class = ANT_img src = /static/experiments/attention_network_task/images/right_arrow.png></img><img class = ANT_img src = /static/experiments/attention_network_task/images/right_arrow.png></img></div></div>","89,71","1700","test","true","89","","left","incongruent","down","spatial","45",""
"-1","-1","poldrack-single-stim","182","241117","0.0-147.0","sub-09_ses-01_1","","100","0","doublecue","<div class = centerbox><div class = ANT_text>+</div></div><div class = ANT_down><div class = ANT_text>*</div></div><div class = ANT_up><div class = ANT_text>*</div><div></div>","none","100","test","","","","","","","","",""
"-1","-1","poldrack-single-stim","183","241536","0.0-148.0","sub-09_ses-01_1","","400","0","fixation","<div class = centerbox><div class = ANT_text>+</div></div>","none","400","test","","","","","","","","",""
"758","71","poldrack-single-stim","184","243646","0.0-149.0","sub-09_ses-01_1","","2100","0","stim","<div class = centerbox><div class = ANT_text>+</div></div><div class = ANT_down><img class = ""ANT_img first"" src = /static/experiments/attention_network_task/images/right_arrow.png></img><img class = ANT_img src = /static/experiments/attention_network_task/images/right_arrow.png></img><img class = ANT_img src = /static/experiments/attention_network_task/images/right_arrow.png></img><img class = ANT_img src = /static/experiments/attention_network_task/images/right_arrow.png></img><img class = ANT_img src = /static/experiments/attention_network_task/images/right_arrow.png></img></div></div>","89,71","1700","test","true","71","","right","congruent","down","double","46",""
"-1","-1","poldrack-single-stim","185","243767","0.0-150.0","sub-09_ses-01_1","","100","0","doublecue","<div class = centerbox><div class = ANT_text>+</div></div><div class = ANT_down><div class = ANT_text>*</div></div><div class = ANT_up><div class = ANT_text>*</div><div></div>","none","100","test","","","","","","","","",""
"-1","-1","poldrack-single-stim","186","244186","0.0-151.0","sub-09_ses-01_1","","400","0","fixation","<div class = centerbox><div class = ANT_text>+</div></div>","none","400","test","","","","","","","","",""
"518","89","poldrack-single-stim","187","246306","0.0-152.0","sub-09_ses-01_1","","2100.136","0","stim","<div class = centerbox><div class = ANT_text>+</div></div><div class = ANT_up><img class = ""ANT_img first"" src = /static/experiments/attention_network_task/images/left_arrow.png></img><img class = ANT_img src = /static/experiments/attention_network_task/images/left_arrow.png></img><img class = ANT_img src = /static/experiments/attention_network_task/images/left_arrow.png></img><img class = ANT_img src = /static/experiments/attention_network_task/images/left_arrow.png></img><img class = ANT_img src = /static/experiments/attention_network_task/images/left_arrow.png></img></div></div>","89,71","1700","test","true","89","","left","congruent","up","double","47",""
"-1","-1","poldrack-single-stim","188","246425","0.0-153.0","sub-09_ses-01_1","","100","0","doublecue","<div class = centerbox><div class = ANT_text>+</div></div><div class = ANT_down><div class = ANT_text>*</div></div><div class = ANT_up><div class = ANT_text>*</div><div></div>","none","100","test","","","","","","","","",""
"-1","-1","poldrack-single-stim","189","246847","0.0-154.0","sub-09_ses-01_1","","400","0","fixation","<div class = centerbox><div class = ANT_text>+</div></div>","none","400","test","","","","","","","","",""
"576","89","poldrack-single-stim","190","248967","0.0-155.0","sub-09_ses-01_1","","2100","0","stim","<div class = centerbox><div class = ANT_text>+</div></div><div class = ANT_down><img class = ""ANT_img first"" src = /static/experiments/attention_network_task/images/left_arrow.png></img><img class = ANT_img src = /static/experiments/attention_network_task/images/left_arrow.png></img><img class = ANT_img src = /static/experiments/attention_network_task/images/left_arrow.png></img><img class = ANT_img src = /static/experiments/attention_network_task/images/left_arrow.png></img><img class = ANT_img src = /static/experiments/attention_network_task/images/left_arrow.png></img></div></div>","89,71","1700","test","true","89","","left","congruent","down","double","48",""
"-1","-1","poldrack-single-stim","191","249087","0.0-156.0","sub-09_ses-01_1","","100","0","doublecue","<div class = centerbox><div class = ANT_text>+</div></div><div class = ANT_down><div class = ANT_text>*</div></div><div class = ANT_up><div class = ANT_text>*</div><div></div>","none","100","test","","","","","","","","",""
"-1","-1","poldrack-single-stim","192","249506","0.0-157.0","sub-09_ses-01_1","","400","0","fixation","<div class = centerbox><div class = ANT_text>+</div></div>","none","400","test","","","","","","","","",""
"724","71","poldrack-single-stim","193","251627","0.0-158.0","sub-09_ses-01_1","","2100.136","0","stim","<div class = centerbox><div class = ANT_text>+</div></div><div class = ANT_up><img class = ""ANT_img first"" src = /static/experiments/attention_network_task/images/right_arrow.png></img><img class = ANT_img src = /static/experiments/attention_network_task/images/right_arrow.png></img><img class = ANT_img src = /static/experiments/attention_network_task/images/right_arrow.png></img><img class = ANT_img src = /static/experiments/attention_network_task/images/right_arrow.png></img><img class = ANT_img src = /static/experiments/attention_network_task/images/right_arrow.png></img></div></div>","89,71","1700","test","true","71","","right","congruent","up","double","49",""
"-1","-1","poldrack-single-stim","194","251747","0.0-159.0","sub-09_ses-01_1","","100","0","doublecue","<div class = centerbox><div class = ANT_text>+</div></div><div class = ANT_down><div class = ANT_text>*</div></div><div class = ANT_up><div class = ANT_text>*</div><div></div>","none","100","test","","","","","","","","",""
"-1","-1","poldrack-single-stim","195","252166","0.0-160.0","sub-09_ses-01_1","","400","0","fixation","<div class = centerbox><div class = ANT_text>+</div></div>","none","400","test","","","","","","","","",""
"751","71","poldrack-single-stim","196","254277","0.0-161.0","sub-09_ses-01_1","","2100","0","stim","<div class = centerbox><div class = ANT_text>+</div></div><div class = ANT_down><img class = ""ANT_img first"" src = /static/experiments/attention_network_task/images/right_arrow.png></img><img class = ANT_img src = /static/experiments/attention_network_task/images/right_arrow.png></img><img class = ANT_img src = /static/experiments/attention_network_task/images/right_arrow.png></img><img class = ANT_img src = /static/experiments/attention_network_task/images/right_arrow.png></img><img class = ANT_img src = /static/experiments/attention_network_task/images/right_arrow.png></img></div></div>","89,71","1700","test","true","71","","right","congruent","down","double","50",""
"-1","-1","poldrack-single-stim","197","254395","0.0-162.0","sub-09_ses-01_1","","100","0","spatialcue","<div class = centerbox><div class = ANT_text>+</div></div><div class = centerbox><div class = ANT_up><div class = ANT_text>*</p></div></div>","none","100","test","","","","","","","","",""
"-1","-1","poldrack-single-stim","198","254817","0.0-163.0","sub-09_ses-01_1","","400","0","fixation","<div class = centerbox><div class = ANT_text>+</div></div>","none","400","test","","","","","","","","",""
"802","71","poldrack-single-stim","199","256937","0.0-164.0","sub-09_ses-01_1","","2100.408","0","stim","<div class = centerbox><div class = ANT_text>+</div></div><div class = ANT_up><img class = ""ANT_img first"" src = /static/experiments/attention_network_task/images/right_arrow.png></img><img class = ANT_img src = /static/experiments/attention_network_task/images/right_arrow.png></img><img class = ANT_img src = /static/experiments/attention_network_task/images/right_arrow.png></img><img class = ANT_img src = /static/experiments/attention_network_task/images/right_arrow.png></img><img class = ANT_img src = /static/experiments/attention_network_task/images/right_arrow.png></img></div></div>","89,71","1700","test","true","71","","right","congruent","up","spatial","51",""
"-1","-1","poldrack-single-stim","200","257057","0.0-165.0","sub-09_ses-01_1","","100","0","spatialcue","<div class = centerbox><div class = ANT_text>+</div></div><div class = centerbox><div class = ANT_up><div class = ANT_text>*</p></div></div>","none","100","test","","","","","","","","",""
"-1","-1","poldrack-single-stim","201","257468","0.0-166.0","sub-09_ses-01_1","","400","0","fixation","<div class = centerbox><div class = ANT_text>+</div></div>","none","400","test","","","","","","","","",""
"859","89","poldrack-single-stim","202","259586","0.0-167.0","sub-09_ses-01_1","","2100","0","stim","<div class = centerbox><div class = ANT_text>+</div></div><div class = ANT_up><img class = ""ANT_img first"" src = /static/experiments/attention_network_task/images/right_arrow.png></img><img class = ANT_img src = /static/experiments/attention_network_task/images/right_arrow.png></img><img class = ANT_img src = /static/experiments/attention_network_task/images/left_arrow.png></img><img class = ANT_img src = /static/experiments/attention_network_task/images/right_arrow.png></img><img class = ANT_img src = /static/experiments/attention_network_task/images/right_arrow.png></img></div></div>","89,71","1700","test","true","89","","left","incongruent","up","spatial","52",""
"-1","-1","poldrack-single-stim","203","259706","0.0-168.0","sub-09_ses-01_1","","100","0","doublecue","<div class = centerbox><div class = ANT_text>+</div></div><div class = ANT_down><div class = ANT_text>*</div></div><div class = ANT_up><div class = ANT_text>*</div><div></div>","none","100","test","","","","","","","","",""
"-1","-1","poldrack-single-stim","204","260127","0.0-169.0","sub-09_ses-01_1","","400","0","fixation","<div class = centerbox><div class = ANT_text>+</div></div>","none","400","test","","","","","","","","",""
"914","71","poldrack-single-stim","205","262246","0.0-170.0","sub-09_ses-01_1","","2100.816","0","stim","<div class = centerbox><div class = ANT_text>+</div></div><div class = ANT_up><img class = ""ANT_img first"" src = /static/experiments/attention_network_task/images/left_arrow.png></img><img class = ANT_img src = /static/experiments/attention_network_task/images/left_arrow.png></img><img class = ANT_img src = /static/experiments/attention_network_task/images/right_arrow.png></img><img class = ANT_img src = /static/experiments/attention_network_task/images/left_arrow.png></img><img class = ANT_img src = /static/experiments/attention_network_task/images/left_arrow.png></img></div></div>","89,71","1700","test","true","71","","right","incongruent","up","double","53",""
"-1","-1","poldrack-single-stim","206","262367","0.0-171.0","sub-09_ses-01_1","","100","0","spatialcue","<div class = centerbox><div class = ANT_text>+</div></div><div class = centerbox><div class = ANT_up><div class = ANT_text>*</p></div></div>","none","100","test","","","","","","","","",""
"-1","-1","poldrack-single-stim","207","262786","0.0-172.0","sub-09_ses-01_1","","400","0","fixation","<div class = centerbox><div class = ANT_text>+</div></div>","none","400","test","","","","","","","","",""
"647","89","poldrack-single-stim","208","264907","0.0-173.0","sub-09_ses-01_1","","2100.68","0","stim","<div class = centerbox><div class = ANT_text>+</div></div><div class = ANT_up><img class = ""ANT_img first"" src = /static/experiments/attention_network_task/images/left_arrow.png></img><img class = ANT_img src = /static/experiments/attention_network_task/images/left_arrow.png></img><img class = ANT_img src = /static/experiments/attention_network_task/images/left_arrow.png></img><img class = ANT_img src = /static/experiments/attention_network_task/images/left_arrow.png></img><img class = ANT_img src = /static/experiments/attention_network_task/images/left_arrow.png></img></div></div>","89,71","1700","test","true","89","","left","congruent","up","spatial","54",""
"-1","-1","poldrack-single-stim","209","265027","0.0-174.0","sub-09_ses-01_1","","100","0","spatialcue","<div class = centerbox><div class = ANT_text>+</div></div><div class = centerbox><div class = ANT_up><div class = ANT_text>*</p></div></div>","none","100","test","","","","","","","","",""
"-1","-1","poldrack-single-stim","210","265447","0.0-175.0","sub-09_ses-01_1","","400","0","fixation","<div class = centerbox><div class = ANT_text>+</div></div>","none","400","test","","","","","","","","",""
"629","89","poldrack-single-stim","211","267566","0.0-176.0","sub-09_ses-01_1","","2100","0","stim","<div class = centerbox><div class = ANT_text>+</div></div><div class = ANT_up><img class = ""ANT_img first"" src = /static/experiments/attention_network_task/images/left_arrow.png></img><img class = ANT_img src = /static/experiments/attention_network_task/images/left_arrow.png></img><img class = ANT_img src = /static/experiments/attention_network_task/images/left_arrow.png></img><img class = ANT_img src = /static/experiments/attention_network_task/images/left_arrow.png></img><img class = ANT_img src = /static/experiments/attention_network_task/images/left_arrow.png></img></div></div>","89,71","1700","test","true","89","","left","congruent","up","spatial","55",""
"-1","-1","poldrack-single-stim","212","267686","0.0-177.0","sub-09_ses-01_1","","100","0","spatialcue","<div class = centerbox><div class = ANT_text>+</div></div><div class = centerbox><div class = ANT_up><div class = ANT_text>*</p></div></div>","none","100","test","","","","","","","","",""
"-1","-1","poldrack-single-stim","213","268105","0.0-178.0","sub-09_ses-01_1","","400","0","fixation","<div class = centerbox><div class = ANT_text>+</div></div>","none","400","test","","","","","","","","",""
"618","71","poldrack-single-stim","214","270215","0.0-179.0","sub-09_ses-01_1","","2100.136","0","stim","<div class = centerbox><div class = ANT_text>+</div></div><div class = ANT_up><img class = ""ANT_img first"" src = /static/experiments/attention_network_task/images/right_arrow.png></img><img class = ANT_img src = /static/experiments/attention_network_task/images/right_arrow.png></img><img class = ANT_img src = /static/experiments/attention_network_task/images/right_arrow.png></img><img class = ANT_img src = /static/experiments/attention_network_task/images/right_arrow.png></img><img class = ANT_img src = /static/experiments/attention_network_task/images/right_arrow.png></img></div></div>","89,71","1700","test","true","71","","right","congruent","up","spatial","56",""
"-1","-1","poldrack-single-stim","215","270335","0.0-180.0","sub-09_ses-01_1","","100","0","doublecue","<div class = centerbox><div class = ANT_text>+</div></div><div class = ANT_down><div class = ANT_text>*</div></div><div class = ANT_up><div class = ANT_text>*</div><div></div>","none","100","test","","","","","","","","",""
"-1","-1","poldrack-single-stim","216","270756","0.0-181.0","sub-09_ses-01_1","","400","0","fixation","<div class = centerbox><div class = ANT_text>+</div></div>","none","400","test","","","","","","","","",""
"749","89","poldrack-single-stim","217","272876","0.0-182.0","sub-09_ses-01_1","","2100.136","0","stim","<div class = centerbox><div class = ANT_text>+</div></div><div class = ANT_down><img class = ""ANT_img first"" src = /static/experiments/attention_network_task/images/right_arrow.png></img><img class = ANT_img src = /static/experiments/attention_network_task/images/right_arrow.png></img><img class = ANT_img src = /static/experiments/attention_network_task/images/left_arrow.png></img><img class = ANT_img src = /static/experiments/attention_network_task/images/right_arrow.png></img><img class = ANT_img src = /static/experiments/attention_network_task/images/right_arrow.png></img></div></div>","89,71","1700","test","true","89","","left","incongruent","down","double","57",""
"-1","-1","poldrack-single-stim","218","272997","0.0-183.0","sub-09_ses-01_1","","100","0","doublecue","<div class = centerbox><div class = ANT_text>+</div></div><div class = ANT_down><div class = ANT_text>*</div></div><div class = ANT_up><div class = ANT_text>*</div><div></div>","none","100","test","","","","","","","","",""
"-1","-1","poldrack-single-stim","219","273417","0.0-184.0","sub-09_ses-01_1","","400","0","fixation","<div class = centerbox><div class = ANT_text>+</div></div>","none","400","test","","","","","","","","",""
"647","71","poldrack-single-stim","220","275535","0.0-185.0","sub-09_ses-01_1","","2100.136","0","stim","<div class = centerbox><div class = ANT_text>+</div></div><div class = ANT_down><img class = ""ANT_img first"" src = /static/experiments/attention_network_task/images/left_arrow.png></img><img class = ANT_img src = /static/experiments/attention_network_task/images/left_arrow.png></img><img class = ANT_img src = /static/experiments/attention_network_task/images/right_arrow.png></img><img class = ANT_img src = /static/experiments/attention_network_task/images/left_arrow.png></img><img class = ANT_img src = /static/experiments/attention_network_task/images/left_arrow.png></img></div></div>","89,71","1700","test","true","71","","right","incongruent","down","double","58",""
"-1","-1","poldrack-single-stim","221","275657","0.0-186.0","sub-09_ses-01_1","","100","0","doublecue","<div class = centerbox><div class = ANT_text>+</div></div><div class = ANT_down><div class = ANT_text>*</div></div><div class = ANT_up><div class = ANT_text>*</div><div></div>","none","100","test","","","","","","","","",""
"-1","-1","poldrack-single-stim","222","276077","0.0-187.0","sub-09_ses-01_1","","400","0","fixation","<div class = centerbox><div class = ANT_text>+</div></div>","none","400","test","","","","","","","","",""
"868","71","poldrack-single-stim","223","278197","0.0-188.0","sub-09_ses-01_1","","2100","0","stim","<div class = centerbox><div class = ANT_text>+</div></div><div class = ANT_down><img class = ""ANT_img first"" src = /static/experiments/attention_network_task/images/left_arrow.png></img><img class = ANT_img src = /static/experiments/attention_network_task/images/left_arrow.png></img><img class = ANT_img src = /static/experiments/attention_network_task/images/right_arrow.png></img><img class = ANT_img src = /static/experiments/attention_network_task/images/left_arrow.png></img><img class = ANT_img src = /static/experiments/attention_network_task/images/left_arrow.png></img></div></div>","89,71","1700","test","true","71","","right","incongruent","down","double","59",""
"-1","-1","poldrack-single-stim","224","278317","0.0-189.0","sub-09_ses-01_1","","100","0","spatialcue","<div class = centerbox><div class = ANT_text>+</div></div><div class = centerbox><div class = ANT_down><div class = ANT_text>*</p></div></div>","none","100","test","","","","","","","","",""
"-1","-1","poldrack-single-stim","225","278737","0.0-190.0","sub-09_ses-01_1","","400","0","fixation","<div class = centerbox><div class = ANT_text>+</div></div>","none","400","test","","","","","","","","",""
"1064","71","poldrack-single-stim","226","280857","0.0-191.0","sub-09_ses-01_1","","2100.136","0","stim","<div class = centerbox><div class = ANT_text>+</div></div><div class = ANT_down><img class = ""ANT_img first"" src = /static/experiments/attention_network_task/images/left_arrow.png></img><img class = ANT_img src = /static/experiments/attention_network_task/images/left_arrow.png></img><img class = ANT_img src = /static/experiments/attention_network_task/images/right_arrow.png></img><img class = ANT_img src = /static/experiments/attention_network_task/images/left_arrow.png></img><img class = ANT_img src = /static/experiments/attention_network_task/images/left_arrow.png></img></div></div>","89,71","1700","test","true","71","","right","incongruent","down","spatial","60",""
"-1","-1","poldrack-single-stim","227","280977","0.0-192.0","sub-09_ses-01_1","","100","0","spatialcue","<div class = centerbox><div class = ANT_text>+</div></div><div class = centerbox><div class = ANT_up><div class = ANT_text>*</p></div></div>","none","100","test","","","","","","","","",""
"-1","-1","poldrack-single-stim","228","281396","0.0-193.0","sub-09_ses-01_1","","400","0","fixation","<div class = centerbox><div class = ANT_text>+</div></div>","none","400","test","","","","","","","","",""
"779","89","poldrack-single-stim","229","283516","0.0-194.0","sub-09_ses-01_1","","2100.952","0","stim","<div class = centerbox><div class = ANT_text>+</div></div><div class = ANT_up><img class = ""ANT_img first"" src = /static/experiments/attention_network_task/images/right_arrow.png></img><img class = ANT_img src = /static/experiments/attention_network_task/images/right_arrow.png></img><img class = ANT_img src = /static/experiments/attention_network_task/images/left_arrow.png></img><img class = ANT_img src = /static/experiments/attention_network_task/images/right_arrow.png></img><img class = ANT_img src = /static/experiments/attention_network_task/images/right_arrow.png></img></div></div>","89,71","1700","test","true","89","","left","incongruent","up","spatial","61",""
"-1","-1","poldrack-single-stim","230","283636","0.0-195.0","sub-09_ses-01_1","","100","0","doublecue","<div class = centerbox><div class = ANT_text>+</div></div><div class = ANT_down><div class = ANT_text>*</div></div><div class = ANT_up><div class = ANT_text>*</div><div></div>","none","100","test","","","","","","","","",""
"-1","-1","poldrack-single-stim","231","284046","0.0-196.0","sub-09_ses-01_1","","400","0","fixation","<div class = centerbox><div class = ANT_text>+</div></div>","none","400","test","","","","","","","","",""
"632","89","poldrack-single-stim","232","286167","0.0-197.0","sub-09_ses-01_1","","2100.136","0","stim","<div class = centerbox><div class = ANT_text>+</div></div><div class = ANT_down><img class = ""ANT_img first"" src = /static/experiments/attention_network_task/images/right_arrow.png></img><img class = ANT_img src = /static/experiments/attention_network_task/images/right_arrow.png></img><img class = ANT_img src = /static/experiments/attention_network_task/images/left_arrow.png></img><img class = ANT_img src = /static/experiments/attention_network_task/images/right_arrow.png></img><img class = ANT_img src = /static/experiments/attention_network_task/images/right_arrow.png></img></div></div>","89,71","1700","test","true","89","","left","incongruent","down","double","62",""
