"rt","key_press","trial_type","trial_index","time_elapsed","internal_node_id","subject","text","block_duration","timing_post_trial","trial_id","responses","stimulus","possible_responses","stim_duration","exp_stage","condition","trial_num","correct_response","correct","exp_id"
"3013","13","text","0","3020","0.0-0.0","sub-14_ses-03_2","","","","","","","","","","","","","",""
"1059","89","poldrack-text","1","5089","0.0-1.0","sub-14_ses-03_2","<div class = centerbox><div style = 'font-size: 50px' class = center-text>Veuillez appuyer avec votre index</p></div>","1059","500","fmri_response_test","","","","","","","","","",""
"248","71","poldrack-text","2","5858","0.0-2.0","sub-14_ses-03_2","<div class = centerbox><div style = 'font-size: 50px' class = center-text>Veuillez appuyer avec votre majeur</p></div>","248","500","fmri_response_test","","","","","","","","","",""
"6939","","survey-text","3","13313","0.0-3.0","sub-14_ses-03_2","","","","task_setup","{""Q0"":""2"",""Q1"":""6""}","","","","","","","","",""
"5427","32","poldrack-single-stim","4","19746","0.0-4.0","sub-14_ses-03_2","","5427","500","instructions","","<div class = centerbox><p style = ""font-size:40px"" class = center-block-text>Paire cible (appuyez sur l'index):</p><p class = center-block-text><img src = ""/static/experiments/dot_pattern_expectancy/images/cue2.png"" ></img>&nbsp&nbsp&nbsp...suivi par...&nbsp&nbsp&nbsp<img src = ""/static/experiments/dot_pattern_expectancy/images/probe6.png"" ></img><br></br></p><p style = ""font-size:40px"" class = center-block-text>Sinon appuyez sur le majeur</div>","32","5427","","","","","",""
"-1","-1","poldrack-single-stim","5","20789","0.0-5.0-0.0","sub-14_ses-03_2","","500","0","cue","","<div class = centerbox><div class = img-container><img src = ""/static/experiments/dot_pattern_expectancy/images/cue3.png""</img></div></div>","none","500","practice","BX","0","","",""
"-1","-1","poldrack-single-stim","6","22812","0.0-5.0-1.0","sub-14_ses-03_2","","2000","0","fixation","","<div class = centerbox><div class = fixation>+</div></div>","none","2000","practice","","","","",""
"-1","-1","poldrack-single-stim","7","24535","0.0-5.0-2.0","sub-14_ses-03_2","","1700","0","probe","","<div class = centerbox><div class = img-container><img src = ""/static/experiments/dot_pattern_expectancy/images/probe6.png""</img></div></div>","89,71","500","practice","BX","0","71","false",""
"-1","-1","poldrack-single-stim","8","25055","0.0-5.0-3.0","sub-14_ses-03_2","","500","0","feedback","","<div class = centerbox><div class = center-text>Repondre plus rapidement!</p></div>","none","500","practice","","1","","",""
"-1","-1","poldrack-single-stim","9","25575","0.0-5.0-4.0","sub-14_ses-03_2","","500","0","cue","","<div class = centerbox><div class = img-container><img src = ""/static/experiments/dot_pattern_expectancy/images/cue4.png""</img></div></div>","none","500","practice","BY","1","","",""
"-1","-1","poldrack-single-stim","10","27595","0.0-5.0-5.0","sub-14_ses-03_2","","2000","0","fixation","","<div class = centerbox><div class = fixation>+</div></div>","none","2000","practice","","","","",""
"250","71","poldrack-single-stim","11","29715","0.0-5.0-6.0","sub-14_ses-03_2","","2100","0","probe","","<div class = centerbox><div class = img-container><img src = ""/static/experiments/dot_pattern_expectancy/images/probe5.png""</img></div></div>","89,71","500","practice","BY","1","71","true",""
"-1","-1","poldrack-single-stim","12","30235","0.0-5.0-7.0","sub-14_ses-03_2","","500","0","feedback","","<div class = centerbox><div style=""color:#4FE829""; class = center-text>Correct!</div></div>","none","500","practice","","2","","",""
"-1","-1","poldrack-single-stim","13","30757","0.0-5.0-8.0","sub-14_ses-03_2","","500","0","cue","","<div class = centerbox><div class = img-container><img src = ""/static/experiments/dot_pattern_expectancy/images/cue2.png""</img></div></div>","none","500","practice","AY","2","","",""
"-1","-1","poldrack-single-stim","14","32764","0.0-5.0-9.0","sub-14_ses-03_2","","2000","0","fixation","","<div class = centerbox><div class = fixation>+</div></div>","none","2000","practice","","","","",""
"671","71","poldrack-single-stim","15","34284","0.0-5.0-10.0","sub-14_ses-03_2","","1500","0","probe","","<div class = centerbox><div class = img-container><img src = ""/static/experiments/dot_pattern_expectancy/images/probe1.png""</img></div></div>","89,71","500","practice","AY","2","71","true",""
"-1","-1","poldrack-single-stim","16","34805","0.0-5.0-11.0","sub-14_ses-03_2","","500","0","feedback","","<div class = centerbox><div style=""color:#4FE829""; class = center-text>Correct!</div></div>","none","500","practice","","3","","",""
"-1","-1","poldrack-single-stim","17","35314","0.0-5.0-12.0","sub-14_ses-03_2","","500","0","cue","","<div class = centerbox><div class = img-container><img src = ""/static/experiments/dot_pattern_expectancy/images/cue2.png""</img></div></div>","none","500","practice","AX","3","","",""
"-1","-1","poldrack-single-stim","18","37325","0.0-5.0-13.0","sub-14_ses-03_2","","2000","0","fixation","","<div class = centerbox><div class = fixation>+</div></div>","none","2000","practice","","","","",""
"634","89","poldrack-single-stim","19","38844","0.0-5.0-14.0","sub-14_ses-03_2","","1500","0","probe","","<div class = centerbox><div class = img-container><img src = ""/static/experiments/dot_pattern_expectancy/images/probe6.png""</img></div></div>","89,71","500","practice","AX","3","89","true",""
"-1","-1","poldrack-single-stim","20","39366","0.0-5.0-15.0","sub-14_ses-03_2","","500","0","feedback","","<div class = centerbox><div style=""color:#4FE829""; class = center-text>Correct!</div></div>","none","500","practice","","4","","",""
"-1","-1","poldrack-single-stim","21","39883","0.0-5.0-16.0","sub-14_ses-03_2","","500","0","cue","","<div class = centerbox><div class = img-container><img src = ""/static/experiments/dot_pattern_expectancy/images/cue2.png""</img></div></div>","none","500","practice","AX","4","","",""
"-1","-1","poldrack-single-stim","22","41904","0.0-5.0-17.0","sub-14_ses-03_2","","2000","0","fixation","","<div class = centerbox><div class = fixation>+</div></div>","none","2000","practice","","","","",""
"450","71","poldrack-single-stim","23","43824","0.0-5.0-18.0","sub-14_ses-03_2","","1900","0","probe","","<div class = centerbox><div class = img-container><img src = ""/static/experiments/dot_pattern_expectancy/images/probe6.png""</img></div></div>","89,71","500","practice","AX","4","89","false",""
"-1","-1","poldrack-single-stim","24","44333","0.0-5.0-19.0","sub-14_ses-03_2","","500","0","feedback","","<div class = centerbox><div style=""color:red""; class = center-text>Incorrect</div></div>","none","500","practice","","5","","",""
"-1","-1","poldrack-single-stim","25","44854","0.0-5.0-20.0","sub-14_ses-03_2","","500","0","cue","","<div class = centerbox><div class = img-container><img src = ""/static/experiments/dot_pattern_expectancy/images/cue2.png""</img></div></div>","none","500","practice","AX","5","","",""
"-1","-1","poldrack-single-stim","26","46864","0.0-5.0-21.0","sub-14_ses-03_2","","2000","0","fixation","","<div class = centerbox><div class = fixation>+</div></div>","none","2000","practice","","","","",""
"637","89","poldrack-single-stim","27","48384","0.0-5.0-22.0","sub-14_ses-03_2","","1500","0","probe","","<div class = centerbox><div class = img-container><img src = ""/static/experiments/dot_pattern_expectancy/images/probe6.png""</img></div></div>","89,71","500","practice","AX","5","89","true",""
"-1","-1","poldrack-single-stim","28","48905","0.0-5.0-23.0","sub-14_ses-03_2","","500","0","feedback","","<div class = centerbox><div style=""color:#4FE829""; class = center-text>Correct!</div></div>","none","500","practice","","6","","",""
"-1","-1","poldrack-single-stim","29","49416","0.0-5.0-24.0","sub-14_ses-03_2","","500","0","cue","","<div class = centerbox><div class = img-container><img src = ""/static/experiments/dot_pattern_expectancy/images/cue2.png""</img></div></div>","none","500","practice","AX","6","","",""
"-1","-1","poldrack-single-stim","30","51424","0.0-5.0-25.0","sub-14_ses-03_2","","2000","0","fixation","","<div class = centerbox><div class = fixation>+</div></div>","none","2000","practice","","","","",""
"579","89","poldrack-single-stim","31","52944","0.0-5.0-26.0","sub-14_ses-03_2","","1500","0","probe","","<div class = centerbox><div class = img-container><img src = ""/static/experiments/dot_pattern_expectancy/images/probe6.png""</img></div></div>","89,71","500","practice","AX","6","89","true",""
"-1","-1","poldrack-single-stim","32","53464","0.0-5.0-27.0","sub-14_ses-03_2","","500","0","feedback","","<div class = centerbox><div style=""color:#4FE829""; class = center-text>Correct!</div></div>","none","500","practice","","7","","",""
"-1","-1","poldrack-single-stim","33","53985","0.0-5.0-28.0","sub-14_ses-03_2","","500","0","cue","","<div class = centerbox><div class = img-container><img src = ""/static/experiments/dot_pattern_expectancy/images/cue2.png""</img></div></div>","none","500","practice","AY","7","","",""
"-1","-1","poldrack-single-stim","34","56004","0.0-5.0-29.0","sub-14_ses-03_2","","2000","0","fixation","","<div class = centerbox><div class = fixation>+</div></div>","none","2000","practice","","","","",""
"743","71","poldrack-single-stim","35","58324","0.0-5.0-30.0","sub-14_ses-03_2","","2300","0","probe","","<div class = centerbox><div class = img-container><img src = ""/static/experiments/dot_pattern_expectancy/images/probe2.png""</img></div></div>","89,71","500","practice","AY","7","71","true",""
"-1","-1","poldrack-single-stim","36","58844","0.0-5.0-31.0","sub-14_ses-03_2","","500","0","feedback","","<div class = centerbox><div style=""color:#4FE829""; class = center-text>Correct!</div></div>","none","500","practice","","8","","",""
"-1","-1","poldrack-single-stim","37","59365","0.0-5.0-32.0","sub-14_ses-03_2","","500","0","cue","","<div class = centerbox><div class = img-container><img src = ""/static/experiments/dot_pattern_expectancy/images/cue5.png""</img></div></div>","none","500","practice","BY","8","","",""
"-1","-1","poldrack-single-stim","38","61385","0.0-5.0-33.0","sub-14_ses-03_2","","2000","0","fixation","","<div class = centerbox><div class = fixation>+</div></div>","none","2000","practice","","","","",""
"336","71","poldrack-single-stim","39","63904","0.0-5.0-34.0","sub-14_ses-03_2","","2500","0","probe","","<div class = centerbox><div class = img-container><img src = ""/static/experiments/dot_pattern_expectancy/images/probe3.png""</img></div></div>","89,71","500","practice","BY","8","71","true",""
"-1","-1","poldrack-single-stim","40","64425","0.0-5.0-35.0","sub-14_ses-03_2","","500","0","feedback","","<div class = centerbox><div style=""color:#4FE829""; class = center-text>Correct!</div></div>","none","500","practice","","9","","",""
"-1","-1","poldrack-single-stim","41","64946","0.0-5.0-36.0","sub-14_ses-03_2","","500","0","cue","","<div class = centerbox><div class = img-container><img src = ""/static/experiments/dot_pattern_expectancy/images/cue4.png""</img></div></div>","none","500","practice","BX","9","","",""
"-1","-1","poldrack-single-stim","42","66963","0.0-5.0-37.0","sub-14_ses-03_2","","2000","0","fixation","","<div class = centerbox><div class = fixation>+</div></div>","none","2000","practice","","","","",""
"389","71","poldrack-single-stim","43","68484","0.0-5.0-38.0","sub-14_ses-03_2","","1500","0","probe","","<div class = centerbox><div class = img-container><img src = ""/static/experiments/dot_pattern_expectancy/images/probe6.png""</img></div></div>","89,71","500","practice","BX","9","71","true",""
"-1","-1","poldrack-single-stim","44","69005","0.0-5.0-39.0","sub-14_ses-03_2","","500","0","feedback","","<div class = centerbox><div style=""color:#4FE829""; class = center-text>Correct!</div></div>","none","500","practice","","10","","",""
"6878","32","poldrack-text","45","75891","0.0-6.0","sub-14_ses-03_2","<div class = centerbox><div  class = center-text>Scanner Setup</div></div>","6878","0","fmri_scanner_wait","","","","","","","","","",""
"55287","84","poldrack-text","46","131181","0.0-7.0","sub-14_ses-03_2","<div class = centerbox><div style='color:red'; class = center-text>+</div></div>","55287","0","fmri_trigger_wait","","","","","","","","","",""
"-1","-1","poldrack-single-stim","47","132206","0.0-8.0","sub-14_ses-03_2","","1000","0","fmri_buffer","","","none","1000","","","","","",""
"-1","-1","poldrack-single-stim","48","133725","0.0-9.0","sub-14_ses-03_2","","1500","500","test_start_block","","<div class = centerbox><div class = center-text>Preparez-vous!</p></div>","none","1500","","","","","",""
"-1","-1","poldrack-single-stim","49","134763","0.0-10.0","sub-14_ses-03_2","","500","0","cue","","<div class = centerbox><div class = img-container><img src = ""/static/experiments/dot_pattern_expectancy/images/cue3.png""</img></div></div>","none","500","test","BY","0","","",""
"-1","-1","poldrack-single-stim","50","136775","0.0-11.0","sub-14_ses-03_2","","2000","0","fixation","","<div class = centerbox><div class = fixation>+</div></div>","none","2000","test","","","","",""
"437","71","poldrack-single-stim","51","138434","0.0-12.0","sub-14_ses-03_2","","1636","0","probe","","<div class = centerbox><div class = img-container><img src = ""/static/experiments/dot_pattern_expectancy/images/probe2.png""</img></div></div>","89,71","500","test","BY","0","71","true",""
"-1","-1","poldrack-single-stim","52","138955","0.0-13.0","sub-14_ses-03_2","","500","0","cue","","<div class = centerbox><div class = img-container><img src = ""/static/experiments/dot_pattern_expectancy/images/cue2.png""</img></div></div>","none","500","test","AY","1","","",""
"-1","-1","poldrack-single-stim","53","140975","0.0-14.0","sub-14_ses-03_2","","2000","0","fixation","","<div class = centerbox><div class = fixation>+</div></div>","none","2000","test","","","","",""
"657","71","poldrack-single-stim","54","142494","0.0-15.0","sub-14_ses-03_2","","1500","0","probe","","<div class = centerbox><div class = img-container><img src = ""/static/experiments/dot_pattern_expectancy/images/probe5.png""</img></div></div>","89,71","500","test","AY","1","71","true",""
"-1","-1","poldrack-single-stim","55","143015","0.0-16.0","sub-14_ses-03_2","","500","0","cue","","<div class = centerbox><div class = img-container><img src = ""/static/experiments/dot_pattern_expectancy/images/cue2.png""</img></div></div>","none","500","test","AX","2","","",""
"-1","-1","poldrack-single-stim","56","145037","0.0-17.0","sub-14_ses-03_2","","2000","0","fixation","","<div class = centerbox><div class = fixation>+</div></div>","none","2000","test","","","","",""
"839","89","poldrack-single-stim","57","147103","0.0-18.0","sub-14_ses-03_2","","2044","0","probe","","<div class = centerbox><div class = img-container><img src = ""/static/experiments/dot_pattern_expectancy/images/probe6.png""</img></div></div>","89,71","500","test","AX","2","89","true",""
"-1","-1","poldrack-single-stim","58","147626","0.0-19.0","sub-14_ses-03_2","","500","0","cue","","<div class = centerbox><div class = img-container><img src = ""/static/experiments/dot_pattern_expectancy/images/cue3.png""</img></div></div>","none","500","test","BY","3","","",""
"-1","-1","poldrack-single-stim","59","149634","0.0-20.0","sub-14_ses-03_2","","2000","0","fixation","","<div class = centerbox><div class = fixation>+</div></div>","none","2000","test","","","","",""
"245","71","poldrack-single-stim","60","151414","0.0-21.0","sub-14_ses-03_2","","1772","0","probe","","<div class = centerbox><div class = img-container><img src = ""/static/experiments/dot_pattern_expectancy/images/probe2.png""</img></div></div>","89,71","500","test","BY","3","71","true",""
"-1","-1","poldrack-single-stim","61","151935","0.0-22.0","sub-14_ses-03_2","","500","0","cue","","<div class = centerbox><div class = img-container><img src = ""/static/experiments/dot_pattern_expectancy/images/cue1.png""</img></div></div>","none","500","test","BX","4","","",""
"-1","-1","poldrack-single-stim","62","153955","0.0-23.0","sub-14_ses-03_2","","2000","0","fixation","","<div class = centerbox><div class = fixation>+</div></div>","none","2000","test","","","","",""
"340","71","poldrack-single-stim","63","155594","0.0-24.0","sub-14_ses-03_2","","1636","0","probe","","<div class = centerbox><div class = img-container><img src = ""/static/experiments/dot_pattern_expectancy/images/probe6.png""</img></div></div>","89,71","500","test","BX","4","71","true",""
"-1","-1","poldrack-single-stim","64","156115","0.0-25.0","sub-14_ses-03_2","","500","0","cue","","<div class = centerbox><div class = img-container><img src = ""/static/experiments/dot_pattern_expectancy/images/cue2.png""</img></div></div>","none","500","test","AX","5","","",""
"-1","-1","poldrack-single-stim","65","158124","0.0-26.0","sub-14_ses-03_2","","2000","0","fixation","","<div class = centerbox><div class = fixation>+</div></div>","none","2000","test","","","","",""
"425","89","poldrack-single-stim","66","159764","0.0-27.0","sub-14_ses-03_2","","1636","0","probe","","<div class = centerbox><div class = img-container><img src = ""/static/experiments/dot_pattern_expectancy/images/probe6.png""</img></div></div>","89,71","500","test","AX","5","89","true",""
"-1","-1","poldrack-single-stim","67","160284","0.0-28.0","sub-14_ses-03_2","","500","0","cue","","<div class = centerbox><div class = img-container><img src = ""/static/experiments/dot_pattern_expectancy/images/cue2.png""</img></div></div>","none","500","test","AX","6","","",""
"-1","-1","poldrack-single-stim","68","162295","0.0-29.0","sub-14_ses-03_2","","2000","0","fixation","","<div class = centerbox><div class = fixation>+</div></div>","none","2000","test","","","","",""
"688","89","poldrack-single-stim","69","163813","0.0-30.0","sub-14_ses-03_2","","1500","0","probe","","<div class = centerbox><div class = img-container><img src = ""/static/experiments/dot_pattern_expectancy/images/probe6.png""</img></div></div>","89,71","500","test","AX","6","89","true",""
"-1","-1","poldrack-single-stim","70","164324","0.0-31.0","sub-14_ses-03_2","","500","0","cue","","<div class = centerbox><div class = img-container><img src = ""/static/experiments/dot_pattern_expectancy/images/cue2.png""</img></div></div>","none","500","test","AX","7","","",""
"-1","-1","poldrack-single-stim","71","166344","0.0-32.0","sub-14_ses-03_2","","2000","0","fixation","","<div class = centerbox><div class = fixation>+</div></div>","none","2000","test","","","","",""
"486","89","poldrack-single-stim","72","167863","0.0-33.0","sub-14_ses-03_2","","1500","0","probe","","<div class = centerbox><div class = img-container><img src = ""/static/experiments/dot_pattern_expectancy/images/probe6.png""</img></div></div>","89,71","500","test","AX","7","89","true",""
"-1","-1","poldrack-single-stim","73","168383","0.0-34.0","sub-14_ses-03_2","","500","0","cue","","<div class = centerbox><div class = img-container><img src = ""/static/experiments/dot_pattern_expectancy/images/cue2.png""</img></div></div>","none","500","test","AY","8","","",""
"-1","-1","poldrack-single-stim","74","170405","0.0-35.0","sub-14_ses-03_2","","2000","0","fixation","","<div class = centerbox><div class = fixation>+</div></div>","none","2000","test","","","","",""
"676","71","poldrack-single-stim","75","172464","0.0-36.0","sub-14_ses-03_2","","2044","0","probe","","<div class = centerbox><div class = img-container><img src = ""/static/experiments/dot_pattern_expectancy/images/probe5.png""</img></div></div>","89,71","500","test","AY","8","71","true",""
"-1","-1","poldrack-single-stim","76","172983","0.0-37.0","sub-14_ses-03_2","","500","0","cue","","<div class = centerbox><div class = img-container><img src = ""/static/experiments/dot_pattern_expectancy/images/cue2.png""</img></div></div>","none","500","test","AX","9","","",""
"-1","-1","poldrack-single-stim","77","175003","0.0-38.0","sub-14_ses-03_2","","2000","0","fixation","","<div class = centerbox><div class = fixation>+</div></div>","none","2000","test","","","","",""
"581","89","poldrack-single-stim","78","177466","0.0-39.0","sub-14_ses-03_2","","2452","0","probe","","<div class = centerbox><div class = img-container><img src = ""/static/experiments/dot_pattern_expectancy/images/probe6.png""</img></div></div>","89,71","500","test","AX","9","89","true",""
"-1","-1","poldrack-single-stim","79","177986","0.0-40.0","sub-14_ses-03_2","","500","0","cue","","<div class = centerbox><div class = img-container><img src = ""/static/experiments/dot_pattern_expectancy/images/cue2.png""</img></div></div>","none","500","test","AX","10","","",""
"-1","-1","poldrack-single-stim","80","179993","0.0-41.0","sub-14_ses-03_2","","2000","0","fixation","","<div class = centerbox><div class = fixation>+</div></div>","none","2000","test","","","","",""
"545","89","poldrack-single-stim","81","181905","0.0-42.0","sub-14_ses-03_2","","1908","0","probe","","<div class = centerbox><div class = img-container><img src = ""/static/experiments/dot_pattern_expectancy/images/probe6.png""</img></div></div>","89,71","500","test","AX","10","89","true",""
"-1","-1","poldrack-single-stim","82","182409","0.0-43.0","sub-14_ses-03_2","","500","0","cue","","<div class = centerbox><div class = img-container><img src = ""/static/experiments/dot_pattern_expectancy/images/cue2.png""</img></div></div>","none","500","test","AX","11","","",""
"-1","-1","poldrack-single-stim","83","184425","0.0-44.0","sub-14_ses-03_2","","2000","0","fixation","","<div class = centerbox><div class = fixation>+</div></div>","none","2000","test","","","","",""
"591","89","poldrack-single-stim","84","185948","0.0-45.0","sub-14_ses-03_2","","1500","0","probe","","<div class = centerbox><div class = img-container><img src = ""/static/experiments/dot_pattern_expectancy/images/probe6.png""</img></div></div>","89,71","500","test","AX","11","89","true",""
"-1","-1","poldrack-single-stim","85","186466","0.0-46.0","sub-14_ses-03_2","","500","0","cue","","<div class = centerbox><div class = img-container><img src = ""/static/experiments/dot_pattern_expectancy/images/cue2.png""</img></div></div>","none","500","test","AX","12","","",""
"-1","-1","poldrack-single-stim","86","188486","0.0-47.0","sub-14_ses-03_2","","2000","0","fixation","","<div class = centerbox><div class = fixation>+</div></div>","none","2000","test","","","","",""
"478","89","poldrack-single-stim","87","190406","0.0-48.0","sub-14_ses-03_2","","1908","0","probe","","<div class = centerbox><div class = img-container><img src = ""/static/experiments/dot_pattern_expectancy/images/probe6.png""</img></div></div>","89,71","500","test","AX","12","89","true",""
"-1","-1","poldrack-single-stim","88","190926","0.0-49.0","sub-14_ses-03_2","","500","0","cue","","<div class = centerbox><div class = img-container><img src = ""/static/experiments/dot_pattern_expectancy/images/cue1.png""</img></div></div>","none","500","test","BX","13","","",""
"-1","-1","poldrack-single-stim","89","192948","0.0-50.0","sub-14_ses-03_2","","2000","0","fixation","","<div class = centerbox><div class = fixation>+</div></div>","none","2000","test","","","","",""
"-1","-1","poldrack-single-stim","90","195135","0.0-51.0","sub-14_ses-03_2","","2180","0","probe","","<div class = centerbox><div class = img-container><img src = ""/static/experiments/dot_pattern_expectancy/images/probe6.png""</img></div></div>","89,71","500","test","BX","13","71","false",""
"-1","-1","poldrack-single-stim","91","195657","0.0-52.0","sub-14_ses-03_2","","500","0","cue","","<div class = centerbox><div class = img-container><img src = ""/static/experiments/dot_pattern_expectancy/images/cue2.png""</img></div></div>","none","500","test","AX","14","","",""
"-1","-1","poldrack-single-stim","92","197665","0.0-53.0","sub-14_ses-03_2","","2000","0","fixation","","<div class = centerbox><div class = fixation>+</div></div>","none","2000","test","","","","",""
"496","89","poldrack-single-stim","93","199173","0.0-54.0","sub-14_ses-03_2","","1500","0","probe","","<div class = centerbox><div class = img-container><img src = ""/static/experiments/dot_pattern_expectancy/images/probe6.png""</img></div></div>","89,71","500","test","AX","14","89","true",""
"-1","-1","poldrack-single-stim","94","199696","0.0-55.0","sub-14_ses-03_2","","500","0","cue","","<div class = centerbox><div class = img-container><img src = ""/static/experiments/dot_pattern_expectancy/images/cue5.png""</img></div></div>","none","500","test","BY","15","","",""
"-1","-1","poldrack-single-stim","95","201705","0.0-56.0","sub-14_ses-03_2","","2000","0","fixation","","<div class = centerbox><div class = fixation>+</div></div>","none","2000","test","","","","",""
"473","71","poldrack-single-stim","96","203625","0.0-57.0","sub-14_ses-03_2","","1908","0","probe","","<div class = centerbox><div class = img-container><img src = ""/static/experiments/dot_pattern_expectancy/images/probe1.png""</img></div></div>","89,71","500","test","BY","15","71","true",""
"-1","-1","poldrack-single-stim","97","204145","0.0-58.0","sub-14_ses-03_2","","500","0","cue","","<div class = centerbox><div class = img-container><img src = ""/static/experiments/dot_pattern_expectancy/images/cue1.png""</img></div></div>","none","500","test","BX","16","","",""
"-1","-1","poldrack-single-stim","98","206166","0.0-59.0","sub-14_ses-03_2","","2000","0","fixation","","<div class = centerbox><div class = fixation>+</div></div>","none","2000","test","","","","",""
"551","71","poldrack-single-stim","99","208493","0.0-60.0","sub-14_ses-03_2","","2316","0","probe","","<div class = centerbox><div class = img-container><img src = ""/static/experiments/dot_pattern_expectancy/images/probe6.png""</img></div></div>","89,71","500","test","BX","16","71","true",""
"-1","-1","poldrack-single-stim","100","209015","0.0-61.0","sub-14_ses-03_2","","500","0","cue","","<div class = centerbox><div class = img-container><img src = ""/static/experiments/dot_pattern_expectancy/images/cue2.png""</img></div></div>","none","500","test","AY","17","","",""
"-1","-1","poldrack-single-stim","101","211035","0.0-62.0","sub-14_ses-03_2","","2000","0","fixation","","<div class = centerbox><div class = fixation>+</div></div>","none","2000","test","","","","",""
"792","71","poldrack-single-stim","102","213375","0.0-63.0","sub-14_ses-03_2","","2316","0","probe","","<div class = centerbox><div class = img-container><img src = ""/static/experiments/dot_pattern_expectancy/images/probe4.png""</img></div></div>","89,71","500","test","AY","17","71","true",""
"-1","-1","poldrack-single-stim","103","213895","0.0-64.0","sub-14_ses-03_2","","500","0","cue","","<div class = centerbox><div class = img-container><img src = ""/static/experiments/dot_pattern_expectancy/images/cue6.png""</img></div></div>","none","500","test","BX","18","","",""
"-1","-1","poldrack-single-stim","104","215914","0.0-65.0","sub-14_ses-03_2","","2000","0","fixation","","<div class = centerbox><div class = fixation>+</div></div>","none","2000","test","","","","",""
"1091","71","poldrack-single-stim","105","217564","0.0-66.0","sub-14_ses-03_2","","1636","0","probe","","<div class = centerbox><div class = img-container><img src = ""/static/experiments/dot_pattern_expectancy/images/probe6.png""</img></div></div>","89,71","500","test","BX","18","71","true",""
"-1","-1","poldrack-single-stim","106","218084","0.0-67.0","sub-14_ses-03_2","","500","0","cue","","<div class = centerbox><div class = img-container><img src = ""/static/experiments/dot_pattern_expectancy/images/cue2.png""</img></div></div>","none","500","test","AY","19","","",""
"-1","-1","poldrack-single-stim","107","220104","0.0-68.0","sub-14_ses-03_2","","2000","0","fixation","","<div class = centerbox><div class = fixation>+</div></div>","none","2000","test","","","","",""
"1105","71","poldrack-single-stim","108","221622","0.0-69.0","sub-14_ses-03_2","","1500","0","probe","","<div class = centerbox><div class = img-container><img src = ""/static/experiments/dot_pattern_expectancy/images/probe5.png""</img></div></div>","89,71","500","test","AY","19","71","true",""
"-1","-1","poldrack-single-stim","109","222145","0.0-70.0","sub-14_ses-03_2","","500","0","cue","","<div class = centerbox><div class = img-container><img src = ""/static/experiments/dot_pattern_expectancy/images/cue1.png""</img></div></div>","none","500","test","BY","20","","",""
"-1","-1","poldrack-single-stim","110","224166","0.0-71.0","sub-14_ses-03_2","","2000","0","fixation","","<div class = centerbox><div class = fixation>+</div></div>","none","2000","test","","","","",""
"368","71","poldrack-single-stim","111","226084","0.0-72.0","sub-14_ses-03_2","","1908","0","probe","","<div class = centerbox><div class = img-container><img src = ""/static/experiments/dot_pattern_expectancy/images/probe1.png""</img></div></div>","89,71","500","test","BY","20","71","true",""
"-1","-1","poldrack-single-stim","112","226604","0.0-73.0","sub-14_ses-03_2","","500","0","cue","","<div class = centerbox><div class = img-container><img src = ""/static/experiments/dot_pattern_expectancy/images/cue2.png""</img></div></div>","none","500","test","AX","21","","",""
"-1","-1","poldrack-single-stim","113","228624","0.0-74.0","sub-14_ses-03_2","","2000","0","fixation","","<div class = centerbox><div class = fixation>+</div></div>","none","2000","test","","","","",""
"404","89","poldrack-single-stim","114","230144","0.0-75.0","sub-14_ses-03_2","","1500","0","probe","","<div class = centerbox><div class = img-container><img src = ""/static/experiments/dot_pattern_expectancy/images/probe6.png""</img></div></div>","89,71","500","test","AX","21","89","true",""
"-1","-1","poldrack-single-stim","115","230665","0.0-76.0","sub-14_ses-03_2","","500","0","cue","","<div class = centerbox><div class = img-container><img src = ""/static/experiments/dot_pattern_expectancy/images/cue2.png""</img></div></div>","none","500","test","AY","22","","",""
"-1","-1","poldrack-single-stim","116","232684","0.0-77.0","sub-14_ses-03_2","","2000","0","fixation","","<div class = centerbox><div class = fixation>+</div></div>","none","2000","test","","","","",""
"724","71","poldrack-single-stim","117","235004","0.0-78.0","sub-14_ses-03_2","","2316","0","probe","","<div class = centerbox><div class = img-container><img src = ""/static/experiments/dot_pattern_expectancy/images/probe1.png""</img></div></div>","89,71","500","test","AY","22","71","true",""
"-1","-1","poldrack-single-stim","118","235524","0.0-79.0","sub-14_ses-03_2","","500","0","cue","","<div class = centerbox><div class = img-container><img src = ""/static/experiments/dot_pattern_expectancy/images/cue2.png""</img></div></div>","none","500","test","AX","23","","",""
"-1","-1","poldrack-single-stim","119","237549","0.0-80.0","sub-14_ses-03_2","","2000","0","fixation","","<div class = centerbox><div class = fixation>+</div></div>","none","2000","test","","","","",""
"958","89","poldrack-single-stim","120","239067","0.0-81.0","sub-14_ses-03_2","","1500","0","probe","","<div class = centerbox><div class = img-container><img src = ""/static/experiments/dot_pattern_expectancy/images/probe6.png""</img></div></div>","89,71","500","test","AX","23","89","true",""
"-1","-1","poldrack-single-stim","121","239588","0.0-82.0","sub-14_ses-03_2","","500","0","cue","","<div class = centerbox><div class = img-container><img src = ""/static/experiments/dot_pattern_expectancy/images/cue2.png""</img></div></div>","none","500","test","AY","24","","",""
"-1","-1","poldrack-single-stim","122","241609","0.0-83.0","sub-14_ses-03_2","","2000","0","fixation","","<div class = centerbox><div class = fixation>+</div></div>","none","2000","test","","","","",""
"817","71","poldrack-single-stim","123","244345","0.0-84.0","sub-14_ses-03_2","","2724","0","probe","","<div class = centerbox><div class = img-container><img src = ""/static/experiments/dot_pattern_expectancy/images/probe1.png""</img></div></div>","89,71","500","test","AY","24","71","true",""
"-1","-1","poldrack-single-stim","124","244865","0.0-85.0","sub-14_ses-03_2","","500","0","cue","","<div class = centerbox><div class = img-container><img src = ""/static/experiments/dot_pattern_expectancy/images/cue2.png""</img></div></div>","none","500","test","AX","25","","",""
"-1","-1","poldrack-single-stim","125","246884","0.0-86.0","sub-14_ses-03_2","","2000","0","fixation","","<div class = centerbox><div class = fixation>+</div></div>","none","2000","test","","","","",""
"650","89","poldrack-single-stim","126","248404","0.0-87.0","sub-14_ses-03_2","","1500","0","probe","","<div class = centerbox><div class = img-container><img src = ""/static/experiments/dot_pattern_expectancy/images/probe6.png""</img></div></div>","89,71","500","test","AX","25","89","true",""
"-1","-1","poldrack-single-stim","127","248925","0.0-88.0","sub-14_ses-03_2","","500","0","cue","","<div class = centerbox><div class = img-container><img src = ""/static/experiments/dot_pattern_expectancy/images/cue2.png""</img></div></div>","none","500","test","AX","26","","",""
"-1","-1","poldrack-single-stim","128","250946","0.0-89.0","sub-14_ses-03_2","","2000","0","fixation","","<div class = centerbox><div class = fixation>+</div></div>","none","2000","test","","","","",""
"591","89","poldrack-single-stim","129","252606","0.0-90.0","sub-14_ses-03_2","","1636","0","probe","","<div class = centerbox><div class = img-container><img src = ""/static/experiments/dot_pattern_expectancy/images/probe6.png""</img></div></div>","89,71","500","test","AX","26","89","true",""
"-1","-1","poldrack-single-stim","130","253125","0.0-91.0","sub-14_ses-03_2","","500","0","cue","","<div class = centerbox><div class = img-container><img src = ""/static/experiments/dot_pattern_expectancy/images/cue2.png""</img></div></div>","none","500","test","AX","27","","",""
"-1","-1","poldrack-single-stim","131","255146","0.0-92.0","sub-14_ses-03_2","","2000","0","fixation","","<div class = centerbox><div class = fixation>+</div></div>","none","2000","test","","","","",""
"654","89","poldrack-single-stim","132","256793","0.0-93.0","sub-14_ses-03_2","","1636","0","probe","","<div class = centerbox><div class = img-container><img src = ""/static/experiments/dot_pattern_expectancy/images/probe6.png""</img></div></div>","89,71","500","test","AX","27","89","true",""
"-1","-1","poldrack-single-stim","133","257317","0.0-94.0","sub-14_ses-03_2","","500","0","cue","","<div class = centerbox><div class = img-container><img src = ""/static/experiments/dot_pattern_expectancy/images/cue2.png""</img></div></div>","none","500","test","AX","28","","",""
"-1","-1","poldrack-single-stim","134","259326","0.0-95.0","sub-14_ses-03_2","","2000","0","fixation","","<div class = centerbox><div class = fixation>+</div></div>","none","2000","test","","","","",""
"670","89","poldrack-single-stim","135","261125","0.0-96.0","sub-14_ses-03_2","","1772","0","probe","","<div class = centerbox><div class = img-container><img src = ""/static/experiments/dot_pattern_expectancy/images/probe6.png""</img></div></div>","89,71","500","test","AX","28","89","true",""
"-1","-1","poldrack-single-stim","136","261645","0.0-97.0","sub-14_ses-03_2","","500","0","cue","","<div class = centerbox><div class = img-container><img src = ""/static/experiments/dot_pattern_expectancy/images/cue3.png""</img></div></div>","none","500","test","BY","29","","",""
"-1","-1","poldrack-single-stim","137","263656","0.0-98.0","sub-14_ses-03_2","","2000","0","fixation","","<div class = centerbox><div class = fixation>+</div></div>","none","2000","test","","","","",""
"387","71","poldrack-single-stim","138","265435","0.0-99.0","sub-14_ses-03_2","","1772","0","probe","","<div class = centerbox><div class = img-container><img src = ""/static/experiments/dot_pattern_expectancy/images/probe2.png""</img></div></div>","89,71","500","test","BY","29","71","true",""
"-1","-1","poldrack-single-stim","139","265955","0.0-100.0","sub-14_ses-03_2","","500","0","cue","","<div class = centerbox><div class = img-container><img src = ""/static/experiments/dot_pattern_expectancy/images/cue2.png""</img></div></div>","none","500","test","AX","30","","",""
"-1","-1","poldrack-single-stim","140","267974","0.0-101.0","sub-14_ses-03_2","","2000","0","fixation","","<div class = centerbox><div class = fixation>+</div></div>","none","2000","test","","","","",""
"624","89","poldrack-single-stim","141","269493","0.0-102.0","sub-14_ses-03_2","","1500","0","probe","","<div class = centerbox><div class = img-container><img src = ""/static/experiments/dot_pattern_expectancy/images/probe6.png""</img></div></div>","89,71","500","test","AX","30","89","true",""
"-1","-1","poldrack-single-stim","142","270014","0.0-103.0","sub-14_ses-03_2","","500","0","cue","","<div class = centerbox><div class = img-container><img src = ""/static/experiments/dot_pattern_expectancy/images/cue3.png""</img></div></div>","none","500","test","BY","31","","",""
"-1","-1","poldrack-single-stim","143","272033","0.0-104.0","sub-14_ses-03_2","","2000","0","fixation","","<div class = centerbox><div class = fixation>+</div></div>","none","2000","test","","","","",""
"413","71","poldrack-single-stim","144","274505","0.0-105.0","sub-14_ses-03_2","","2452","0","probe","","<div class = centerbox><div class = img-container><img src = ""/static/experiments/dot_pattern_expectancy/images/probe4.png""</img></div></div>","89,71","500","test","BY","31","71","true",""
"-1","-1","poldrack-single-stim","145","275025","0.0-106.0","sub-14_ses-03_2","","500","0","cue","","<div class = centerbox><div class = img-container><img src = ""/static/experiments/dot_pattern_expectancy/images/cue2.png""</img></div></div>","none","500","test","AX","32","","",""
"-1","-1","poldrack-single-stim","146","277045","0.0-107.0","sub-14_ses-03_2","","2000","0","fixation","","<div class = centerbox><div class = fixation>+</div></div>","none","2000","test","","","","",""
"337","89","poldrack-single-stim","147","278685","0.0-108.0","sub-14_ses-03_2","","1636","0","probe","","<div class = centerbox><div class = img-container><img src = ""/static/experiments/dot_pattern_expectancy/images/probe6.png""</img></div></div>","89,71","500","test","AX","32","89","true",""
"-1","-1","poldrack-single-stim","148","279205","0.0-109.0","sub-14_ses-03_2","","500","0","cue","","<div class = centerbox><div class = img-container><img src = ""/static/experiments/dot_pattern_expectancy/images/cue2.png""</img></div></div>","none","500","test","AX","33","","",""
"-1","-1","poldrack-single-stim","149","281215","0.0-110.0","sub-14_ses-03_2","","2000","0","fixation","","<div class = centerbox><div class = fixation>+</div></div>","none","2000","test","","","","",""
"830","89","poldrack-single-stim","150","282865","0.0-111.0","sub-14_ses-03_2","","1636","0","probe","","<div class = centerbox><div class = img-container><img src = ""/static/experiments/dot_pattern_expectancy/images/probe6.png""</img></div></div>","89,71","500","test","AX","33","89","true",""
"-1","-1","poldrack-single-stim","151","283386","0.0-112.0","sub-14_ses-03_2","","500","0","cue","","<div class = centerbox><div class = img-container><img src = ""/static/experiments/dot_pattern_expectancy/images/cue6.png""</img></div></div>","none","500","test","BX","34","","",""
"-1","-1","poldrack-single-stim","152","285405","0.0-113.0","sub-14_ses-03_2","","2000","0","fixation","","<div class = centerbox><div class = fixation>+</div></div>","none","2000","test","","","","",""
"508","71","poldrack-single-stim","153","286923","0.0-114.0","sub-14_ses-03_2","","1500","0","probe","","<div class = centerbox><div class = img-container><img src = ""/static/experiments/dot_pattern_expectancy/images/probe6.png""</img></div></div>","89,71","500","test","BX","34","71","true",""
"-1","-1","poldrack-single-stim","154","287434","0.0-115.0","sub-14_ses-03_2","","500","0","cue","","<div class = centerbox><div class = img-container><img src = ""/static/experiments/dot_pattern_expectancy/images/cue4.png""</img></div></div>","none","500","test","BX","35","","",""
"-1","-1","poldrack-single-stim","155","289444","0.0-116.0","sub-14_ses-03_2","","2000","0","fixation","","<div class = centerbox><div class = fixation>+</div></div>","none","2000","test","","","","",""
"398","71","poldrack-single-stim","156","290963","0.0-117.0","sub-14_ses-03_2","","1500","0","probe","","<div class = centerbox><div class = img-container><img src = ""/static/experiments/dot_pattern_expectancy/images/probe6.png""</img></div></div>","89,71","500","test","BX","35","71","true",""
"-1","-1","poldrack-single-stim","157","291485","0.0-118.0","sub-14_ses-03_2","","500","0","cue","","<div class = centerbox><div class = img-container><img src = ""/static/experiments/dot_pattern_expectancy/images/cue2.png""</img></div></div>","none","500","test","AX","36","","",""
"-1","-1","poldrack-single-stim","158","293504","0.0-119.0","sub-14_ses-03_2","","2000","0","fixation","","<div class = centerbox><div class = fixation>+</div></div>","none","2000","test","","","","",""
"694","89","poldrack-single-stim","159","295824","0.0-120.0","sub-14_ses-03_2","","2316","0","probe","","<div class = centerbox><div class = img-container><img src = ""/static/experiments/dot_pattern_expectancy/images/probe6.png""</img></div></div>","89,71","500","test","AX","36","89","true",""
"-1","-1","poldrack-single-stim","160","296345","0.0-121.0","sub-14_ses-03_2","","500","0","cue","","<div class = centerbox><div class = img-container><img src = ""/static/experiments/dot_pattern_expectancy/images/cue2.png""</img></div></div>","none","500","test","AY","37","","",""
"-1","-1","poldrack-single-stim","161","298364","0.0-122.0","sub-14_ses-03_2","","2000","0","fixation","","<div class = centerbox><div class = fixation>+</div></div>","none","2000","test","","","","",""
"1125","71","poldrack-single-stim","162","300423","0.0-123.0","sub-14_ses-03_2","","2044","0","probe","","<div class = centerbox><div class = img-container><img src = ""/static/experiments/dot_pattern_expectancy/images/probe3.png""</img></div></div>","89,71","500","test","AY","37","71","true",""
"-1","-1","poldrack-single-stim","163","300944","0.0-124.0","sub-14_ses-03_2","","500","0","cue","","<div class = centerbox><div class = img-container><img src = ""/static/experiments/dot_pattern_expectancy/images/cue2.png""</img></div></div>","none","500","test","AX","38","","",""
"-1","-1","poldrack-single-stim","164","302965","0.0-125.0","sub-14_ses-03_2","","2000","0","fixation","","<div class = centerbox><div class = fixation>+</div></div>","none","2000","test","","","","",""
"652","89","poldrack-single-stim","165","306924","0.0-126.0","sub-14_ses-03_2","","3948","0","probe","","<div class = centerbox><div class = img-container><img src = ""/static/experiments/dot_pattern_expectancy/images/probe6.png""</img></div></div>","89,71","500","test","AX","38","89","true",""
"-1","-1","poldrack-single-stim","166","307445","0.0-127.0","sub-14_ses-03_2","","500","0","cue","","<div class = centerbox><div class = img-container><img src = ""/static/experiments/dot_pattern_expectancy/images/cue2.png""</img></div></div>","none","500","test","AX","39","","",""
"-1","-1","poldrack-single-stim","167","309464","0.0-128.0","sub-14_ses-03_2","","2000","0","fixation","","<div class = centerbox><div class = fixation>+</div></div>","none","2000","test","","","","",""
"787","89","poldrack-single-stim","168","311103","0.0-129.0","sub-14_ses-03_2","","1636","0","probe","","<div class = centerbox><div class = img-container><img src = ""/static/experiments/dot_pattern_expectancy/images/probe6.png""</img></div></div>","89,71","500","test","AX","39","89","true",""
"-1","-1","poldrack-single-stim","169","318616","0.0-130.0","sub-14_ses-03_2","","7500","1000","rest_block","","<div class = centerbox><div class = center-text>+</div></div>","none","7500","","","","","",""
"-1","-1","poldrack-single-stim","170","321154","0.0-131.0","sub-14_ses-03_2","","1500","500","test_start_block","","<div class = centerbox><div class = center-text>Preparez-vous!</p></div>","none","1500","","","","","",""
"-1","-1","poldrack-single-stim","171","322196","0.0-132.0","sub-14_ses-03_2","","500","0","cue","","<div class = centerbox><div class = img-container><img src = ""/static/experiments/dot_pattern_expectancy/images/cue2.png""</img></div></div>","none","500","test","AY","0","","",""
"-1","-1","poldrack-single-stim","172","324216","0.0-133.0","sub-14_ses-03_2","","2000","0","fixation","","<div class = centerbox><div class = fixation>+</div></div>","none","2000","test","","","","",""
"629","71","poldrack-single-stim","173","325874","0.0-134.0","sub-14_ses-03_2","","1636","0","probe","","<div class = centerbox><div class = img-container><img src = ""/static/experiments/dot_pattern_expectancy/images/probe4.png""</img></div></div>","89,71","500","test","AY","0","71","true",""
"-1","-1","poldrack-single-stim","174","326394","0.0-135.0","sub-14_ses-03_2","","500","0","cue","","<div class = centerbox><div class = img-container><img src = ""/static/experiments/dot_pattern_expectancy/images/cue2.png""</img></div></div>","none","500","test","AX","1","","",""
"-1","-1","poldrack-single-stim","175","328404","0.0-136.0","sub-14_ses-03_2","","2000","0","fixation","","<div class = centerbox><div class = fixation>+</div></div>","none","2000","test","","","","",""
"507","89","poldrack-single-stim","176","330053","0.0-137.0","sub-14_ses-03_2","","1636","0","probe","","<div class = centerbox><div class = img-container><img src = ""/static/experiments/dot_pattern_expectancy/images/probe6.png""</img></div></div>","89,71","500","test","AX","1","89","true",""
"-1","-1","poldrack-single-stim","177","330576","0.0-138.0","sub-14_ses-03_2","","500","0","cue","","<div class = centerbox><div class = img-container><img src = ""/static/experiments/dot_pattern_expectancy/images/cue2.png""</img></div></div>","none","500","test","AX","2","","",""
"-1","-1","poldrack-single-stim","178","332594","0.0-139.0","sub-14_ses-03_2","","2000","0","fixation","","<div class = centerbox><div class = fixation>+</div></div>","none","2000","test","","","","",""
"721","89","poldrack-single-stim","179","334114","0.0-140.0","sub-14_ses-03_2","","1500","0","probe","","<div class = centerbox><div class = img-container><img src = ""/static/experiments/dot_pattern_expectancy/images/probe6.png""</img></div></div>","89,71","500","test","AX","2","89","true",""
"-1","-1","poldrack-single-stim","180","334635","0.0-141.0","sub-14_ses-03_2","","500","0","cue","","<div class = centerbox><div class = img-container><img src = ""/static/experiments/dot_pattern_expectancy/images/cue2.png""</img></div></div>","none","500","test","AX","3","","",""
"-1","-1","poldrack-single-stim","181","336653","0.0-142.0","sub-14_ses-03_2","","2000","0","fixation","","<div class = centerbox><div class = fixation>+</div></div>","none","2000","test","","","","",""
"1338","71","poldrack-single-stim","182","338164","0.0-143.0","sub-14_ses-03_2","","1500","0","probe","","<div class = centerbox><div class = img-container><img src = ""/static/experiments/dot_pattern_expectancy/images/probe6.png""</img></div></div>","89,71","500","test","AX","3","89","false",""
"-1","-1","poldrack-single-stim","183","338685","0.0-144.0","sub-14_ses-03_2","","500","0","cue","","<div class = centerbox><div class = img-container><img src = ""/static/experiments/dot_pattern_expectancy/images/cue2.png""</img></div></div>","none","500","test","AX","4","","",""
"-1","-1","poldrack-single-stim","184","340705","0.0-145.0","sub-14_ses-03_2","","2000","0","fixation","","<div class = centerbox><div class = fixation>+</div></div>","none","2000","test","","","","",""
"510","89","poldrack-single-stim","185","342624","0.0-146.0","sub-14_ses-03_2","","1908","0","probe","","<div class = centerbox><div class = img-container><img src = ""/static/experiments/dot_pattern_expectancy/images/probe6.png""</img></div></div>","89,71","500","test","AX","4","89","true",""
"-1","-1","poldrack-single-stim","186","343144","0.0-147.0","sub-14_ses-03_2","","500","0","cue","","<div class = centerbox><div class = img-container><img src = ""/static/experiments/dot_pattern_expectancy/images/cue3.png""</img></div></div>","none","500","test","BX","5","","",""
"-1","-1","poldrack-single-stim","187","345164","0.0-148.0","sub-14_ses-03_2","","2000","0","fixation","","<div class = centerbox><div class = fixation>+</div></div>","none","2000","test","","","","",""
"265","71","poldrack-single-stim","188","346803","0.0-149.0","sub-14_ses-03_2","","1636","0","probe","","<div class = centerbox><div class = img-container><img src = ""/static/experiments/dot_pattern_expectancy/images/probe6.png""</img></div></div>","89,71","500","test","BX","5","71","true",""
"-1","-1","poldrack-single-stim","189","347324","0.0-150.0","sub-14_ses-03_2","","500","0","cue","","<div class = centerbox><div class = img-container><img src = ""/static/experiments/dot_pattern_expectancy/images/cue2.png""</img></div></div>","none","500","test","AX","6","","",""
"-1","-1","poldrack-single-stim","190","349346","0.0-151.0","sub-14_ses-03_2","","2000","0","fixation","","<div class = centerbox><div class = fixation>+</div></div>","none","2000","test","","","","",""
"396","89","poldrack-single-stim","191","351404","0.0-152.0","sub-14_ses-03_2","","2044","0","probe","","<div class = centerbox><div class = img-container><img src = ""/static/experiments/dot_pattern_expectancy/images/probe6.png""</img></div></div>","89,71","500","test","AX","6","89","true",""
"-1","-1","poldrack-single-stim","192","351925","0.0-153.0","sub-14_ses-03_2","","500","0","cue","","<div class = centerbox><div class = img-container><img src = ""/static/experiments/dot_pattern_expectancy/images/cue2.png""</img></div></div>","none","500","test","AX","7","","",""
"-1","-1","poldrack-single-stim","193","353944","0.0-154.0","sub-14_ses-03_2","","2000","0","fixation","","<div class = centerbox><div class = fixation>+</div></div>","none","2000","test","","","","",""
"499","89","poldrack-single-stim","194","355733","0.0-155.0","sub-14_ses-03_2","","1772","0","probe","","<div class = centerbox><div class = img-container><img src = ""/static/experiments/dot_pattern_expectancy/images/probe6.png""</img></div></div>","89,71","500","test","AX","7","89","true",""
"-1","-1","poldrack-single-stim","195","356255","0.0-156.0","sub-14_ses-03_2","","500","0","cue","","<div class = centerbox><div class = img-container><img src = ""/static/experiments/dot_pattern_expectancy/images/cue2.png""</img></div></div>","none","500","test","AX","8","","",""
"-1","-1","poldrack-single-stim","196","358264","0.0-157.0","sub-14_ses-03_2","","2000","0","fixation","","<div class = centerbox><div class = fixation>+</div></div>","none","2000","test","","","","",""
"659","71","poldrack-single-stim","197","359774","0.0-158.0","sub-14_ses-03_2","","1500","0","probe","","<div class = centerbox><div class = img-container><img src = ""/static/experiments/dot_pattern_expectancy/images/probe6.png""</img></div></div>","89,71","500","test","AX","8","89","false",""
"-1","-1","poldrack-single-stim","198","360286","0.0-159.0","sub-14_ses-03_2","","500","0","cue","","<div class = centerbox><div class = img-container><img src = ""/static/experiments/dot_pattern_expectancy/images/cue2.png""</img></div></div>","none","500","test","AX","9","","",""
"-1","-1","poldrack-single-stim","199","362303","0.0-160.0","sub-14_ses-03_2","","2000","0","fixation","","<div class = centerbox><div class = fixation>+</div></div>","none","2000","test","","","","",""
"335","89","poldrack-single-stim","200","364502","0.0-161.0","sub-14_ses-03_2","","2180","0","probe","","<div class = centerbox><div class = img-container><img src = ""/static/experiments/dot_pattern_expectancy/images/probe6.png""</img></div></div>","89,71","500","test","AX","9","89","true",""
"-1","-1","poldrack-single-stim","201","365023","0.0-162.0","sub-14_ses-03_2","","500","0","cue","","<div class = centerbox><div class = img-container><img src = ""/static/experiments/dot_pattern_expectancy/images/cue2.png""</img></div></div>","none","500","test","AX","10","","",""
"-1","-1","poldrack-single-stim","202","367045","0.0-163.0","sub-14_ses-03_2","","2000","0","fixation","","<div class = centerbox><div class = fixation>+</div></div>","none","2000","test","","","","",""
"883","89","poldrack-single-stim","203","368565","0.0-164.0","sub-14_ses-03_2","","1500","0","probe","","<div class = centerbox><div class = img-container><img src = ""/static/experiments/dot_pattern_expectancy/images/probe6.png""</img></div></div>","89,71","500","test","AX","10","89","true",""
"-1","-1","poldrack-single-stim","204","369085","0.0-165.0","sub-14_ses-03_2","","500","0","cue","","<div class = centerbox><div class = img-container><img src = ""/static/experiments/dot_pattern_expectancy/images/cue3.png""</img></div></div>","none","500","test","BX","11","","",""
"-1","-1","poldrack-single-stim","205","371104","0.0-166.0","sub-14_ses-03_2","","2000","0","fixation","","<div class = centerbox><div class = fixation>+</div></div>","none","2000","test","","","","",""
"320","71","poldrack-single-stim","206","374784","0.0-167.0","sub-14_ses-03_2","","3676","0","probe","","<div class = centerbox><div class = img-container><img src = ""/static/experiments/dot_pattern_expectancy/images/probe6.png""</img></div></div>","89,71","500","test","BX","11","71","true",""
"-1","-1","poldrack-single-stim","207","375303","0.0-168.0","sub-14_ses-03_2","","500","0","cue","","<div class = centerbox><div class = img-container><img src = ""/static/experiments/dot_pattern_expectancy/images/cue5.png""</img></div></div>","none","500","test","BY","12","","",""
"-1","-1","poldrack-single-stim","208","377326","0.0-169.0","sub-14_ses-03_2","","2000","0","fixation","","<div class = centerbox><div class = fixation>+</div></div>","none","2000","test","","","","",""
"1107","71","poldrack-single-stim","209","378984","0.0-170.0","sub-14_ses-03_2","","1636","0","probe","","<div class = centerbox><div class = img-container><img src = ""/static/experiments/dot_pattern_expectancy/images/probe3.png""</img></div></div>","89,71","500","test","BY","12","71","true",""
"-1","-1","poldrack-single-stim","210","379495","0.0-171.0","sub-14_ses-03_2","","500","0","cue","","<div class = centerbox><div class = img-container><img src = ""/static/experiments/dot_pattern_expectancy/images/cue4.png""</img></div></div>","none","500","test","BY","13","","",""
"-1","-1","poldrack-single-stim","211","381504","0.0-172.0","sub-14_ses-03_2","","2000","0","fixation","","<div class = centerbox><div class = fixation>+</div></div>","none","2000","test","","","","",""
"384","71","poldrack-single-stim","212","383144","0.0-173.0","sub-14_ses-03_2","","1636","0","probe","","<div class = centerbox><div class = img-container><img src = ""/static/experiments/dot_pattern_expectancy/images/probe2.png""</img></div></div>","89,71","500","test","BY","13","71","true",""
"-1","-1","poldrack-single-stim","213","383663","0.0-174.0","sub-14_ses-03_2","","500","0","cue","","<div class = centerbox><div class = img-container><img src = ""/static/experiments/dot_pattern_expectancy/images/cue3.png""</img></div></div>","none","500","test","BX","14","","",""
"-1","-1","poldrack-single-stim","214","385685","0.0-175.0","sub-14_ses-03_2","","2000","0","fixation","","<div class = centerbox><div class = fixation>+</div></div>","none","2000","test","","","","",""
"460","71","poldrack-single-stim","215","387194","0.0-176.0","sub-14_ses-03_2","","1500","0","probe","","<div class = centerbox><div class = img-container><img src = ""/static/experiments/dot_pattern_expectancy/images/probe6.png""</img></div></div>","89,71","500","test","BX","14","71","true",""
"-1","-1","poldrack-single-stim","216","387703","0.0-177.0","sub-14_ses-03_2","","500","0","cue","","<div class = centerbox><div class = img-container><img src = ""/static/experiments/dot_pattern_expectancy/images/cue2.png""</img></div></div>","none","500","test","AX","15","","",""
"-1","-1","poldrack-single-stim","217","389726","0.0-178.0","sub-14_ses-03_2","","2000","0","fixation","","<div class = centerbox><div class = fixation>+</div></div>","none","2000","test","","","","",""
"848","89","poldrack-single-stim","218","391644","0.0-179.0","sub-14_ses-03_2","","1908","0","probe","","<div class = centerbox><div class = img-container><img src = ""/static/experiments/dot_pattern_expectancy/images/probe6.png""</img></div></div>","89,71","500","test","AX","15","89","true",""
"-1","-1","poldrack-single-stim","219","392165","0.0-180.0","sub-14_ses-03_2","","500","0","cue","","<div class = centerbox><div class = img-container><img src = ""/static/experiments/dot_pattern_expectancy/images/cue2.png""</img></div></div>","none","500","test","AX","16","","",""
"-1","-1","poldrack-single-stim","220","394174","0.0-181.0","sub-14_ses-03_2","","2000","0","fixation","","<div class = centerbox><div class = fixation>+</div></div>","none","2000","test","","","","",""
"496","89","poldrack-single-stim","221","395814","0.0-182.0","sub-14_ses-03_2","","1636","0","probe","","<div class = centerbox><div class = img-container><img src = ""/static/experiments/dot_pattern_expectancy/images/probe6.png""</img></div></div>","89,71","500","test","AX","16","89","true",""
"-1","-1","poldrack-single-stim","222","396334","0.0-183.0","sub-14_ses-03_2","","500","0","cue","","<div class = centerbox><div class = img-container><img src = ""/static/experiments/dot_pattern_expectancy/images/cue5.png""</img></div></div>","none","500","test","BX","17","","",""
"-1","-1","poldrack-single-stim","223","398344","0.0-184.0","sub-14_ses-03_2","","2000","0","fixation","","<div class = centerbox><div class = fixation>+</div></div>","none","2000","test","","","","",""
"674","71","poldrack-single-stim","224","399865","0.0-185.0","sub-14_ses-03_2","","1500","0","probe","","<div class = centerbox><div class = img-container><img src = ""/static/experiments/dot_pattern_expectancy/images/probe6.png""</img></div></div>","89,71","500","test","BX","17","71","true",""
"-1","-1","poldrack-single-stim","225","400383","0.0-186.0","sub-14_ses-03_2","","500","0","cue","","<div class = centerbox><div class = img-container><img src = ""/static/experiments/dot_pattern_expectancy/images/cue2.png""</img></div></div>","none","500","test","AX","18","","",""
"-1","-1","poldrack-single-stim","226","402406","0.0-187.0","sub-14_ses-03_2","","2000","0","fixation","","<div class = centerbox><div class = fixation>+</div></div>","none","2000","test","","","","",""
"643","89","poldrack-single-stim","227","404325","0.0-188.0","sub-14_ses-03_2","","1908","0","probe","","<div class = centerbox><div class = img-container><img src = ""/static/experiments/dot_pattern_expectancy/images/probe6.png""</img></div></div>","89,71","500","test","AX","18","89","true",""
"-1","-1","poldrack-single-stim","228","404845","0.0-189.0","sub-14_ses-03_2","","500","0","cue","","<div class = centerbox><div class = img-container><img src = ""/static/experiments/dot_pattern_expectancy/images/cue4.png""</img></div></div>","none","500","test","BY","19","","",""
"-1","-1","poldrack-single-stim","229","406865","0.0-190.0","sub-14_ses-03_2","","2000","0","fixation","","<div class = centerbox><div class = fixation>+</div></div>","none","2000","test","","","","",""
"375","71","poldrack-single-stim","230","409055","0.0-191.0","sub-14_ses-03_2","","2180","0","probe","","<div class = centerbox><div class = img-container><img src = ""/static/experiments/dot_pattern_expectancy/images/probe5.png""</img></div></div>","89,71","500","test","BY","19","71","true",""
"-1","-1","poldrack-single-stim","231","409575","0.0-192.0","sub-14_ses-03_2","","500","0","cue","","<div class = centerbox><div class = img-container><img src = ""/static/experiments/dot_pattern_expectancy/images/cue2.png""</img></div></div>","none","500","test","AX","20","","",""
"-1","-1","poldrack-single-stim","232","411583","0.0-193.0","sub-14_ses-03_2","","2000","0","fixation","","<div class = centerbox><div class = fixation>+</div></div>","none","2000","test","","","","",""
"564","89","poldrack-single-stim","233","413364","0.0-194.0","sub-14_ses-03_2","","1772","0","probe","","<div class = centerbox><div class = img-container><img src = ""/static/experiments/dot_pattern_expectancy/images/probe6.png""</img></div></div>","89,71","500","test","AX","20","89","true",""
"-1","-1","poldrack-single-stim","234","413883","0.0-195.0","sub-14_ses-03_2","","500","0","cue","","<div class = centerbox><div class = img-container><img src = ""/static/experiments/dot_pattern_expectancy/images/cue2.png""</img></div></div>","none","500","test","AX","21","","",""
"-1","-1","poldrack-single-stim","235","415904","0.0-196.0","sub-14_ses-03_2","","2000","0","fixation","","<div class = centerbox><div class = fixation>+</div></div>","none","2000","test","","","","",""
"469","89","poldrack-single-stim","236","417423","0.0-197.0","sub-14_ses-03_2","","1500","0","probe","","<div class = centerbox><div class = img-container><img src = ""/static/experiments/dot_pattern_expectancy/images/probe6.png""</img></div></div>","89,71","500","test","AX","21","89","true",""
"-1","-1","poldrack-single-stim","237","417936","0.0-198.0","sub-14_ses-03_2","","500","0","cue","","<div class = centerbox><div class = img-container><img src = ""/static/experiments/dot_pattern_expectancy/images/cue2.png""</img></div></div>","none","500","test","AX","22","","",""
"-1","-1","poldrack-single-stim","238","419945","0.0-199.0","sub-14_ses-03_2","","2000","0","fixation","","<div class = centerbox><div class = fixation>+</div></div>","none","2000","test","","","","",""
"737","89","poldrack-single-stim","239","421464","0.0-200.0","sub-14_ses-03_2","","1500","0","probe","","<div class = centerbox><div class = img-container><img src = ""/static/experiments/dot_pattern_expectancy/images/probe6.png""</img></div></div>","89,71","500","test","AX","22","89","true",""
"-1","-1","poldrack-single-stim","240","421984","0.0-201.0","sub-14_ses-03_2","","500","0","cue","","<div class = centerbox><div class = img-container><img src = ""/static/experiments/dot_pattern_expectancy/images/cue2.png""</img></div></div>","none","500","test","AX","23","","",""
"-1","-1","poldrack-single-stim","241","424004","0.0-202.0","sub-14_ses-03_2","","2000","0","fixation","","<div class = centerbox><div class = fixation>+</div></div>","none","2000","test","","","","",""
"612","89","poldrack-single-stim","242","426064","0.0-203.0","sub-14_ses-03_2","","2044","0","probe","","<div class = centerbox><div class = img-container><img src = ""/static/experiments/dot_pattern_expectancy/images/probe6.png""</img></div></div>","89,71","500","test","AX","23","89","true",""
"-1","-1","poldrack-single-stim","243","426584","0.0-204.0","sub-14_ses-03_2","","500","0","cue","","<div class = centerbox><div class = img-container><img src = ""/static/experiments/dot_pattern_expectancy/images/cue2.png""</img></div></div>","none","500","test","AX","24","","",""
"-1","-1","poldrack-single-stim","244","428604","0.0-205.0","sub-14_ses-03_2","","2000","0","fixation","","<div class = centerbox><div class = fixation>+</div></div>","none","2000","test","","","","",""
"635","89","poldrack-single-stim","245","431484","0.0-206.0","sub-14_ses-03_2","","2860","0","probe","","<div class = centerbox><div class = img-container><img src = ""/static/experiments/dot_pattern_expectancy/images/probe6.png""</img></div></div>","89,71","500","test","AX","24","89","true",""
"-1","-1","poldrack-single-stim","246","432005","0.0-207.0","sub-14_ses-03_2","","500","0","cue","","<div class = centerbox><div class = img-container><img src = ""/static/experiments/dot_pattern_expectancy/images/cue6.png""</img></div></div>","none","500","test","BX","25","","",""
"-1","-1","poldrack-single-stim","247","434014","0.0-208.0","sub-14_ses-03_2","","2000","0","fixation","","<div class = centerbox><div class = fixation>+</div></div>","none","2000","test","","","","",""
"467","71","poldrack-single-stim","248","435533","0.0-209.0","sub-14_ses-03_2","","1500","0","probe","","<div class = centerbox><div class = img-container><img src = ""/static/experiments/dot_pattern_expectancy/images/probe6.png""</img></div></div>","89,71","500","test","BX","25","71","true",""
"-1","-1","poldrack-single-stim","249","436055","0.0-210.0","sub-14_ses-03_2","","500","0","cue","","<div class = centerbox><div class = img-container><img src = ""/static/experiments/dot_pattern_expectancy/images/cue6.png""</img></div></div>","none","500","test","BY","26","","",""
"-1","-1","poldrack-single-stim","250","438074","0.0-211.0","sub-14_ses-03_2","","2000","0","fixation","","<div class = centerbox><div class = fixation>+</div></div>","none","2000","test","","","","",""
"435","71","poldrack-single-stim","251","439853","0.0-212.0","sub-14_ses-03_2","","1772","0","probe","","<div class = centerbox><div class = img-container><img src = ""/static/experiments/dot_pattern_expectancy/images/probe4.png""</img></div></div>","89,71","500","test","BY","26","71","true",""
"-1","-1","poldrack-single-stim","252","440375","0.0-213.0","sub-14_ses-03_2","","500","0","cue","","<div class = centerbox><div class = img-container><img src = ""/static/experiments/dot_pattern_expectancy/images/cue2.png""</img></div></div>","none","500","test","AX","27","","",""
"-1","-1","poldrack-single-stim","253","442395","0.0-214.0","sub-14_ses-03_2","","2000","0","fixation","","<div class = centerbox><div class = fixation>+</div></div>","none","2000","test","","","","",""
"742","89","poldrack-single-stim","254","444174","0.0-215.0","sub-14_ses-03_2","","1772","0","probe","","<div class = centerbox><div class = img-container><img src = ""/static/experiments/dot_pattern_expectancy/images/probe6.png""</img></div></div>","89,71","500","test","AX","27","89","true",""
"-1","-1","poldrack-single-stim","255","444759","0.0-216.0","sub-14_ses-03_2","","500","0","cue","","<div class = centerbox><div class = img-container><img src = ""/static/experiments/dot_pattern_expectancy/images/cue2.png""</img></div></div>","none","500","test","AX","28","","",""
"-1","-1","poldrack-single-stim","256","446774","0.0-217.0","sub-14_ses-03_2","","2000","0","fixation","","<div class = centerbox><div class = fixation>+</div></div>","none","2000","test","","","","",""
"635","89","poldrack-single-stim","257","449653","0.0-218.0","sub-14_ses-03_2","","2860","0","probe","","<div class = centerbox><div class = img-container><img src = ""/static/experiments/dot_pattern_expectancy/images/probe6.png""</img></div></div>","89,71","500","test","AX","28","89","true",""
"-1","-1","poldrack-single-stim","258","450163","0.0-219.0","sub-14_ses-03_2","","500","0","cue","","<div class = centerbox><div class = img-container><img src = ""/static/experiments/dot_pattern_expectancy/images/cue2.png""</img></div></div>","none","500","test","AX","29","","",""
"-1","-1","poldrack-single-stim","259","452184","0.0-220.0","sub-14_ses-03_2","","2000","0","fixation","","<div class = centerbox><div class = fixation>+</div></div>","none","2000","test","","","","",""
"739","89","poldrack-single-stim","260","453964","0.0-221.0","sub-14_ses-03_2","","1772","0","probe","","<div class = centerbox><div class = img-container><img src = ""/static/experiments/dot_pattern_expectancy/images/probe6.png""</img></div></div>","89,71","500","test","AX","29","89","true",""
"-1","-1","poldrack-single-stim","261","454486","0.0-222.0","sub-14_ses-03_2","","500","0","cue","","<div class = centerbox><div class = img-container><img src = ""/static/experiments/dot_pattern_expectancy/images/cue1.png""</img></div></div>","none","500","test","BX","30","","",""
"-1","-1","poldrack-single-stim","262","456501","0.0-223.0","sub-14_ses-03_2","","2000","0","fixation","","<div class = centerbox><div class = fixation>+</div></div>","none","2000","test","","","","",""
"1437","89","poldrack-single-stim","263","458154","0.0-224.0","sub-14_ses-03_2","","1636","0","probe","","<div class = centerbox><div class = img-container><img src = ""/static/experiments/dot_pattern_expectancy/images/probe6.png""</img></div></div>","89,71","500","test","BX","30","71","false",""
"-1","-1","poldrack-single-stim","264","458673","0.0-225.0","sub-14_ses-03_2","","500","0","cue","","<div class = centerbox><div class = img-container><img src = ""/static/experiments/dot_pattern_expectancy/images/cue4.png""</img></div></div>","none","500","test","BX","31","","",""
"-1","-1","poldrack-single-stim","265","460693","0.0-226.0","sub-14_ses-03_2","","2000","0","fixation","","<div class = centerbox><div class = fixation>+</div></div>","none","2000","test","","","","",""
"303","71","poldrack-single-stim","266","463153","0.0-227.0","sub-14_ses-03_2","","2452","0","probe","","<div class = centerbox><div class = img-container><img src = ""/static/experiments/dot_pattern_expectancy/images/probe6.png""</img></div></div>","89,71","500","test","BX","31","71","true",""
"-1","-1","poldrack-single-stim","267","463656","0.0-228.0","sub-14_ses-03_2","","500","0","cue","","<div class = centerbox><div class = img-container><img src = ""/static/experiments/dot_pattern_expectancy/images/cue2.png""</img></div></div>","none","500","test","AX","32","","",""
"-1","-1","poldrack-single-stim","268","465675","0.0-229.0","sub-14_ses-03_2","","2000","0","fixation","","<div class = centerbox><div class = fixation>+</div></div>","none","2000","test","","","","",""
"772","89","poldrack-single-stim","269","467323","0.0-230.0","sub-14_ses-03_2","","1636","0","probe","","<div class = centerbox><div class = img-container><img src = ""/static/experiments/dot_pattern_expectancy/images/probe6.png""</img></div></div>","89,71","500","test","AX","32","89","true",""
"-1","-1","poldrack-single-stim","270","467834","0.0-231.0","sub-14_ses-03_2","","500","0","cue","","<div class = centerbox><div class = img-container><img src = ""/static/experiments/dot_pattern_expectancy/images/cue5.png""</img></div></div>","none","500","test","BX","33","","",""
"-1","-1","poldrack-single-stim","271","469854","0.0-232.0","sub-14_ses-03_2","","2000","0","fixation","","<div class = centerbox><div class = fixation>+</div></div>","none","2000","test","","","","",""
"654","71","poldrack-single-stim","272","471364","0.0-233.0","sub-14_ses-03_2","","1500","0","probe","","<div class = centerbox><div class = img-container><img src = ""/static/experiments/dot_pattern_expectancy/images/probe6.png""</img></div></div>","89,71","500","test","BX","33","71","true",""
"-1","-1","poldrack-single-stim","273","471883","0.0-234.0","sub-14_ses-03_2","","500","0","cue","","<div class = centerbox><div class = img-container><img src = ""/static/experiments/dot_pattern_expectancy/images/cue2.png""</img></div></div>","none","500","test","AX","34","","",""
"-1","-1","poldrack-single-stim","274","473893","0.0-235.0","sub-14_ses-03_2","","2000","0","fixation","","<div class = centerbox><div class = fixation>+</div></div>","none","2000","test","","","","",""
"529","89","poldrack-single-stim","275","475533","0.0-236.0","sub-14_ses-03_2","","1636","0","probe","","<div class = centerbox><div class = img-container><img src = ""/static/experiments/dot_pattern_expectancy/images/probe6.png""</img></div></div>","89,71","500","test","AX","34","89","true",""
"-1","-1","poldrack-single-stim","276","476052","0.0-237.0","sub-14_ses-03_2","","500","0","cue","","<div class = centerbox><div class = img-container><img src = ""/static/experiments/dot_pattern_expectancy/images/cue2.png""</img></div></div>","none","500","test","AX","35","","",""
"-1","-1","poldrack-single-stim","277","478075","0.0-238.0","sub-14_ses-03_2","","2000","0","fixation","","<div class = centerbox><div class = fixation>+</div></div>","none","2000","test","","","","",""
"814","89","poldrack-single-stim","278","479713","0.0-239.0","sub-14_ses-03_2","","1636","0","probe","","<div class = centerbox><div class = img-container><img src = ""/static/experiments/dot_pattern_expectancy/images/probe6.png""</img></div></div>","89,71","500","test","AX","35","89","true",""
"-1","-1","poldrack-single-stim","279","480234","0.0-240.0","sub-14_ses-03_2","","500","0","cue","","<div class = centerbox><div class = img-container><img src = ""/static/experiments/dot_pattern_expectancy/images/cue1.png""</img></div></div>","none","500","test","BY","36","","",""
"-1","-1","poldrack-single-stim","280","482255","0.0-241.0","sub-14_ses-03_2","","2000","0","fixation","","<div class = centerbox><div class = fixation>+</div></div>","none","2000","test","","","","",""
"1858","71","poldrack-single-stim","281","484455","0.0-242.0","sub-14_ses-03_2","","2180","0","probe","","<div class = centerbox><div class = img-container><img src = ""/static/experiments/dot_pattern_expectancy/images/probe2.png""</img></div></div>","89,71","500","test","BY","36","71","true",""
"-1","-1","poldrack-single-stim","282","484974","0.0-243.0","sub-14_ses-03_2","","500","0","cue","","<div class = centerbox><div class = img-container><img src = ""/static/experiments/dot_pattern_expectancy/images/cue2.png""</img></div></div>","none","500","test","AX","37","","",""
"-1","-1","poldrack-single-stim","283","486995","0.0-244.0","sub-14_ses-03_2","","2000","0","fixation","","<div class = centerbox><div class = fixation>+</div></div>","none","2000","test","","","","",""
"435","89","poldrack-single-stim","284","488504","0.0-245.0","sub-14_ses-03_2","","1500","0","probe","","<div class = centerbox><div class = img-container><img src = ""/static/experiments/dot_pattern_expectancy/images/probe6.png""</img></div></div>","89,71","500","test","AX","37","89","true",""
"-1","-1","poldrack-single-stim","285","489024","0.0-246.0","sub-14_ses-03_2","","500","0","cue","","<div class = centerbox><div class = img-container><img src = ""/static/experiments/dot_pattern_expectancy/images/cue2.png""</img></div></div>","none","500","test","AY","38","","",""
"-1","-1","poldrack-single-stim","286","491045","0.0-247.0","sub-14_ses-03_2","","2000","0","fixation","","<div class = centerbox><div class = fixation>+</div></div>","none","2000","test","","","","",""
"740","71","poldrack-single-stim","287","492703","0.0-248.0","sub-14_ses-03_2","","1636","0","probe","","<div class = centerbox><div class = img-container><img src = ""/static/experiments/dot_pattern_expectancy/images/probe2.png""</img></div></div>","89,71","500","test","AY","38","71","true",""
"-1","-1","poldrack-single-stim","288","493214","0.0-249.0","sub-14_ses-03_2","","500","0","cue","","<div class = centerbox><div class = img-container><img src = ""/static/experiments/dot_pattern_expectancy/images/cue2.png""</img></div></div>","none","500","test","AX","39","","",""
"-1","-1","poldrack-single-stim","289","495234","0.0-250.0","sub-14_ses-03_2","","2000","0","fixation","","<div class = centerbox><div class = fixation>+</div></div>","none","2000","test","","","","",""
"380","89","poldrack-single-stim","290","496883","0.0-251.0","sub-14_ses-03_2","","1636","0","probe","","<div class = centerbox><div class = img-container><img src = ""/static/experiments/dot_pattern_expectancy/images/probe6.png""</img></div></div>","89,71","500","test","AX","39","89","true",""
"-1","-1","poldrack-single-stim","291","504405","0.0-252.0","sub-14_ses-03_2","","7500","1000","rest_block","","<div class = centerbox><div class = center-text>+</div></div>","none","7500","","","","","",""
"-1","-1","poldrack-single-stim","292","506943","0.0-253.0","sub-14_ses-03_2","","1500","500","test_start_block","","<div class = centerbox><div class = center-text>Preparez-vous!</p></div>","none","1500","","","","","",""
"-1","-1","poldrack-single-stim","293","507984","0.0-254.0","sub-14_ses-03_2","","500","0","cue","","<div class = centerbox><div class = img-container><img src = ""/static/experiments/dot_pattern_expectancy/images/cue2.png""</img></div></div>","none","500","test","AX","0","","",""
"-1","-1","poldrack-single-stim","294","510004","0.0-255.0","sub-14_ses-03_2","","2000","0","fixation","","<div class = centerbox><div class = fixation>+</div></div>","none","2000","test","","","","",""
"504","89","poldrack-single-stim","295","512203","0.0-256.0","sub-14_ses-03_2","","2180","0","probe","","<div class = centerbox><div class = img-container><img src = ""/static/experiments/dot_pattern_expectancy/images/probe6.png""</img></div></div>","89,71","500","test","AX","0","89","true",""
"-1","-1","poldrack-single-stim","296","512722","0.0-257.0","sub-14_ses-03_2","","500","0","cue","","<div class = centerbox><div class = img-container><img src = ""/static/experiments/dot_pattern_expectancy/images/cue2.png""</img></div></div>","none","500","test","AY","1","","",""
"-1","-1","poldrack-single-stim","297","514743","0.0-258.0","sub-14_ses-03_2","","2000","0","fixation","","<div class = centerbox><div class = fixation>+</div></div>","none","2000","test","","","","",""
"602","71","poldrack-single-stim","298","517064","0.0-259.0","sub-14_ses-03_2","","2316","0","probe","","<div class = centerbox><div class = img-container><img src = ""/static/experiments/dot_pattern_expectancy/images/probe2.png""</img></div></div>","89,71","500","test","AY","1","71","true",""
"-1","-1","poldrack-single-stim","299","517584","0.0-260.0","sub-14_ses-03_2","","500","0","cue","","<div class = centerbox><div class = img-container><img src = ""/static/experiments/dot_pattern_expectancy/images/cue2.png""</img></div></div>","none","500","test","AY","2","","",""
"-1","-1","poldrack-single-stim","300","519593","0.0-261.0","sub-14_ses-03_2","","2000","0","fixation","","<div class = centerbox><div class = fixation>+</div></div>","none","2000","test","","","","",""
"561","71","poldrack-single-stim","301","521235","0.0-262.0","sub-14_ses-03_2","","1636","0","probe","","<div class = centerbox><div class = img-container><img src = ""/static/experiments/dot_pattern_expectancy/images/probe1.png""</img></div></div>","89,71","500","test","AY","2","71","true",""
"-1","-1","poldrack-single-stim","302","521754","0.0-263.0","sub-14_ses-03_2","","500","0","cue","","<div class = centerbox><div class = img-container><img src = ""/static/experiments/dot_pattern_expectancy/images/cue6.png""</img></div></div>","none","500","test","BX","3","","",""
"-1","-1","poldrack-single-stim","303","523763","0.0-264.0","sub-14_ses-03_2","","2000","0","fixation","","<div class = centerbox><div class = fixation>+</div></div>","none","2000","test","","","","",""
"511","71","poldrack-single-stim","304","525684","0.0-265.0","sub-14_ses-03_2","","1908","0","probe","","<div class = centerbox><div class = img-container><img src = ""/static/experiments/dot_pattern_expectancy/images/probe6.png""</img></div></div>","89,71","500","test","BX","3","71","true",""
"-1","-1","poldrack-single-stim","305","526203","0.0-266.0","sub-14_ses-03_2","","500","0","cue","","<div class = centerbox><div class = img-container><img src = ""/static/experiments/dot_pattern_expectancy/images/cue2.png""</img></div></div>","none","500","test","AX","4","","",""
"-1","-1","poldrack-single-stim","306","528225","0.0-267.0","sub-14_ses-03_2","","2000","0","fixation","","<div class = centerbox><div class = fixation>+</div></div>","none","2000","test","","","","",""
"772","89","poldrack-single-stim","307","531783","0.0-268.0","sub-14_ses-03_2","","3540","0","probe","","<div class = centerbox><div class = img-container><img src = ""/static/experiments/dot_pattern_expectancy/images/probe6.png""</img></div></div>","89,71","500","test","AX","4","89","true",""
"-1","-1","poldrack-single-stim","308","532304","0.0-269.0","sub-14_ses-03_2","","500","0","cue","","<div class = centerbox><div class = img-container><img src = ""/static/experiments/dot_pattern_expectancy/images/cue1.png""</img></div></div>","none","500","test","BX","5","","",""
"-1","-1","poldrack-single-stim","309","534324","0.0-270.0","sub-14_ses-03_2","","2000","0","fixation","","<div class = centerbox><div class = fixation>+</div></div>","none","2000","test","","","","",""
"376","71","poldrack-single-stim","310","535974","0.0-271.0","sub-14_ses-03_2","","1636","0","probe","","<div class = centerbox><div class = img-container><img src = ""/static/experiments/dot_pattern_expectancy/images/probe6.png""</img></div></div>","89,71","500","test","BX","5","71","true",""
"-1","-1","poldrack-single-stim","311","536493","0.0-272.0","sub-14_ses-03_2","","500","0","cue","","<div class = centerbox><div class = img-container><img src = ""/static/experiments/dot_pattern_expectancy/images/cue6.png""</img></div></div>","none","500","test","BY","6","","",""
"-1","-1","poldrack-single-stim","312","538514","0.0-273.0","sub-14_ses-03_2","","2000","0","fixation","","<div class = centerbox><div class = fixation>+</div></div>","none","2000","test","","","","",""
"373","71","poldrack-single-stim","313","540035","0.0-274.0","sub-14_ses-03_2","","1500","0","probe","","<div class = centerbox><div class = img-container><img src = ""/static/experiments/dot_pattern_expectancy/images/probe4.png""</img></div></div>","89,71","500","test","BY","6","71","true",""
"-1","-1","poldrack-single-stim","314","540554","0.0-275.0","sub-14_ses-03_2","","500","0","cue","","<div class = centerbox><div class = img-container><img src = ""/static/experiments/dot_pattern_expectancy/images/cue2.png""</img></div></div>","none","500","test","AX","7","","",""
"-1","-1","poldrack-single-stim","315","542573","0.0-276.0","sub-14_ses-03_2","","2000","0","fixation","","<div class = centerbox><div class = fixation>+</div></div>","none","2000","test","","","","",""
"845","89","poldrack-single-stim","316","544093","0.0-277.0","sub-14_ses-03_2","","1500","0","probe","","<div class = centerbox><div class = img-container><img src = ""/static/experiments/dot_pattern_expectancy/images/probe6.png""</img></div></div>","89,71","500","test","AX","7","89","true",""
"-1","-1","poldrack-single-stim","317","544613","0.0-278.0","sub-14_ses-03_2","","500","0","cue","","<div class = centerbox><div class = img-container><img src = ""/static/experiments/dot_pattern_expectancy/images/cue2.png""</img></div></div>","none","500","test","AX","8","","",""
"-1","-1","poldrack-single-stim","318","546633","0.0-279.0","sub-14_ses-03_2","","2000","0","fixation","","<div class = centerbox><div class = fixation>+</div></div>","none","2000","test","","","","",""
"981","89","poldrack-single-stim","319","548413","0.0-280.0","sub-14_ses-03_2","","1772","0","probe","","<div class = centerbox><div class = img-container><img src = ""/static/experiments/dot_pattern_expectancy/images/probe6.png""</img></div></div>","89,71","500","test","AX","8","89","true",""
"-1","-1","poldrack-single-stim","320","548924","0.0-281.0","sub-14_ses-03_2","","500","0","cue","","<div class = centerbox><div class = img-container><img src = ""/static/experiments/dot_pattern_expectancy/images/cue6.png""</img></div></div>","none","500","test","BY","9","","",""
"-1","-1","poldrack-single-stim","321","550944","0.0-282.0","sub-14_ses-03_2","","2000","0","fixation","","<div class = centerbox><div class = fixation>+</div></div>","none","2000","test","","","","",""
"416","71","poldrack-single-stim","322","553414","0.0-283.0","sub-14_ses-03_2","","2452","0","probe","","<div class = centerbox><div class = img-container><img src = ""/static/experiments/dot_pattern_expectancy/images/probe3.png""</img></div></div>","89,71","500","test","BY","9","71","true",""
"-1","-1","poldrack-single-stim","323","553933","0.0-284.0","sub-14_ses-03_2","","500","0","cue","","<div class = centerbox><div class = img-container><img src = ""/static/experiments/dot_pattern_expectancy/images/cue2.png""</img></div></div>","none","500","test","AX","10","","",""
"-1","-1","poldrack-single-stim","324","555944","0.0-285.0","sub-14_ses-03_2","","2000","0","fixation","","<div class = centerbox><div class = fixation>+</div></div>","none","2000","test","","","","",""
"474","89","poldrack-single-stim","325","557863","0.0-286.0","sub-14_ses-03_2","","1908","0","probe","","<div class = centerbox><div class = img-container><img src = ""/static/experiments/dot_pattern_expectancy/images/probe6.png""</img></div></div>","89,71","500","test","AX","10","89","true",""
"-1","-1","poldrack-single-stim","326","558384","0.0-287.0","sub-14_ses-03_2","","500","0","cue","","<div class = centerbox><div class = img-container><img src = ""/static/experiments/dot_pattern_expectancy/images/cue6.png""</img></div></div>","none","500","test","BX","11","","",""
"-1","-1","poldrack-single-stim","327","560405","0.0-288.0","sub-14_ses-03_2","","2000","0","fixation","","<div class = centerbox><div class = fixation>+</div></div>","none","2000","test","","","","",""
"683","71","poldrack-single-stim","328","562063","0.0-289.0","sub-14_ses-03_2","","1636","0","probe","","<div class = centerbox><div class = img-container><img src = ""/static/experiments/dot_pattern_expectancy/images/probe6.png""</img></div></div>","89,71","500","test","BX","11","71","true",""
"-1","-1","poldrack-single-stim","329","562583","0.0-290.0","sub-14_ses-03_2","","500","0","cue","","<div class = centerbox><div class = img-container><img src = ""/static/experiments/dot_pattern_expectancy/images/cue2.png""</img></div></div>","none","500","test","AX","12","","",""
"-1","-1","poldrack-single-stim","330","564594","0.0-291.0","sub-14_ses-03_2","","2000","0","fixation","","<div class = centerbox><div class = fixation>+</div></div>","none","2000","test","","","","",""
"403","89","poldrack-single-stim","331","566113","0.0-292.0","sub-14_ses-03_2","","1500","0","probe","","<div class = centerbox><div class = img-container><img src = ""/static/experiments/dot_pattern_expectancy/images/probe6.png""</img></div></div>","89,71","500","test","AX","12","89","true",""
"-1","-1","poldrack-single-stim","332","566633","0.0-293.0","sub-14_ses-03_2","","500","0","cue","","<div class = centerbox><div class = img-container><img src = ""/static/experiments/dot_pattern_expectancy/images/cue2.png""</img></div></div>","none","500","test","AX","13","","",""
"-1","-1","poldrack-single-stim","333","568654","0.0-294.0","sub-14_ses-03_2","","2000","0","fixation","","<div class = centerbox><div class = fixation>+</div></div>","none","2000","test","","","","",""
"401","89","poldrack-single-stim","334","570294","0.0-295.0","sub-14_ses-03_2","","1636","0","probe","","<div class = centerbox><div class = img-container><img src = ""/static/experiments/dot_pattern_expectancy/images/probe6.png""</img></div></div>","89,71","500","test","AX","13","89","true",""
"-1","-1","poldrack-single-stim","335","570814","0.0-296.0","sub-14_ses-03_2","","500","0","cue","","<div class = centerbox><div class = img-container><img src = ""/static/experiments/dot_pattern_expectancy/images/cue2.png""</img></div></div>","none","500","test","AX","14","","",""
"-1","-1","poldrack-single-stim","336","572834","0.0-297.0","sub-14_ses-03_2","","2000","0","fixation","","<div class = centerbox><div class = fixation>+</div></div>","none","2000","test","","","","",""
"957","89","poldrack-single-stim","337","574484","0.0-298.0","sub-14_ses-03_2","","1636","0","probe","","<div class = centerbox><div class = img-container><img src = ""/static/experiments/dot_pattern_expectancy/images/probe6.png""</img></div></div>","89,71","500","test","AX","14","89","true",""
"-1","-1","poldrack-single-stim","338","575005","0.0-299.0","sub-14_ses-03_2","","500","0","cue","","<div class = centerbox><div class = img-container><img src = ""/static/experiments/dot_pattern_expectancy/images/cue1.png""</img></div></div>","none","500","test","BY","15","","",""
"-1","-1","poldrack-single-stim","339","577024","0.0-300.0","sub-14_ses-03_2","","2000","0","fixation","","<div class = centerbox><div class = fixation>+</div></div>","none","2000","test","","","","",""
"273","71","poldrack-single-stim","340","579494","0.0-301.0","sub-14_ses-03_2","","2452","0","probe","","<div class = centerbox><div class = img-container><img src = ""/static/experiments/dot_pattern_expectancy/images/probe5.png""</img></div></div>","89,71","500","test","BY","15","71","true",""
"-1","-1","poldrack-single-stim","341","580006","0.0-302.0","sub-14_ses-03_2","","500","0","cue","","<div class = centerbox><div class = img-container><img src = ""/static/experiments/dot_pattern_expectancy/images/cue2.png""</img></div></div>","none","500","test","AX","16","","",""
"-1","-1","poldrack-single-stim","342","582023","0.0-303.0","sub-14_ses-03_2","","2000","0","fixation","","<div class = centerbox><div class = fixation>+</div></div>","none","2000","test","","","","",""
"366","89","poldrack-single-stim","343","583533","0.0-304.0","sub-14_ses-03_2","","1500","0","probe","","<div class = centerbox><div class = img-container><img src = ""/static/experiments/dot_pattern_expectancy/images/probe6.png""</img></div></div>","89,71","500","test","AX","16","89","true",""
"-1","-1","poldrack-single-stim","344","584054","0.0-305.0","sub-14_ses-03_2","","500","0","cue","","<div class = centerbox><div class = img-container><img src = ""/static/experiments/dot_pattern_expectancy/images/cue5.png""</img></div></div>","none","500","test","BY","17","","",""
"-1","-1","poldrack-single-stim","345","586074","0.0-306.0","sub-14_ses-03_2","","2000","0","fixation","","<div class = centerbox><div class = fixation>+</div></div>","none","2000","test","","","","",""
"253","71","poldrack-single-stim","346","587594","0.0-307.0","sub-14_ses-03_2","","1500","0","probe","","<div class = centerbox><div class = img-container><img src = ""/static/experiments/dot_pattern_expectancy/images/probe3.png""</img></div></div>","89,71","500","test","BY","17","71","true",""
"-1","-1","poldrack-single-stim","347","588114","0.0-308.0","sub-14_ses-03_2","","500","0","cue","","<div class = centerbox><div class = img-container><img src = ""/static/experiments/dot_pattern_expectancy/images/cue2.png""</img></div></div>","none","500","test","AX","18","","",""
"-1","-1","poldrack-single-stim","348","590134","0.0-309.0","sub-14_ses-03_2","","2000","0","fixation","","<div class = centerbox><div class = fixation>+</div></div>","none","2000","test","","","","",""
"344","89","poldrack-single-stim","349","591774","0.0-310.0","sub-14_ses-03_2","","1636","0","probe","","<div class = centerbox><div class = img-container><img src = ""/static/experiments/dot_pattern_expectancy/images/probe6.png""</img></div></div>","89,71","500","test","AX","18","89","true",""
"-1","-1","poldrack-single-stim","350","592284","0.0-311.0","sub-14_ses-03_2","","500","0","cue","","<div class = centerbox><div class = img-container><img src = ""/static/experiments/dot_pattern_expectancy/images/cue2.png""</img></div></div>","none","500","test","AX","19","","",""
"-1","-1","poldrack-single-stim","351","594304","0.0-312.0","sub-14_ses-03_2","","2000","0","fixation","","<div class = centerbox><div class = fixation>+</div></div>","none","2000","test","","","","",""
"311","89","poldrack-single-stim","352","595944","0.0-313.0","sub-14_ses-03_2","","1636","0","probe","","<div class = centerbox><div class = img-container><img src = ""/static/experiments/dot_pattern_expectancy/images/probe6.png""</img></div></div>","89,71","500","test","AX","19","89","true",""
"-1","-1","poldrack-single-stim","353","596465","0.0-314.0","sub-14_ses-03_2","","500","0","cue","","<div class = centerbox><div class = img-container><img src = ""/static/experiments/dot_pattern_expectancy/images/cue2.png""</img></div></div>","none","500","test","AY","20","","",""
"-1","-1","poldrack-single-stim","354","598484","0.0-315.0","sub-14_ses-03_2","","2000","0","fixation","","<div class = centerbox><div class = fixation>+</div></div>","none","2000","test","","","","",""
"584","71","poldrack-single-stim","355","600124","0.0-316.0","sub-14_ses-03_2","","1636","0","probe","","<div class = centerbox><div class = img-container><img src = ""/static/experiments/dot_pattern_expectancy/images/probe2.png""</img></div></div>","89,71","500","test","AY","20","71","true",""
"-1","-1","poldrack-single-stim","356","600644","0.0-317.0","sub-14_ses-03_2","","500","0","cue","","<div class = centerbox><div class = img-container><img src = ""/static/experiments/dot_pattern_expectancy/images/cue2.png""</img></div></div>","none","500","test","AX","21","","",""
"-1","-1","poldrack-single-stim","357","602663","0.0-318.0","sub-14_ses-03_2","","2000","0","fixation","","<div class = centerbox><div class = fixation>+</div></div>","none","2000","test","","","","",""
"586","89","poldrack-single-stim","358","604184","0.0-319.0","sub-14_ses-03_2","","1500","0","probe","","<div class = centerbox><div class = img-container><img src = ""/static/experiments/dot_pattern_expectancy/images/probe6.png""</img></div></div>","89,71","500","test","AX","21","89","true",""
"-1","-1","poldrack-single-stim","359","604704","0.0-320.0","sub-14_ses-03_2","","500","0","cue","","<div class = centerbox><div class = img-container><img src = ""/static/experiments/dot_pattern_expectancy/images/cue2.png""</img></div></div>","none","500","test","AX","22","","",""
"-1","-1","poldrack-single-stim","360","606723","0.0-321.0","sub-14_ses-03_2","","2000","0","fixation","","<div class = centerbox><div class = fixation>+</div></div>","none","2000","test","","","","",""
"341","89","poldrack-single-stim","361","608239","0.0-322.0","sub-14_ses-03_2","","1500","0","probe","","<div class = centerbox><div class = img-container><img src = ""/static/experiments/dot_pattern_expectancy/images/probe6.png""</img></div></div>","89,71","500","test","AX","22","89","true",""
"-1","-1","poldrack-single-stim","362","608755","0.0-323.0","sub-14_ses-03_2","","500","0","cue","","<div class = centerbox><div class = img-container><img src = ""/static/experiments/dot_pattern_expectancy/images/cue2.png""</img></div></div>","none","500","test","AX","23","","",""
"-1","-1","poldrack-single-stim","363","610765","0.0-324.0","sub-14_ses-03_2","","2000","0","fixation","","<div class = centerbox><div class = fixation>+</div></div>","none","2000","test","","","","",""
"753","89","poldrack-single-stim","364","612553","0.0-325.0","sub-14_ses-03_2","","1772","0","probe","","<div class = centerbox><div class = img-container><img src = ""/static/experiments/dot_pattern_expectancy/images/probe6.png""</img></div></div>","89,71","500","test","AX","23","89","true",""
"-1","-1","poldrack-single-stim","365","613074","0.0-326.0","sub-14_ses-03_2","","500","0","cue","","<div class = centerbox><div class = img-container><img src = ""/static/experiments/dot_pattern_expectancy/images/cue2.png""</img></div></div>","none","500","test","AX","24","","",""
"-1","-1","poldrack-single-stim","366","615094","0.0-327.0","sub-14_ses-03_2","","2000","0","fixation","","<div class = centerbox><div class = fixation>+</div></div>","none","2000","test","","","","",""
"506","89","poldrack-single-stim","367","617293","0.0-328.0","sub-14_ses-03_2","","2180","0","probe","","<div class = centerbox><div class = img-container><img src = ""/static/experiments/dot_pattern_expectancy/images/probe6.png""</img></div></div>","89,71","500","test","AX","24","89","true",""
"-1","-1","poldrack-single-stim","368","617814","0.0-329.0","sub-14_ses-03_2","","500","0","cue","","<div class = centerbox><div class = img-container><img src = ""/static/experiments/dot_pattern_expectancy/images/cue1.png""</img></div></div>","none","500","test","BX","25","","",""
"-1","-1","poldrack-single-stim","369","619824","0.0-330.0","sub-14_ses-03_2","","2000","0","fixation","","<div class = centerbox><div class = fixation>+</div></div>","none","2000","test","","","","",""
"841","71","poldrack-single-stim","370","621604","0.0-331.0","sub-14_ses-03_2","","1772","0","probe","","<div class = centerbox><div class = img-container><img src = ""/static/experiments/dot_pattern_expectancy/images/probe6.png""</img></div></div>","89,71","500","test","BX","25","71","true",""
"-1","-1","poldrack-single-stim","371","622123","0.0-332.0","sub-14_ses-03_2","","500","0","cue","","<div class = centerbox><div class = img-container><img src = ""/static/experiments/dot_pattern_expectancy/images/cue6.png""</img></div></div>","none","500","test","BY","26","","",""
"-1","-1","poldrack-single-stim","372","624144","0.0-333.0","sub-14_ses-03_2","","2000","0","fixation","","<div class = centerbox><div class = fixation>+</div></div>","none","2000","test","","","","",""
"382","71","poldrack-single-stim","373","625664","0.0-334.0","sub-14_ses-03_2","","1500","0","probe","","<div class = centerbox><div class = img-container><img src = ""/static/experiments/dot_pattern_expectancy/images/probe1.png""</img></div></div>","89,71","500","test","BY","26","71","true",""
"-1","-1","poldrack-single-stim","374","626184","0.0-335.0","sub-14_ses-03_2","","500","0","cue","","<div class = centerbox><div class = img-container><img src = ""/static/experiments/dot_pattern_expectancy/images/cue2.png""</img></div></div>","none","500","test","AX","27","","",""
"-1","-1","poldrack-single-stim","375","628194","0.0-336.0","sub-14_ses-03_2","","2000","0","fixation","","<div class = centerbox><div class = fixation>+</div></div>","none","2000","test","","","","",""
"567","89","poldrack-single-stim","376","629713","0.0-337.0","sub-14_ses-03_2","","1500","0","probe","","<div class = centerbox><div class = img-container><img src = ""/static/experiments/dot_pattern_expectancy/images/probe6.png""</img></div></div>","89,71","500","test","AX","27","89","true",""
"-1","-1","poldrack-single-stim","377","630235","0.0-338.0","sub-14_ses-03_2","","500","0","cue","","<div class = centerbox><div class = img-container><img src = ""/static/experiments/dot_pattern_expectancy/images/cue2.png""</img></div></div>","none","500","test","AX","28","","",""
"-1","-1","poldrack-single-stim","378","632254","0.0-339.0","sub-14_ses-03_2","","2000","0","fixation","","<div class = centerbox><div class = fixation>+</div></div>","none","2000","test","","","","",""
"650","89","poldrack-single-stim","379","633894","0.0-340.0","sub-14_ses-03_2","","1636","0","probe","","<div class = centerbox><div class = img-container><img src = ""/static/experiments/dot_pattern_expectancy/images/probe6.png""</img></div></div>","89,71","500","test","AX","28","89","true",""
"-1","-1","poldrack-single-stim","380","634412","0.0-341.0","sub-14_ses-03_2","","500","0","cue","","<div class = centerbox><div class = img-container><img src = ""/static/experiments/dot_pattern_expectancy/images/cue2.png""</img></div></div>","none","500","test","AY","29","","",""
"-1","-1","poldrack-single-stim","381","636423","0.0-342.0","sub-14_ses-03_2","","2000","0","fixation","","<div class = centerbox><div class = fixation>+</div></div>","none","2000","test","","","","",""
"1254","71","poldrack-single-stim","382","638614","0.0-343.0","sub-14_ses-03_2","","2180","0","probe","","<div class = centerbox><div class = img-container><img src = ""/static/experiments/dot_pattern_expectancy/images/probe5.png""</img></div></div>","89,71","500","test","AY","29","71","true",""
"-1","-1","poldrack-single-stim","383","639134","0.0-344.0","sub-14_ses-03_2","","500","0","cue","","<div class = centerbox><div class = img-container><img src = ""/static/experiments/dot_pattern_expectancy/images/cue2.png""</img></div></div>","none","500","test","AY","30","","",""
"-1","-1","poldrack-single-stim","384","641143","0.0-345.0","sub-14_ses-03_2","","2000","0","fixation","","<div class = centerbox><div class = fixation>+</div></div>","none","2000","test","","","","",""
