"rt","key_press","trial_type","trial_index","time_elapsed","internal_node_id","subject","text","block_duration","timing_post_trial","trial_id","responses","stimulus","possible_responses","stim_duration","correct","correct_response","feedback_duration","exp_stage","trial_num","SS_stimulus","SS_delay","SS_trial_type","SS_duration","condition","stop_response","exp_id"
"2131","13","text","0","2134","0.0-0.0","sub-06_ses-02_2","","","","","","","","","","","","","","","","","","","",""
"677","89","poldrack-text","1","3815","0.0-1.0","sub-06_ses-02_2","<div class = centerbox><div style = 'font-size: 50px' class = center-text>Veuillez appuyer avec votre index</p></div>","677","500","fmri_response_test","","","","","","","","","","","","","","","",""
"442","71","poldrack-text","2","4769","0.0-2.0","sub-06_ses-02_2","<div class = centerbox><div style = 'font-size: 50px' class = center-text>Veuillez appuyer avec votre majeur</p></div>","442","500","fmri_response_test","","","","","","","","","","","","","","","",""
"4015","","survey-text","3","9307","0.0-3.0","sub-06_ses-02_2","","","","task_setup","{""Q0"":""250""}","","","","","","","","","","","","","","",""
"4040","32","poldrack-single-stim","4","14437","0.0-4.0","sub-06_ses-02_2","","4040","0","instructions","","<div class = instructbox><p class = instruct-text><font size=""+2"">Une seule cle est correcte pour chaque forme. <strong>Ne repondez pas si vous voyez l'etoile rouge si votre response allait etre votre Index!</strong> Les cles correctes son les suivantes:<ul list-text><li><div class = prompt_container><img class = prompt_stim src = /static/experiments/motor_selective_stop_signal/images/circle.png width= ""50%"" height= ""50%""></img>Index</div></li></li><li><div class = prompt_container><img class = prompt_stim src = /static/experiments/motor_selective_stop_signal/images/Lshape.png width= ""50%"" height= ""50%""></img>Index</div></li> </li><li><div class = prompt_container><img class = prompt_stim src = /static/experiments/motor_selective_stop_signal/images/rhombus.png width= ""50%"" height= ""50%""></img>Majeur</div></li> </li><li><div class = prompt_container><img class = prompt_stim src = /static/experiments/motor_selective_stop_signal/images/triangle.png width= ""50%"" height= ""50%""></img>Majeur</div></li></ul></font></div>","32","4040","","","","","","","","","","","",""
"991","71","poldrack-categorize","5","16834","0.0-5.0-0.0-0.0","sub-06_ses-02_2","","1850","250","stim","","<div class = coverbox></div><div class = shapebox><img class = stim src = /static/experiments/motor_selective_stop_signal/images/rhombus.png></img></div>","89,71","850","true","71","500","practice","0","","","","","","",""
"580","89","poldrack-categorize","6","19472","0.0-5.0-0.0-1.0","sub-06_ses-02_2","","1850","250","stim","","<div class = coverbox></div><div class = shapebox><img class = stim src = /static/experiments/motor_selective_stop_signal/images/Lshape.png></img></div>","89,71","850","true","89","500","practice","1","","","","","","",""
"466","71","poldrack-categorize","7","22112","0.0-5.0-0.0-2.0","sub-06_ses-02_2","","1850","250","stim","","<div class = coverbox></div><div class = shapebox><img class = stim src = /static/experiments/motor_selective_stop_signal/images/triangle.png></img></div>","89,71","850","true","71","500","practice","2","","","","","","",""
"694","71","poldrack-categorize","8","24751","0.0-5.0-0.0-3.0","sub-06_ses-02_2","","1850","250","stim","","<div class = coverbox></div><div class = shapebox><img class = stim src = /static/experiments/motor_selective_stop_signal/images/rhombus.png></img></div>","89,71","850","true","71","500","practice","3","","","","","","",""
"425","71","poldrack-categorize","9","27402","0.0-5.0-0.0-4.0","sub-06_ses-02_2","","1850","250","stim","","<div class = coverbox></div><div class = shapebox><img class = stim src = /static/experiments/motor_selective_stop_signal/images/triangle.png></img></div>","89,71","850","true","71","500","practice","4","","","","","","",""
"484","89","poldrack-categorize","10","30051","0.0-5.0-0.0-5.0","sub-06_ses-02_2","","1850","250","stim","","<div class = coverbox></div><div class = shapebox><img class = stim src = /static/experiments/motor_selective_stop_signal/images/circle.png></img></div>","89,71","850","true","89","500","practice","5","","","","","","",""
"592","89","poldrack-categorize","11","32692","0.0-5.0-0.0-6.0","sub-06_ses-02_2","","1850","250","stim","","<div class = coverbox></div><div class = shapebox><img class = stim src = /static/experiments/motor_selective_stop_signal/images/Lshape.png></img></div>","89,71","850","true","89","500","practice","6","","","","","","",""
"545","71","poldrack-categorize","12","35332","0.0-5.0-0.0-7.0","sub-06_ses-02_2","","1850","250","stim","","<div class = coverbox></div><div class = shapebox><img class = stim src = /static/experiments/motor_selective_stop_signal/images/triangle.png></img></div>","89,71","850","true","71","500","practice","7","","","","","","",""
"474","89","poldrack-categorize","13","37973","0.0-5.0-0.0-8.0","sub-06_ses-02_2","","1850","250","stim","","<div class = coverbox></div><div class = shapebox><img class = stim src = /static/experiments/motor_selective_stop_signal/images/Lshape.png></img></div>","89,71","850","true","89","500","practice","8","","","","","","",""
"664","89","poldrack-categorize","14","40613","0.0-5.0-0.0-9.0","sub-06_ses-02_2","","1850","250","stim","","<div class = coverbox></div><div class = shapebox><img class = stim src = /static/experiments/motor_selective_stop_signal/images/circle.png></img></div>","89,71","850","true","89","500","practice","9","","","","","","",""
"-1","-1","poldrack-categorize","15","43242","0.0-5.0-0.0-10.0","sub-06_ses-02_2","","1850","250","stim","","<div class = coverbox></div><div class = shapebox><img class = stim src = /static/experiments/motor_selective_stop_signal/images/circle.png></img></div>","89,71","850","false","89","500","practice","10","","","","","","",""
"615","71","poldrack-categorize","16","45881","0.0-5.0-0.0-11.0","sub-06_ses-02_2","","1850","250","stim","","<div class = coverbox></div><div class = shapebox><img class = stim src = /static/experiments/motor_selective_stop_signal/images/rhombus.png></img></div>","89,71","850","true","71","500","practice","11","","","","","","",""
"2259","32","poldrack-text","17","48407","0.0-6.0","sub-06_ses-02_2","<div class = centerbox><div  class = center-text>Scanner Setup</div></div>","2259","0","fmri_scanner_wait","","","","","","","","","","","","","","","",""
"72028","84","poldrack-text","18","120438","0.0-7.0","sub-06_ses-02_2","<div class = centerbox><div style='color:red'; class = center-text>+</div></div>","72028","0","fmri_trigger_wait","","","","","","","","","","","","","","","",""
"-1","-1","poldrack-single-stim","19","121467","0.0-8.0","sub-06_ses-02_2","","1000","0","fmri_buffer","","","none","1000","","","","","","","","","","","",""
"-1","-1","poldrack-single-stim","20","122995","0.0-9.0","sub-06_ses-02_2","","1500","500","test_start_block","","<div class = centerbox><div class = center-text>Preparez-vous!</p></div>","none","1500","","","","","","","","","","","",""
"466","71","stop-signal","21","125793","0.0-10.0","sub-06_ses-02_2","","2250","0","stim","","<div class = coverbox></div><div class = shapebox><img class = stim src = /static/experiments/motor_selective_stop_signal/images/triangle.png></img></div>","89,71","850","","71","","test","0","<div class = coverbox></div><div class = stopbox><div class = centered-shape id = stop-signal></div><div class = centered-shape id = stop-signal-inner></div></div>","250","go","500","go","89",""
"558","71","stop-signal","22","128063","0.0-11.0","sub-06_ses-02_2","","2250","0","stim","","<div class = coverbox></div><div class = shapebox><img class = stim src = /static/experiments/motor_selective_stop_signal/images/rhombus.png></img></div>","89,71","850","","71","","test","1","<div class = coverbox></div><div class = stopbox><div class = centered-shape id = stop-signal></div><div class = centered-shape id = stop-signal-inner></div></div>","250","go","500","go","89",""
"604","71","stop-signal","23","130424","0.0-12.0","sub-06_ses-02_2","","2350","0","stim","","<div class = coverbox></div><div class = shapebox><img class = stim src = /static/experiments/motor_selective_stop_signal/images/rhombus.png></img></div>","89,71","850","","71","","test","2","<div class = coverbox></div><div class = stopbox><div class = centered-shape id = stop-signal></div><div class = centered-shape id = stop-signal-inner></div></div>","250","stop","500","ignore","89",""
"929","71","stop-signal","24","132993","0.0-13.0","sub-06_ses-02_2","","2550","0","stim","","<div class = coverbox></div><div class = shapebox><img class = stim src = /static/experiments/motor_selective_stop_signal/images/Lshape.png></img></div>","89,71","850","","89","","test","3","<div class = coverbox></div><div class = stopbox><div class = centered-shape id = stop-signal></div><div class = centered-shape id = stop-signal-inner></div></div>","250","stop","500","stop","89",""
"628","71","stop-signal","25","135952","0.0-14.0","sub-06_ses-02_2","","2950","0","stim","","<div class = coverbox></div><div class = shapebox><img class = stim src = /static/experiments/motor_selective_stop_signal/images/rhombus.png></img></div>","89,71","850","","71","","test","4","<div class = coverbox></div><div class = stopbox><div class = centered-shape id = stop-signal></div><div class = centered-shape id = stop-signal-inner></div></div>","200","go","500","go","89",""
"-1","-1","stop-signal","26","138223","0.0-15.0","sub-06_ses-02_2","","2250","0","stim","","<div class = coverbox></div><div class = shapebox><img class = stim src = /static/experiments/motor_selective_stop_signal/images/circle.png></img></div>","89,71","850","","89","","test","5","<div class = coverbox></div><div class = stopbox><div class = centered-shape id = stop-signal></div><div class = centered-shape id = stop-signal-inner></div></div>","200","stop","500","stop","89",""
"873","89","stop-signal","27","140583","0.0-16.0","sub-06_ses-02_2","","2350","0","stim","","<div class = coverbox></div><div class = shapebox><img class = stim src = /static/experiments/motor_selective_stop_signal/images/circle.png></img></div>","89,71","850","","89","","test","6","<div class = coverbox></div><div class = stopbox><div class = centered-shape id = stop-signal></div><div class = centered-shape id = stop-signal-inner></div></div>","250","go","500","go","89",""
"1119","71","stop-signal","28","143153","0.0-17.0","sub-06_ses-02_2","","2550","0","stim","","<div class = coverbox></div><div class = shapebox><img class = stim src = /static/experiments/motor_selective_stop_signal/images/rhombus.png></img></div>","89,71","850","","71","","test","7","<div class = coverbox></div><div class = stopbox><div class = centered-shape id = stop-signal></div><div class = centered-shape id = stop-signal-inner></div></div>","250","go","500","go","89",""
"915","71","stop-signal","29","145413","0.0-18.0","sub-06_ses-02_2","","2250","0","stim","","<div class = coverbox></div><div class = shapebox><img class = stim src = /static/experiments/motor_selective_stop_signal/images/rhombus.png></img></div>","89,71","850","","71","","test","8","<div class = coverbox></div><div class = stopbox><div class = centered-shape id = stop-signal></div><div class = centered-shape id = stop-signal-inner></div></div>","250","stop","500","ignore","89",""
"788","71","stop-signal","30","147772","0.0-19.0","sub-06_ses-02_2","","2350","0","stim","","<div class = coverbox></div><div class = shapebox><img class = stim src = /static/experiments/motor_selective_stop_signal/images/rhombus.png></img></div>","89,71","850","","71","","test","9","<div class = coverbox></div><div class = stopbox><div class = centered-shape id = stop-signal></div><div class = centered-shape id = stop-signal-inner></div></div>","250","stop","500","ignore","89",""
"674","71","stop-signal","31","150343","0.0-20.0","sub-06_ses-02_2","","2550","0","stim","","<div class = coverbox></div><div class = shapebox><img class = stim src = /static/experiments/motor_selective_stop_signal/images/rhombus.png></img></div>","89,71","850","","71","","test","10","<div class = coverbox></div><div class = stopbox><div class = centered-shape id = stop-signal></div><div class = centered-shape id = stop-signal-inner></div></div>","250","stop","500","ignore","89",""
"672","71","stop-signal","32","152802","0.0-21.0","sub-06_ses-02_2","","2450","0","stim","","<div class = coverbox></div><div class = shapebox><img class = stim src = /static/experiments/motor_selective_stop_signal/images/rhombus.png></img></div>","89,71","850","","71","","test","11","<div class = coverbox></div><div class = stopbox><div class = centered-shape id = stop-signal></div><div class = centered-shape id = stop-signal-inner></div></div>","250","stop","500","ignore","89",""
"630","71","stop-signal","33","155162","0.0-22.0","sub-06_ses-02_2","","2350","0","stim","","<div class = coverbox></div><div class = shapebox><img class = stim src = /static/experiments/motor_selective_stop_signal/images/rhombus.png></img></div>","89,71","850","","71","","test","12","<div class = coverbox></div><div class = stopbox><div class = centered-shape id = stop-signal></div><div class = centered-shape id = stop-signal-inner></div></div>","250","go","500","go","89",""
"1166","89","stop-signal","34","157821","0.0-23.0","sub-06_ses-02_2","","2650","0","stim","","<div class = coverbox></div><div class = shapebox><img class = stim src = /static/experiments/motor_selective_stop_signal/images/Lshape.png></img></div>","89,71","850","","89","","test","13","<div class = coverbox></div><div class = stopbox><div class = centered-shape id = stop-signal></div><div class = centered-shape id = stop-signal-inner></div></div>","250","go","500","go","89",""
"1169","89","stop-signal","35","160392","0.0-24.0","sub-06_ses-02_2","","2550","0","stim","","<div class = coverbox></div><div class = shapebox><img class = stim src = /static/experiments/motor_selective_stop_signal/images/circle.png></img></div>","89,71","850","","89","","test","14","<div class = coverbox></div><div class = stopbox><div class = centered-shape id = stop-signal></div><div class = centered-shape id = stop-signal-inner></div></div>","250","go","500","go","89",""
"-1","-1","stop-signal","36","163152","0.0-25.0","sub-06_ses-02_2","","2750","0","stim","","<div class = coverbox></div><div class = shapebox><img class = stim src = /static/experiments/motor_selective_stop_signal/images/Lshape.png></img></div>","89,71","850","","89","","test","15","<div class = coverbox></div><div class = stopbox><div class = centered-shape id = stop-signal></div><div class = centered-shape id = stop-signal-inner></div></div>","250","stop","500","stop","89",""
"-1","-1","stop-signal","37","165712","0.0-26.0","sub-06_ses-02_2","","2550","0","stim","","<div class = coverbox></div><div class = shapebox><img class = stim src = /static/experiments/motor_selective_stop_signal/images/circle.png></img></div>","89,71","850","","89","","test","16","<div class = coverbox></div><div class = stopbox><div class = centered-shape id = stop-signal></div><div class = centered-shape id = stop-signal-inner></div></div>","300","stop","500","stop","89",""
"766","71","stop-signal","38","168171","0.0-27.0","sub-06_ses-02_2","","2450","0","stim","","<div class = coverbox></div><div class = shapebox><img class = stim src = /static/experiments/motor_selective_stop_signal/images/rhombus.png></img></div>","89,71","850","","71","","test","17","<div class = coverbox></div><div class = stopbox><div class = centered-shape id = stop-signal></div><div class = centered-shape id = stop-signal-inner></div></div>","350","stop","500","ignore","89",""
"1157","89","stop-signal","39","170930","0.0-28.0","sub-06_ses-02_2","","2750","0","stim","","<div class = coverbox></div><div class = shapebox><img class = stim src = /static/experiments/motor_selective_stop_signal/images/Lshape.png></img></div>","89,71","850","","89","","test","18","<div class = coverbox></div><div class = stopbox><div class = centered-shape id = stop-signal></div><div class = centered-shape id = stop-signal-inner></div></div>","350","go","500","go","89",""
"1309","89","stop-signal","40","173492","0.0-29.0","sub-06_ses-02_2","","2550","0","stim","","<div class = coverbox></div><div class = shapebox><img class = stim src = /static/experiments/motor_selective_stop_signal/images/circle.png></img></div>","89,71","850","","89","","test","19","<div class = coverbox></div><div class = stopbox><div class = centered-shape id = stop-signal></div><div class = centered-shape id = stop-signal-inner></div></div>","350","go","500","go","89",""
"1045","89","stop-signal","41","175853","0.0-30.0","sub-06_ses-02_2","","2350","0","stim","","<div class = coverbox></div><div class = shapebox><img class = stim src = /static/experiments/motor_selective_stop_signal/images/circle.png></img></div>","89,71","850","","89","","test","20","<div class = coverbox></div><div class = stopbox><div class = centered-shape id = stop-signal></div><div class = centered-shape id = stop-signal-inner></div></div>","350","stop","500","stop","89",""
"1151","89","stop-signal","42","178113","0.0-31.0","sub-06_ses-02_2","","2250","0","stim","","<div class = coverbox></div><div class = shapebox><img class = stim src = /static/experiments/motor_selective_stop_signal/images/circle.png></img></div>","89,71","850","","89","","test","21","<div class = coverbox></div><div class = stopbox><div class = centered-shape id = stop-signal></div><div class = centered-shape id = stop-signal-inner></div></div>","300","go","500","go","89",""
"1288","89","stop-signal","43","180771","0.0-32.0","sub-06_ses-02_2","","2650","0","stim","","<div class = coverbox></div><div class = shapebox><img class = stim src = /static/experiments/motor_selective_stop_signal/images/circle.png></img></div>","89,71","850","","89","","test","22","<div class = coverbox></div><div class = stopbox><div class = centered-shape id = stop-signal></div><div class = centered-shape id = stop-signal-inner></div></div>","300","go","500","go","89",""
"-1","-1","stop-signal","44","183043","0.0-33.0","sub-06_ses-02_2","","2250","0","stim","","<div class = coverbox></div><div class = shapebox><img class = stim src = /static/experiments/motor_selective_stop_signal/images/circle.png></img></div>","89,71","850","","89","","test","23","<div class = coverbox></div><div class = stopbox><div class = centered-shape id = stop-signal></div><div class = centered-shape id = stop-signal-inner></div></div>","300","stop","500","stop","89",""
"1219","89","stop-signal","45","185402","0.0-34.0","sub-06_ses-02_2","","2350","0","stim","","<div class = coverbox></div><div class = shapebox><img class = stim src = /static/experiments/motor_selective_stop_signal/images/Lshape.png></img></div>","89,71","850","","89","","test","24","<div class = coverbox></div><div class = stopbox><div class = centered-shape id = stop-signal></div><div class = centered-shape id = stop-signal-inner></div></div>","350","go","500","go","89",""
"373","71","stop-signal","46","187661","0.0-35.0","sub-06_ses-02_2","","2250","0","stim","","<div class = coverbox></div><div class = shapebox><img class = stim src = /static/experiments/motor_selective_stop_signal/images/rhombus.png></img></div>","89,71","850","","71","","test","25","<div class = coverbox></div><div class = stopbox><div class = centered-shape id = stop-signal></div><div class = centered-shape id = stop-signal-inner></div></div>","350","go","500","go","89",""
"1097","89","stop-signal","47","190032","0.0-36.0","sub-06_ses-02_2","","2350","0","stim","","<div class = coverbox></div><div class = shapebox><img class = stim src = /static/experiments/motor_selective_stop_signal/images/Lshape.png></img></div>","89,71","850","","89","","test","26","<div class = coverbox></div><div class = stopbox><div class = centered-shape id = stop-signal></div><div class = centered-shape id = stop-signal-inner></div></div>","350","go","500","go","89",""
"968","89","stop-signal","48","192392","0.0-37.0","sub-06_ses-02_2","","2350","0","stim","","<div class = coverbox></div><div class = shapebox><img class = stim src = /static/experiments/motor_selective_stop_signal/images/Lshape.png></img></div>","89,71","850","","89","","test","27","<div class = coverbox></div><div class = stopbox><div class = centered-shape id = stop-signal></div><div class = centered-shape id = stop-signal-inner></div></div>","350","go","500","go","89",""
"1271","89","stop-signal","49","194662","0.0-38.0","sub-06_ses-02_2","","2250","0","stim","","<div class = coverbox></div><div class = shapebox><img class = stim src = /static/experiments/motor_selective_stop_signal/images/Lshape.png></img></div>","89,71","850","","89","","test","28","<div class = coverbox></div><div class = stopbox><div class = centered-shape id = stop-signal></div><div class = centered-shape id = stop-signal-inner></div></div>","350","go","500","go","89",""
"846","71","stop-signal","50","197523","0.0-39.0","sub-06_ses-02_2","","2850","0","stim","","<div class = coverbox></div><div class = shapebox><img class = stim src = /static/experiments/motor_selective_stop_signal/images/triangle.png></img></div>","89,71","850","","71","","test","29","<div class = coverbox></div><div class = stopbox><div class = centered-shape id = stop-signal></div><div class = centered-shape id = stop-signal-inner></div></div>","350","stop","500","ignore","89",""
"543","71","stop-signal","51","199881","0.0-40.0","sub-06_ses-02_2","","2350","0","stim","","<div class = coverbox></div><div class = shapebox><img class = stim src = /static/experiments/motor_selective_stop_signal/images/triangle.png></img></div>","89,71","850","","71","","test","30","<div class = coverbox></div><div class = stopbox><div class = centered-shape id = stop-signal></div><div class = centered-shape id = stop-signal-inner></div></div>","350","go","500","go","89",""
"1385","89","stop-signal","52","202143","0.0-41.0","sub-06_ses-02_2","","2250","0","stim","","<div class = coverbox></div><div class = shapebox><img class = stim src = /static/experiments/motor_selective_stop_signal/images/circle.png></img></div>","89,71","850","","89","","test","31","<div class = coverbox></div><div class = stopbox><div class = centered-shape id = stop-signal></div><div class = centered-shape id = stop-signal-inner></div></div>","350","go","500","go","89",""
"1225","71","stop-signal","53","204502","0.0-42.0","sub-06_ses-02_2","","2350","0","stim","","<div class = coverbox></div><div class = shapebox><img class = stim src = /static/experiments/motor_selective_stop_signal/images/triangle.png></img></div>","89,71","850","","71","","test","32","<div class = coverbox></div><div class = stopbox><div class = centered-shape id = stop-signal></div><div class = centered-shape id = stop-signal-inner></div></div>","350","go","500","go","89",""
"1204","89","stop-signal","54","206972","0.0-43.0","sub-06_ses-02_2","","2450","0","stim","","<div class = coverbox></div><div class = shapebox><img class = stim src = /static/experiments/motor_selective_stop_signal/images/Lshape.png></img></div>","89,71","850","","89","","test","33","<div class = coverbox></div><div class = stopbox><div class = centered-shape id = stop-signal></div><div class = centered-shape id = stop-signal-inner></div></div>","350","go","500","go","89",""
"-1","-1","stop-signal","55","209242","0.0-44.0","sub-06_ses-02_2","","2250","0","stim","","<div class = coverbox></div><div class = shapebox><img class = stim src = /static/experiments/motor_selective_stop_signal/images/Lshape.png></img></div>","89,71","850","","89","","test","34","<div class = coverbox></div><div class = stopbox><div class = centered-shape id = stop-signal></div><div class = centered-shape id = stop-signal-inner></div></div>","350","stop","500","stop","89",""
"658","71","stop-signal","56","211502","0.0-45.0","sub-06_ses-02_2","","2250","0","stim","","<div class = coverbox></div><div class = shapebox><img class = stim src = /static/experiments/motor_selective_stop_signal/images/rhombus.png></img></div>","89,71","850","","71","","test","35","<div class = coverbox></div><div class = stopbox><div class = centered-shape id = stop-signal></div><div class = centered-shape id = stop-signal-inner></div></div>","400","stop","500","ignore","89",""
"961","71","stop-signal","57","214271","0.0-46.0","sub-06_ses-02_2","","2750","0","stim","","<div class = coverbox></div><div class = shapebox><img class = stim src = /static/experiments/motor_selective_stop_signal/images/triangle.png></img></div>","89,71","850","","71","","test","36","<div class = coverbox></div><div class = stopbox><div class = centered-shape id = stop-signal></div><div class = centered-shape id = stop-signal-inner></div></div>","400","go","500","go","89",""
"1103","71","stop-signal","58","216633","0.0-47.0","sub-06_ses-02_2","","2350","0","stim","","<div class = coverbox></div><div class = shapebox><img class = stim src = /static/experiments/motor_selective_stop_signal/images/rhombus.png></img></div>","89,71","850","","71","","test","37","<div class = coverbox></div><div class = stopbox><div class = centered-shape id = stop-signal></div><div class = centered-shape id = stop-signal-inner></div></div>","400","stop","500","ignore","89",""
"1230","89","stop-signal","59","219392","0.0-48.0","sub-06_ses-02_2","","2750","0","stim","","<div class = coverbox></div><div class = shapebox><img class = stim src = /static/experiments/motor_selective_stop_signal/images/circle.png></img></div>","89,71","850","","89","","test","38","<div class = coverbox></div><div class = stopbox><div class = centered-shape id = stop-signal></div><div class = centered-shape id = stop-signal-inner></div></div>","400","go","500","go","89",""
"1056","71","stop-signal","60","221852","0.0-49.0","sub-06_ses-02_2","","2450","0","stim","","<div class = coverbox></div><div class = shapebox><img class = stim src = /static/experiments/motor_selective_stop_signal/images/rhombus.png></img></div>","89,71","850","","71","","test","39","<div class = coverbox></div><div class = stopbox><div class = centered-shape id = stop-signal></div><div class = centered-shape id = stop-signal-inner></div></div>","400","go","500","go","89",""
"1125","89","stop-signal","61","224121","0.0-50.0","sub-06_ses-02_2","","2250","0","stim","","<div class = coverbox></div><div class = shapebox><img class = stim src = /static/experiments/motor_selective_stop_signal/images/Lshape.png></img></div>","89,71","850","","89","","test","40","<div class = coverbox></div><div class = stopbox><div class = centered-shape id = stop-signal></div><div class = centered-shape id = stop-signal-inner></div></div>","400","go","500","go","89",""
"-1","-1","stop-signal","62","226482","0.0-51.0","sub-06_ses-02_2","","2350","0","stim","","<div class = coverbox></div><div class = shapebox><img class = stim src = /static/experiments/motor_selective_stop_signal/images/circle.png></img></div>","89,71","850","","89","","test","41","<div class = coverbox></div><div class = stopbox><div class = centered-shape id = stop-signal></div><div class = centered-shape id = stop-signal-inner></div></div>","400","stop","500","stop","89",""
"534","71","stop-signal","63","229141","0.0-52.0","sub-06_ses-02_2","","2650","0","stim","","<div class = coverbox></div><div class = shapebox><img class = stim src = /static/experiments/motor_selective_stop_signal/images/triangle.png></img></div>","89,71","850","","71","","test","42","<div class = coverbox></div><div class = stopbox><div class = centered-shape id = stop-signal></div><div class = centered-shape id = stop-signal-inner></div></div>","450","go","500","go","89",""
"-1","-1","stop-signal","64","231602","0.0-53.0","sub-06_ses-02_2","","2450","0","stim","","<div class = coverbox></div><div class = shapebox><img class = stim src = /static/experiments/motor_selective_stop_signal/images/Lshape.png></img></div>","89,71","850","","89","","test","43","<div class = coverbox></div><div class = stopbox><div class = centered-shape id = stop-signal></div><div class = centered-shape id = stop-signal-inner></div></div>","450","stop","500","stop","89",""
"596","71","stop-signal","65","233872","0.0-54.0","sub-06_ses-02_2","","2250","0","stim","","<div class = coverbox></div><div class = shapebox><img class = stim src = /static/experiments/motor_selective_stop_signal/images/rhombus.png></img></div>","89,71","850","","71","","test","44","<div class = coverbox></div><div class = stopbox><div class = centered-shape id = stop-signal></div><div class = centered-shape id = stop-signal-inner></div></div>","500","go","500","go","89",""
"1284","71","stop-signal","66","236233","0.0-55.0","sub-06_ses-02_2","","2350","0","stim","","<div class = coverbox></div><div class = shapebox><img class = stim src = /static/experiments/motor_selective_stop_signal/images/rhombus.png></img></div>","89,71","850","","71","","test","45","<div class = coverbox></div><div class = stopbox><div class = centered-shape id = stop-signal></div><div class = centered-shape id = stop-signal-inner></div></div>","500","stop","500","ignore","89",""
"689","71","stop-signal","67","239193","0.0-56.0","sub-06_ses-02_2","","2950","0","stim","","<div class = coverbox></div><div class = shapebox><img class = stim src = /static/experiments/motor_selective_stop_signal/images/triangle.png></img></div>","89,71","850","","71","","test","46","<div class = coverbox></div><div class = stopbox><div class = centered-shape id = stop-signal></div><div class = centered-shape id = stop-signal-inner></div></div>","500","stop","500","ignore","89",""
"691","71","stop-signal","68","241452","0.0-57.0","sub-06_ses-02_2","","2250","0","stim","","<div class = coverbox></div><div class = shapebox><img class = stim src = /static/experiments/motor_selective_stop_signal/images/rhombus.png></img></div>","89,71","850","","71","","test","47","<div class = coverbox></div><div class = stopbox><div class = centered-shape id = stop-signal></div><div class = centered-shape id = stop-signal-inner></div></div>","500","go","500","go","89",""
"1209","89","stop-signal","69","244412","0.0-58.0","sub-06_ses-02_2","","2950","0","stim","","<div class = coverbox></div><div class = shapebox><img class = stim src = /static/experiments/motor_selective_stop_signal/images/circle.png></img></div>","89,71","850","","89","","test","48","<div class = coverbox></div><div class = stopbox><div class = centered-shape id = stop-signal></div><div class = centered-shape id = stop-signal-inner></div></div>","500","go","500","go","89",""
"663","71","stop-signal","70","246873","0.0-59.0","sub-06_ses-02_2","","2450","0","stim","","<div class = coverbox></div><div class = shapebox><img class = stim src = /static/experiments/motor_selective_stop_signal/images/triangle.png></img></div>","89,71","850","","71","","test","49","<div class = coverbox></div><div class = stopbox><div class = centered-shape id = stop-signal></div><div class = centered-shape id = stop-signal-inner></div></div>","500","stop","500","ignore","89",""
"-1","-1","poldrack-single-stim","71","254382","0.0-60.0","sub-06_ses-02_2","","7500","1000","rest_block","","<div class = centerbox><div class = center-text>+</div></div>","none","7500","","","","","","","","","","","",""
"-1","-1","poldrack-single-stim","72","256913","0.0-61.0","sub-06_ses-02_2","","1500","500","test_start_block","","<div class = centerbox><div class = center-text>Preparez-vous!</p></div>","none","1500","","","","","","","","","","","",""
"-1","-1","stop-signal","73","259693","0.0-62.0","sub-06_ses-02_2","","2250","0","stim","","<div class = coverbox></div><div class = shapebox><img class = stim src = /static/experiments/motor_selective_stop_signal/images/Lshape.png></img></div>","89,71","850","","89","","test","50","<div class = coverbox></div><div class = stopbox><div class = centered-shape id = stop-signal></div><div class = centered-shape id = stop-signal-inner></div></div>","500","stop","500","stop","89",""
"411","71","stop-signal","74","262052","0.0-63.0","sub-06_ses-02_2","","2350","0","stim","","<div class = coverbox></div><div class = shapebox><img class = stim src = /static/experiments/motor_selective_stop_signal/images/rhombus.png></img></div>","89,71","850","","71","","test","51","<div class = coverbox></div><div class = stopbox><div class = centered-shape id = stop-signal></div><div class = centered-shape id = stop-signal-inner></div></div>","550","go","500","go","89",""
"1096","89","stop-signal","75","264512","0.0-64.0","sub-06_ses-02_2","","2450","0","stim","","<div class = coverbox></div><div class = shapebox><img class = stim src = /static/experiments/motor_selective_stop_signal/images/circle.png></img></div>","89,71","850","","89","","test","52","<div class = coverbox></div><div class = stopbox><div class = centered-shape id = stop-signal></div><div class = centered-shape id = stop-signal-inner></div></div>","550","go","500","go","89",""
"-1","-1","stop-signal","76","266783","0.0-65.0","sub-06_ses-02_2","","2250","0","stim","","<div class = coverbox></div><div class = shapebox><img class = stim src = /static/experiments/motor_selective_stop_signal/images/circle.png></img></div>","89,71","850","","89","","test","53","<div class = coverbox></div><div class = stopbox><div class = centered-shape id = stop-signal></div><div class = centered-shape id = stop-signal-inner></div></div>","550","stop","500","stop","89",""
"649","71","stop-signal","77","269243","0.0-66.0","sub-06_ses-02_2","","2450","0","stim","","<div class = coverbox></div><div class = shapebox><img class = stim src = /static/experiments/motor_selective_stop_signal/images/triangle.png></img></div>","89,71","850","","71","","test","54","<div class = coverbox></div><div class = stopbox><div class = centered-shape id = stop-signal></div><div class = centered-shape id = stop-signal-inner></div></div>","600","stop","500","ignore","89",""
"794","71","stop-signal","78","272002","0.0-67.0","sub-06_ses-02_2","","2750","0","stim","","<div class = coverbox></div><div class = shapebox><img class = stim src = /static/experiments/motor_selective_stop_signal/images/triangle.png></img></div>","89,71","850","","71","","test","55","<div class = coverbox></div><div class = stopbox><div class = centered-shape id = stop-signal></div><div class = centered-shape id = stop-signal-inner></div></div>","600","go","500","go","89",""
"609","71","stop-signal","79","274268","0.0-68.0","sub-06_ses-02_2","","2250","0","stim","","<div class = coverbox></div><div class = shapebox><img class = stim src = /static/experiments/motor_selective_stop_signal/images/triangle.png></img></div>","89,71","850","","71","","test","56","<div class = coverbox></div><div class = stopbox><div class = centered-shape id = stop-signal></div><div class = centered-shape id = stop-signal-inner></div></div>","600","stop","500","ignore","89",""
"725","71","stop-signal","80","276638","0.0-69.0","sub-06_ses-02_2","","2350","0","stim","","<div class = coverbox></div><div class = shapebox><img class = stim src = /static/experiments/motor_selective_stop_signal/images/rhombus.png></img></div>","89,71","850","","71","","test","57","<div class = coverbox></div><div class = stopbox><div class = centered-shape id = stop-signal></div><div class = centered-shape id = stop-signal-inner></div></div>","600","go","500","go","89",""
"756","71","stop-signal","81","279103","0.0-70.0","sub-06_ses-02_2","","2450","0","stim","","<div class = coverbox></div><div class = shapebox><img class = stim src = /static/experiments/motor_selective_stop_signal/images/rhombus.png></img></div>","89,71","850","","71","","test","58","<div class = coverbox></div><div class = stopbox><div class = centered-shape id = stop-signal></div><div class = centered-shape id = stop-signal-inner></div></div>","600","stop","500","ignore","89",""
"569","71","stop-signal","82","281472","0.0-71.0","sub-06_ses-02_2","","2350","0","stim","","<div class = coverbox></div><div class = shapebox><img class = stim src = /static/experiments/motor_selective_stop_signal/images/rhombus.png></img></div>","89,71","850","","71","","test","59","<div class = coverbox></div><div class = stopbox><div class = centered-shape id = stop-signal></div><div class = centered-shape id = stop-signal-inner></div></div>","600","go","500","go","89",""
"550","71","stop-signal","83","283742","0.0-72.0","sub-06_ses-02_2","","2250","0","stim","","<div class = coverbox></div><div class = shapebox><img class = stim src = /static/experiments/motor_selective_stop_signal/images/rhombus.png></img></div>","89,71","850","","71","","test","60","<div class = coverbox></div><div class = stopbox><div class = centered-shape id = stop-signal></div><div class = centered-shape id = stop-signal-inner></div></div>","600","stop","500","ignore","89",""
"1138","89","stop-signal","84","286301","0.0-73.0","sub-06_ses-02_2","","2550","0","stim","","<div class = coverbox></div><div class = shapebox><img class = stim src = /static/experiments/motor_selective_stop_signal/images/circle.png></img></div>","89,71","850","","89","","test","61","<div class = coverbox></div><div class = stopbox><div class = centered-shape id = stop-signal></div><div class = centered-shape id = stop-signal-inner></div></div>","600","go","500","go","89",""
"1289","89","stop-signal","85","288761","0.0-74.0","sub-06_ses-02_2","","2450","0","stim","","<div class = coverbox></div><div class = shapebox><img class = stim src = /static/experiments/motor_selective_stop_signal/images/circle.png></img></div>","89,71","850","","89","","test","62","<div class = coverbox></div><div class = stopbox><div class = centered-shape id = stop-signal></div><div class = centered-shape id = stop-signal-inner></div></div>","600","go","500","go","89",""
"710","71","stop-signal","86","291423","0.0-75.0","sub-06_ses-02_2","","2650","0","stim","","<div class = coverbox></div><div class = shapebox><img class = stim src = /static/experiments/motor_selective_stop_signal/images/triangle.png></img></div>","89,71","850","","71","","test","63","<div class = coverbox></div><div class = stopbox><div class = centered-shape id = stop-signal></div><div class = centered-shape id = stop-signal-inner></div></div>","600","go","500","go","89",""
"-1","-1","stop-signal","87","293682","0.0-76.0","sub-06_ses-02_2","","2250","0","stim","","<div class = coverbox></div><div class = shapebox><img class = stim src = /static/experiments/motor_selective_stop_signal/images/circle.png></img></div>","89,71","850","","89","","test","64","<div class = coverbox></div><div class = stopbox><div class = centered-shape id = stop-signal></div><div class = centered-shape id = stop-signal-inner></div></div>","600","stop","500","stop","89",""
"640","71","stop-signal","88","296342","0.0-77.0","sub-06_ses-02_2","","2650","0","stim","","<div class = coverbox></div><div class = shapebox><img class = stim src = /static/experiments/motor_selective_stop_signal/images/rhombus.png></img></div>","89,71","850","","71","","test","65","<div class = coverbox></div><div class = stopbox><div class = centered-shape id = stop-signal></div><div class = centered-shape id = stop-signal-inner></div></div>","650","stop","500","ignore","89",""
"595","71","stop-signal","89","298712","0.0-78.0","sub-06_ses-02_2","","2350","0","stim","","<div class = coverbox></div><div class = shapebox><img class = stim src = /static/experiments/motor_selective_stop_signal/images/rhombus.png></img></div>","89,71","850","","71","","test","66","<div class = coverbox></div><div class = stopbox><div class = centered-shape id = stop-signal></div><div class = centered-shape id = stop-signal-inner></div></div>","650","go","500","go","89",""
"581","71","stop-signal","90","300982","0.0-79.0","sub-06_ses-02_2","","2250","0","stim","","<div class = coverbox></div><div class = shapebox><img class = stim src = /static/experiments/motor_selective_stop_signal/images/rhombus.png></img></div>","89,71","850","","71","","test","67","<div class = coverbox></div><div class = stopbox><div class = centered-shape id = stop-signal></div><div class = centered-shape id = stop-signal-inner></div></div>","650","go","500","go","89",""
"928","71","stop-signal","91","303242","0.0-80.0","sub-06_ses-02_2","","2250","0","stim","","<div class = coverbox></div><div class = shapebox><img class = stim src = /static/experiments/motor_selective_stop_signal/images/triangle.png></img></div>","89,71","850","","71","","test","68","<div class = coverbox></div><div class = stopbox><div class = centered-shape id = stop-signal></div><div class = centered-shape id = stop-signal-inner></div></div>","650","go","500","go","89",""
"1166","89","stop-signal","92","305502","0.0-81.0","sub-06_ses-02_2","","2250","0","stim","","<div class = coverbox></div><div class = shapebox><img class = stim src = /static/experiments/motor_selective_stop_signal/images/circle.png></img></div>","89,71","850","","89","","test","69","<div class = coverbox></div><div class = stopbox><div class = centered-shape id = stop-signal></div><div class = centered-shape id = stop-signal-inner></div></div>","650","go","500","go","89",""
"1100","89","stop-signal","93","307863","0.0-82.0","sub-06_ses-02_2","","2350","0","stim","","<div class = coverbox></div><div class = shapebox><img class = stim src = /static/experiments/motor_selective_stop_signal/images/circle.png></img></div>","89,71","850","","89","","test","70","<div class = coverbox></div><div class = stopbox><div class = centered-shape id = stop-signal></div><div class = centered-shape id = stop-signal-inner></div></div>","650","go","500","go","89",""
"850","71","stop-signal","94","310423","0.0-83.0","sub-06_ses-02_2","","2550","0","stim","","<div class = coverbox></div><div class = shapebox><img class = stim src = /static/experiments/motor_selective_stop_signal/images/triangle.png></img></div>","89,71","850","","71","","test","71","<div class = coverbox></div><div class = stopbox><div class = centered-shape id = stop-signal></div><div class = centered-shape id = stop-signal-inner></div></div>","650","stop","500","ignore","89",""
"1075","89","stop-signal","95","312782","0.0-84.0","sub-06_ses-02_2","","2350","0","stim","","<div class = coverbox></div><div class = shapebox><img class = stim src = /static/experiments/motor_selective_stop_signal/images/Lshape.png></img></div>","89,71","850","","89","","test","72","<div class = coverbox></div><div class = stopbox><div class = centered-shape id = stop-signal></div><div class = centered-shape id = stop-signal-inner></div></div>","650","go","500","go","89",""
"-1","-1","stop-signal","96","315242","0.0-85.0","sub-06_ses-02_2","","2450","0","stim","","<div class = coverbox></div><div class = shapebox><img class = stim src = /static/experiments/motor_selective_stop_signal/images/circle.png></img></div>","89,71","850","","89","","test","73","<div class = coverbox></div><div class = stopbox><div class = centered-shape id = stop-signal></div><div class = centered-shape id = stop-signal-inner></div></div>","650","stop","500","stop","89",""
"1222","89","stop-signal","97","317701","0.0-86.0","sub-06_ses-02_2","","2450","0","stim","","<div class = coverbox></div><div class = shapebox><img class = stim src = /static/experiments/motor_selective_stop_signal/images/Lshape.png></img></div>","89,71","850","","89","","test","74","<div class = coverbox></div><div class = stopbox><div class = centered-shape id = stop-signal></div><div class = centered-shape id = stop-signal-inner></div></div>","700","go","500","go","89",""
"-1","-1","stop-signal","98","320073","0.0-87.0","sub-06_ses-02_2","","2350","0","stim","","<div class = coverbox></div><div class = shapebox><img class = stim src = /static/experiments/motor_selective_stop_signal/images/circle.png></img></div>","89,71","850","","89","","test","75","<div class = coverbox></div><div class = stopbox><div class = centered-shape id = stop-signal></div><div class = centered-shape id = stop-signal-inner></div></div>","700","stop","500","stop","89",""
"873","71","stop-signal","99","322333","0.0-88.0","sub-06_ses-02_2","","2250","0","stim","","<div class = coverbox></div><div class = shapebox><img class = stim src = /static/experiments/motor_selective_stop_signal/images/rhombus.png></img></div>","89,71","850","","71","","test","76","<div class = coverbox></div><div class = stopbox><div class = centered-shape id = stop-signal></div><div class = centered-shape id = stop-signal-inner></div></div>","750","stop","500","ignore","89",""
"418","71","stop-signal","100","324891","0.0-89.0","sub-06_ses-02_2","","2550","0","stim","","<div class = coverbox></div><div class = shapebox><img class = stim src = /static/experiments/motor_selective_stop_signal/images/rhombus.png></img></div>","89,71","850","","71","","test","77","<div class = coverbox></div><div class = stopbox><div class = centered-shape id = stop-signal></div><div class = centered-shape id = stop-signal-inner></div></div>","750","go","500","go","89",""
"471","71","stop-signal","101","327451","0.0-90.0","sub-06_ses-02_2","","2550","0","stim","","<div class = coverbox></div><div class = shapebox><img class = stim src = /static/experiments/motor_selective_stop_signal/images/rhombus.png></img></div>","89,71","850","","71","","test","78","<div class = coverbox></div><div class = stopbox><div class = centered-shape id = stop-signal></div><div class = centered-shape id = stop-signal-inner></div></div>","750","go","500","go","89",""
"695","71","stop-signal","102","329712","0.0-91.0","sub-06_ses-02_2","","2250","0","stim","","<div class = coverbox></div><div class = shapebox><img class = stim src = /static/experiments/motor_selective_stop_signal/images/triangle.png></img></div>","89,71","850","","71","","test","79","<div class = coverbox></div><div class = stopbox><div class = centered-shape id = stop-signal></div><div class = centered-shape id = stop-signal-inner></div></div>","750","stop","500","ignore","89",""
"508","71","stop-signal","103","331970","0.0-92.0","sub-06_ses-02_2","","2250","0","stim","","<div class = coverbox></div><div class = shapebox><img class = stim src = /static/experiments/motor_selective_stop_signal/images/triangle.png></img></div>","89,71","850","","71","","test","80","<div class = coverbox></div><div class = stopbox><div class = centered-shape id = stop-signal></div><div class = centered-shape id = stop-signal-inner></div></div>","750","go","500","go","89",""
"-1","-1","stop-signal","104","334436","0.0-93.0","sub-06_ses-02_2","","2450","0","stim","","<div class = coverbox></div><div class = shapebox><img class = stim src = /static/experiments/motor_selective_stop_signal/images/circle.png></img></div>","89,71","850","","89","","test","81","<div class = coverbox></div><div class = stopbox><div class = centered-shape id = stop-signal></div><div class = centered-shape id = stop-signal-inner></div></div>","750","stop","500","stop","89",""
"1127","89","stop-signal","105","336791","0.0-94.0","sub-06_ses-02_2","","2350","0","stim","","<div class = coverbox></div><div class = shapebox><img class = stim src = /static/experiments/motor_selective_stop_signal/images/circle.png></img></div>","89,71","850","","89","","test","82","<div class = coverbox></div><div class = stopbox><div class = centered-shape id = stop-signal></div><div class = centered-shape id = stop-signal-inner></div></div>","800","go","500","go","89",""
"997","71","stop-signal","106","339053","0.0-95.0","sub-06_ses-02_2","","2250","0","stim","","<div class = coverbox></div><div class = shapebox><img class = stim src = /static/experiments/motor_selective_stop_signal/images/triangle.png></img></div>","89,71","850","","71","","test","83","<div class = coverbox></div><div class = stopbox><div class = centered-shape id = stop-signal></div><div class = centered-shape id = stop-signal-inner></div></div>","800","go","500","go","89",""
"1198","89","stop-signal","107","342212","0.0-96.0","sub-06_ses-02_2","","3150","0","stim","","<div class = coverbox></div><div class = shapebox><img class = stim src = /static/experiments/motor_selective_stop_signal/images/Lshape.png></img></div>","89,71","850","","89","","test","84","<div class = coverbox></div><div class = stopbox><div class = centered-shape id = stop-signal></div><div class = centered-shape id = stop-signal-inner></div></div>","800","go","500","go","89",""
"1197","71","stop-signal","108","344882","0.0-97.0","sub-06_ses-02_2","","2650","0","stim","","<div class = coverbox></div><div class = shapebox><img class = stim src = /static/experiments/motor_selective_stop_signal/images/triangle.png></img></div>","89,71","850","","71","","test","85","<div class = coverbox></div><div class = stopbox><div class = centered-shape id = stop-signal></div><div class = centered-shape id = stop-signal-inner></div></div>","800","go","500","go","89",""
"583","71","stop-signal","109","347143","0.0-98.0","sub-06_ses-02_2","","2250","0","stim","","<div class = coverbox></div><div class = shapebox><img class = stim src = /static/experiments/motor_selective_stop_signal/images/triangle.png></img></div>","89,71","850","","71","","test","86","<div class = coverbox></div><div class = stopbox><div class = centered-shape id = stop-signal></div><div class = centered-shape id = stop-signal-inner></div></div>","800","stop","500","ignore","89",""
"-1","-1","stop-signal","110","349603","0.0-99.0","sub-06_ses-02_2","","2450","0","stim","","<div class = coverbox></div><div class = shapebox><img class = stim src = /static/experiments/motor_selective_stop_signal/images/Lshape.png></img></div>","89,71","850","","89","","test","87","<div class = coverbox></div><div class = stopbox><div class = centered-shape id = stop-signal></div><div class = centered-shape id = stop-signal-inner></div></div>","800","stop","500","stop","89",""
"731","71","stop-signal","111","352463","0.0-100.0","sub-06_ses-02_2","","2850","0","stim","","<div class = coverbox></div><div class = shapebox><img class = stim src = /static/experiments/motor_selective_stop_signal/images/rhombus.png></img></div>","89,71","850","","71","","test","88","<div class = coverbox></div><div class = stopbox><div class = centered-shape id = stop-signal></div><div class = centered-shape id = stop-signal-inner></div></div>","850","stop","500","ignore","89",""
"1220","89","stop-signal","112","354932","0.0-101.0","sub-06_ses-02_2","","2450","0","stim","","<div class = coverbox></div><div class = shapebox><img class = stim src = /static/experiments/motor_selective_stop_signal/images/Lshape.png></img></div>","89,71","850","","89","","test","89","<div class = coverbox></div><div class = stopbox><div class = centered-shape id = stop-signal></div><div class = centered-shape id = stop-signal-inner></div></div>","850","go","500","go","89",""
"1379","89","stop-signal","113","357192","0.0-102.0","sub-06_ses-02_2","","2250","0","stim","","<div class = coverbox></div><div class = shapebox><img class = stim src = /static/experiments/motor_selective_stop_signal/images/circle.png></img></div>","89,71","850","","89","","test","90","<div class = coverbox></div><div class = stopbox><div class = centered-shape id = stop-signal></div><div class = centered-shape id = stop-signal-inner></div></div>","850","go","500","go","89",""
"1121","71","stop-signal","114","359460","0.0-103.0","sub-06_ses-02_2","","2250","0","stim","","<div class = coverbox></div><div class = shapebox><img class = stim src = /static/experiments/motor_selective_stop_signal/images/triangle.png></img></div>","89,71","850","","71","","test","91","<div class = coverbox></div><div class = stopbox><div class = centered-shape id = stop-signal></div><div class = centered-shape id = stop-signal-inner></div></div>","850","go","500","go","89",""
"676","71","stop-signal","115","362023","0.0-104.0","sub-06_ses-02_2","","2550","0","stim","","<div class = coverbox></div><div class = shapebox><img class = stim src = /static/experiments/motor_selective_stop_signal/images/rhombus.png></img></div>","89,71","850","","71","","test","92","<div class = coverbox></div><div class = stopbox><div class = centered-shape id = stop-signal></div><div class = centered-shape id = stop-signal-inner></div></div>","850","stop","500","ignore","89",""
"-1","-1","stop-signal","116","364282","0.0-105.0","sub-06_ses-02_2","","2250","0","stim","","<div class = coverbox></div><div class = shapebox><img class = stim src = /static/experiments/motor_selective_stop_signal/images/circle.png></img></div>","89,71","850","","89","","test","93","<div class = coverbox></div><div class = stopbox><div class = centered-shape id = stop-signal></div><div class = centered-shape id = stop-signal-inner></div></div>","850","stop","500","stop","89",""
"643","71","stop-signal","117","366653","0.0-106.0","sub-06_ses-02_2","","2350","0","stim","","<div class = coverbox></div><div class = shapebox><img class = stim src = /static/experiments/motor_selective_stop_signal/images/triangle.png></img></div>","89,71","850","","71","","test","94","<div class = coverbox></div><div class = stopbox><div class = centered-shape id = stop-signal></div><div class = centered-shape id = stop-signal-inner></div></div>","900","go","500","go","89",""
"1125","89","stop-signal","118","369012","0.0-107.0","sub-06_ses-02_2","","2350","0","stim","","<div class = coverbox></div><div class = shapebox><img class = stim src = /static/experiments/motor_selective_stop_signal/images/circle.png></img></div>","89,71","850","","89","","test","95","<div class = coverbox></div><div class = stopbox><div class = centered-shape id = stop-signal></div><div class = centered-shape id = stop-signal-inner></div></div>","900","stop","500","stop","89",""
"1398","89","stop-signal","119","371273","0.0-108.0","sub-06_ses-02_2","","2250","0","stim","","<div class = coverbox></div><div class = shapebox><img class = stim src = /static/experiments/motor_selective_stop_signal/images/Lshape.png></img></div>","89,71","850","","89","","test","96","<div class = coverbox></div><div class = stopbox><div class = centered-shape id = stop-signal></div><div class = centered-shape id = stop-signal-inner></div></div>","850","go","500","go","89",""
"807","71","stop-signal","120","373632","0.0-109.0","sub-06_ses-02_2","","2350","0","stim","","<div class = coverbox></div><div class = shapebox><img class = stim src = /static/experiments/motor_selective_stop_signal/images/triangle.png></img></div>","89,71","850","","71","","test","97","<div class = coverbox></div><div class = stopbox><div class = centered-shape id = stop-signal></div><div class = centered-shape id = stop-signal-inner></div></div>","850","stop","500","ignore","89",""
"414","71","stop-signal","121","375891","0.0-110.0","sub-06_ses-02_2","","2250","0","stim","","<div class = coverbox></div><div class = shapebox><img class = stim src = /static/experiments/motor_selective_stop_signal/images/rhombus.png></img></div>","89,71","850","","71","","test","98","<div class = coverbox></div><div class = stopbox><div class = centered-shape id = stop-signal></div><div class = centered-shape id = stop-signal-inner></div></div>","850","go","500","go","89",""
"1194","89","stop-signal","122","378362","0.0-111.0","sub-06_ses-02_2","","2450","0","stim","","<div class = coverbox></div><div class = shapebox><img class = stim src = /static/experiments/motor_selective_stop_signal/images/circle.png></img></div>","89,71","850","","89","","test","99","<div class = coverbox></div><div class = stopbox><div class = centered-shape id = stop-signal></div><div class = centered-shape id = stop-signal-inner></div></div>","850","go","500","go","89",""
"-1","-1","poldrack-single-stim","123","385882","0.0-112.0","sub-06_ses-02_2","","7500","1000","rest_block","","<div class = centerbox><div class = center-text>+</div></div>","none","7500","","","","","","","","","","","",""
"-1","-1","poldrack-single-stim","124","388402","0.0-113.0","sub-06_ses-02_2","","1500","500","test_start_block","","<div class = centerbox><div class = center-text>Preparez-vous!</p></div>","none","1500","","","","","","","","","","","",""
"527","71","stop-signal","125","391179","0.0-114.0","sub-06_ses-02_2","","2250","0","stim","","<div class = coverbox></div><div class = shapebox><img class = stim src = /static/experiments/motor_selective_stop_signal/images/triangle.png></img></div>","89,71","850","","71","","test","100","<div class = coverbox></div><div class = stopbox><div class = centered-shape id = stop-signal></div><div class = centered-shape id = stop-signal-inner></div></div>","850","go","500","go","89",""
"1403","89","stop-signal","126","393541","0.0-115.0","sub-06_ses-02_2","","2350","0","stim","","<div class = coverbox></div><div class = shapebox><img class = stim src = /static/experiments/motor_selective_stop_signal/images/circle.png></img></div>","89,71","850","","89","","test","101","<div class = coverbox></div><div class = stopbox><div class = centered-shape id = stop-signal></div><div class = centered-shape id = stop-signal-inner></div></div>","850","go","500","go","89",""
"939","71","stop-signal","127","396012","0.0-116.0","sub-06_ses-02_2","","2450","0","stim","","<div class = coverbox></div><div class = shapebox><img class = stim src = /static/experiments/motor_selective_stop_signal/images/triangle.png></img></div>","89,71","850","","71","","test","102","<div class = coverbox></div><div class = stopbox><div class = centered-shape id = stop-signal></div><div class = centered-shape id = stop-signal-inner></div></div>","850","stop","500","ignore","89",""
"-1","-1","stop-signal","128","398282","0.0-117.0","sub-06_ses-02_2","","2250","0","stim","","<div class = coverbox></div><div class = shapebox><img class = stim src = /static/experiments/motor_selective_stop_signal/images/circle.png></img></div>","89,71","850","","89","","test","103","<div class = coverbox></div><div class = stopbox><div class = centered-shape id = stop-signal></div><div class = centered-shape id = stop-signal-inner></div></div>","850","stop","500","stop","89",""
"891","71","stop-signal","129","400542","0.0-118.0","sub-06_ses-02_2","","2250","0","stim","","<div class = coverbox></div><div class = shapebox><img class = stim src = /static/experiments/motor_selective_stop_signal/images/triangle.png></img></div>","89,71","850","","71","","test","104","<div class = coverbox></div><div class = stopbox><div class = centered-shape id = stop-signal></div><div class = centered-shape id = stop-signal-inner></div></div>","900","go","500","go","89",""
"506","71","stop-signal","130","403401","0.0-119.0","sub-06_ses-02_2","","2850","0","stim","","<div class = coverbox></div><div class = shapebox><img class = stim src = /static/experiments/motor_selective_stop_signal/images/triangle.png></img></div>","89,71","850","","71","","test","105","<div class = coverbox></div><div class = stopbox><div class = centered-shape id = stop-signal></div><div class = centered-shape id = stop-signal-inner></div></div>","900","go","500","go","89",""
"1365","89","stop-signal","131","405661","0.0-120.0","sub-06_ses-02_2","","2250","0","stim","","<div class = coverbox></div><div class = shapebox><img class = stim src = /static/experiments/motor_selective_stop_signal/images/Lshape.png></img></div>","89,71","850","","89","","test","106","<div class = coverbox></div><div class = stopbox><div class = centered-shape id = stop-signal></div><div class = centered-shape id = stop-signal-inner></div></div>","900","go","500","go","89",""
"1520","89","stop-signal","132","409132","0.0-121.0","sub-06_ses-02_2","","3450","0","stim","","<div class = coverbox></div><div class = shapebox><img class = stim src = /static/experiments/motor_selective_stop_signal/images/Lshape.png></img></div>","89,71","850","","89","","test","107","<div class = coverbox></div><div class = stopbox><div class = centered-shape id = stop-signal></div><div class = centered-shape id = stop-signal-inner></div></div>","900","go","500","go","89",""
"762","71","stop-signal","133","411503","0.0-122.0","sub-06_ses-02_2","","2350","0","stim","","<div class = coverbox></div><div class = shapebox><img class = stim src = /static/experiments/motor_selective_stop_signal/images/rhombus.png></img></div>","89,71","850","","71","","test","108","<div class = coverbox></div><div class = stopbox><div class = centered-shape id = stop-signal></div><div class = centered-shape id = stop-signal-inner></div></div>","900","stop","500","ignore","89",""
"557","71","stop-signal","134","413863","0.0-123.0","sub-06_ses-02_2","","2350","0","stim","","<div class = coverbox></div><div class = shapebox><img class = stim src = /static/experiments/motor_selective_stop_signal/images/rhombus.png></img></div>","89,71","850","","71","","test","109","<div class = coverbox></div><div class = stopbox><div class = centered-shape id = stop-signal></div><div class = centered-shape id = stop-signal-inner></div></div>","900","stop","500","ignore","89",""
"531","71","stop-signal","135","416232","0.0-124.0","sub-06_ses-02_2","","2350","0","stim","","<div class = coverbox></div><div class = shapebox><img class = stim src = /static/experiments/motor_selective_stop_signal/images/triangle.png></img></div>","89,71","850","","71","","test","110","<div class = coverbox></div><div class = stopbox><div class = centered-shape id = stop-signal></div><div class = centered-shape id = stop-signal-inner></div></div>","900","go","500","go","89",""
"-1","-1","stop-signal","136","418692","0.0-125.0","sub-06_ses-02_2","","2450","0","stim","","<div class = coverbox></div><div class = shapebox><img class = stim src = /static/experiments/motor_selective_stop_signal/images/circle.png></img></div>","89,71","850","","89","","test","111","<div class = coverbox></div><div class = stopbox><div class = centered-shape id = stop-signal></div><div class = centered-shape id = stop-signal-inner></div></div>","900","stop","500","stop","89",""
"594","71","stop-signal","137","421252","0.0-126.0","sub-06_ses-02_2","","2550","0","stim","","<div class = coverbox></div><div class = shapebox><img class = stim src = /static/experiments/motor_selective_stop_signal/images/triangle.png></img></div>","89,71","850","","71","","test","112","<div class = coverbox></div><div class = stopbox><div class = centered-shape id = stop-signal></div><div class = centered-shape id = stop-signal-inner></div></div>","950","stop","500","ignore","89",""
"1339","89","stop-signal","138","423621","0.0-127.0","sub-06_ses-02_2","","2350","0","stim","","<div class = coverbox></div><div class = shapebox><img class = stim src = /static/experiments/motor_selective_stop_signal/images/Lshape.png></img></div>","89,71","850","","89","","test","113","<div class = coverbox></div><div class = stopbox><div class = centered-shape id = stop-signal></div><div class = centered-shape id = stop-signal-inner></div></div>","950","go","500","go","89",""
"-1","-1","stop-signal","139","425883","0.0-128.0","sub-06_ses-02_2","","2250","0","stim","","<div class = coverbox></div><div class = shapebox><img class = stim src = /static/experiments/motor_selective_stop_signal/images/Lshape.png></img></div>","89,71","850","","89","","test","114","<div class = coverbox></div><div class = stopbox><div class = centered-shape id = stop-signal></div><div class = centered-shape id = stop-signal-inner></div></div>","950","stop","500","stop","89",""
"568","71","stop-signal","140","428140","0.0-129.0","sub-06_ses-02_2","","2250","0","stim","","<div class = coverbox></div><div class = shapebox><img class = stim src = /static/experiments/motor_selective_stop_signal/images/rhombus.png></img></div>","89,71","850","","71","","test","115","<div class = coverbox></div><div class = stopbox><div class = centered-shape id = stop-signal></div><div class = centered-shape id = stop-signal-inner></div></div>","1000","go","500","go","89",""
"1429","89","stop-signal","141","431201","0.0-130.0","sub-06_ses-02_2","","3050","0","stim","","<div class = coverbox></div><div class = shapebox><img class = stim src = /static/experiments/motor_selective_stop_signal/images/triangle.png></img></div>","89,71","850","","71","","test","116","<div class = coverbox></div><div class = stopbox><div class = centered-shape id = stop-signal></div><div class = centered-shape id = stop-signal-inner></div></div>","1000","go","500","go","89",""
"1407","89","stop-signal","142","433662","0.0-131.0","sub-06_ses-02_2","","2450","0","stim","","<div class = coverbox></div><div class = shapebox><img class = stim src = /static/experiments/motor_selective_stop_signal/images/Lshape.png></img></div>","89,71","850","","89","","test","117","<div class = coverbox></div><div class = stopbox><div class = centered-shape id = stop-signal></div><div class = centered-shape id = stop-signal-inner></div></div>","1000","go","500","go","89",""
"1759","89","stop-signal","143","436034","0.0-132.0","sub-06_ses-02_2","","2350","0","stim","","<div class = coverbox></div><div class = shapebox><img class = stim src = /static/experiments/motor_selective_stop_signal/images/Lshape.png></img></div>","89,71","850","","89","","test","118","<div class = coverbox></div><div class = stopbox><div class = centered-shape id = stop-signal></div><div class = centered-shape id = stop-signal-inner></div></div>","1000","go","500","go","89",""
"-1","-1","stop-signal","144","438303","0.0-133.0","sub-06_ses-02_2","","2250","0","stim","","<div class = coverbox></div><div class = shapebox><img class = stim src = /static/experiments/motor_selective_stop_signal/images/circle.png></img></div>","89,71","850","","89","","test","119","<div class = coverbox></div><div class = stopbox><div class = centered-shape id = stop-signal></div><div class = centered-shape id = stop-signal-inner></div></div>","1000","stop","500","stop","89",""
"-1","-1","stop-signal","145","441562","0.0-134.0","sub-06_ses-02_2","","3250","0","stim","","<div class = coverbox></div><div class = shapebox><img class = stim src = /static/experiments/motor_selective_stop_signal/images/Lshape.png></img></div>","89,71","850","","89","","test","120","<div class = coverbox></div><div class = stopbox><div class = centered-shape id = stop-signal></div><div class = centered-shape id = stop-signal-inner></div></div>","1000","stop","500","stop","89",""
"398","71","stop-signal","146","444532","0.0-135.0","sub-06_ses-02_2","","2950","0","stim","","<div class = coverbox></div><div class = shapebox><img class = stim src = /static/experiments/motor_selective_stop_signal/images/rhombus.png></img></div>","89,71","850","","71","","test","121","<div class = coverbox></div><div class = stopbox><div class = centered-shape id = stop-signal></div><div class = centered-shape id = stop-signal-inner></div></div>","1000","go","500","go","89",""
"-1","-1","stop-signal","147","447092","0.0-136.0","sub-06_ses-02_2","","2550","0","stim","","<div class = coverbox></div><div class = shapebox><img class = stim src = /static/experiments/motor_selective_stop_signal/images/Lshape.png></img></div>","89,71","850","","89","","test","122","<div class = coverbox></div><div class = stopbox><div class = centered-shape id = stop-signal></div><div class = centered-shape id = stop-signal-inner></div></div>","1000","stop","500","stop","89",""
"441","71","stop-signal","148","449452","0.0-137.0","sub-06_ses-02_2","","2350","0","stim","","<div class = coverbox></div><div class = shapebox><img class = stim src = /static/experiments/motor_selective_stop_signal/images/rhombus.png></img></div>","89,71","850","","71","","test","123","<div class = coverbox></div><div class = stopbox><div class = centered-shape id = stop-signal></div><div class = centered-shape id = stop-signal-inner></div></div>","1000","go","500","go","89",""
"-1","-1","stop-signal","149","452023","0.0-138.0","sub-06_ses-02_2","","2550","0","stim","","<div class = coverbox></div><div class = shapebox><img class = stim src = /static/experiments/motor_selective_stop_signal/images/Lshape.png></img></div>","89,71","850","","89","","test","124","<div class = coverbox></div><div class = stopbox><div class = centered-shape id = stop-signal></div><div class = centered-shape id = stop-signal-inner></div></div>","1000","stop","500","stop","89",""
"2106","71","stop-signal","150","454381","0.0-139.0","sub-06_ses-02_2","","2350","0","stim","","<div class = coverbox></div><div class = shapebox><img class = stim src = /static/experiments/motor_selective_stop_signal/images/Lshape.png></img></div>","89,71","850","","89","","test","125","<div class = coverbox></div><div class = stopbox><div class = centered-shape id = stop-signal></div><div class = centered-shape id = stop-signal-inner></div></div>","1000","go","500","go","89",""
"1927","89","stop-signal","151","456643","0.0-140.0","sub-06_ses-02_2","","2250","0","stim","","<div class = coverbox></div><div class = shapebox><img class = stim src = /static/experiments/motor_selective_stop_signal/images/circle.png></img></div>","89,71","850","","89","","test","126","<div class = coverbox></div><div class = stopbox><div class = centered-shape id = stop-signal></div><div class = centered-shape id = stop-signal-inner></div></div>","1000","go","500","go","89",""
"1299","71","stop-signal","152","459103","0.0-141.0","sub-06_ses-02_2","","2450","0","stim","","<div class = coverbox></div><div class = shapebox><img class = stim src = /static/experiments/motor_selective_stop_signal/images/rhombus.png></img></div>","89,71","850","","71","","test","127","<div class = coverbox></div><div class = stopbox><div class = centered-shape id = stop-signal></div><div class = centered-shape id = stop-signal-inner></div></div>","1000","stop","500","ignore","89",""
"561","71","stop-signal","153","461460","0.0-142.0","sub-06_ses-02_2","","2350","0","stim","","<div class = coverbox></div><div class = shapebox><img class = stim src = /static/experiments/motor_selective_stop_signal/images/triangle.png></img></div>","89,71","850","","71","","test","128","<div class = coverbox></div><div class = stopbox><div class = centered-shape id = stop-signal></div><div class = centered-shape id = stop-signal-inner></div></div>","1000","go","500","go","89",""
"804","71","stop-signal","154","464132","0.0-143.0","sub-06_ses-02_2","","2650","0","stim","","<div class = coverbox></div><div class = shapebox><img class = stim src = /static/experiments/motor_selective_stop_signal/images/rhombus.png></img></div>","89,71","850","","71","","test","129","<div class = coverbox></div><div class = stopbox><div class = centered-shape id = stop-signal></div><div class = centered-shape id = stop-signal-inner></div></div>","1000","stop","500","ignore","89",""
"599","71","stop-signal","155","466391","0.0-144.0","sub-06_ses-02_2","","2250","0","stim","","<div class = coverbox></div><div class = shapebox><img class = stim src = /static/experiments/motor_selective_stop_signal/images/triangle.png></img></div>","89,71","850","","71","","test","130","<div class = coverbox></div><div class = stopbox><div class = centered-shape id = stop-signal></div><div class = centered-shape id = stop-signal-inner></div></div>","1000","go","500","go","89",""
"-1","-1","stop-signal","156","468663","0.0-145.0","sub-06_ses-02_2","","2250","0","stim","","<div class = coverbox></div><div class = shapebox><img class = stim src = /static/experiments/motor_selective_stop_signal/images/Lshape.png></img></div>","89,71","850","","89","","test","131","<div class = coverbox></div><div class = stopbox><div class = centered-shape id = stop-signal></div><div class = centered-shape id = stop-signal-inner></div></div>","1000","stop","500","stop","89",""
"1539","71","stop-signal","157","471123","0.0-146.0","sub-06_ses-02_2","","2450","0","stim","","<div class = coverbox></div><div class = shapebox><img class = stim src = /static/experiments/motor_selective_stop_signal/images/rhombus.png></img></div>","89,71","850","","71","","test","132","<div class = coverbox></div><div class = stopbox><div class = centered-shape id = stop-signal></div><div class = centered-shape id = stop-signal-inner></div></div>","1000","go","500","go","89",""
"534","71","stop-signal","158","473393","0.0-147.0","sub-06_ses-02_2","","2250","0","stim","","<div class = coverbox></div><div class = shapebox><img class = stim src = /static/experiments/motor_selective_stop_signal/images/triangle.png></img></div>","89,71","850","","71","","test","133","<div class = coverbox></div><div class = stopbox><div class = centered-shape id = stop-signal></div><div class = centered-shape id = stop-signal-inner></div></div>","1000","go","500","go","89",""
"-1","-1","stop-signal","159","475952","0.0-148.0","sub-06_ses-02_2","","2550","0","stim","","<div class = coverbox></div><div class = shapebox><img class = stim src = /static/experiments/motor_selective_stop_signal/images/circle.png></img></div>","89,71","850","","89","","test","134","<div class = coverbox></div><div class = stopbox><div class = centered-shape id = stop-signal></div><div class = centered-shape id = stop-signal-inner></div></div>","1000","stop","500","stop","89",""
"638","71","stop-signal","160","478211","0.0-149.0","sub-06_ses-02_2","","2250","0","stim","","<div class = coverbox></div><div class = shapebox><img class = stim src = /static/experiments/motor_selective_stop_signal/images/triangle.png></img></div>","89,71","850","","71","","test","135","<div class = coverbox></div><div class = stopbox><div class = centered-shape id = stop-signal></div><div class = centered-shape id = stop-signal-inner></div></div>","1000","go","500","go","89",""
"499","71","stop-signal","161","480572","0.0-150.0","sub-06_ses-02_2","","2350","0","stim","","<div class = coverbox></div><div class = shapebox><img class = stim src = /static/experiments/motor_selective_stop_signal/images/triangle.png></img></div>","89,71","850","","71","","test","136","<div class = coverbox></div><div class = stopbox><div class = centered-shape id = stop-signal></div><div class = centered-shape id = stop-signal-inner></div></div>","1000","stop","500","ignore","89",""
"-1","-1","stop-signal","162","482833","0.0-151.0","sub-06_ses-02_2","","2250","0","stim","","<div class = coverbox></div><div class = shapebox><img class = stim src = /static/experiments/motor_selective_stop_signal/images/circle.png></img></div>","89,71","850","","89","","test","137","<div class = coverbox></div><div class = stopbox><div class = centered-shape id = stop-signal></div><div class = centered-shape id = stop-signal-inner></div></div>","1000","stop","500","stop","89",""
"-1","-1","stop-signal","163","485393","0.0-152.0","sub-06_ses-02_2","","2550","0","stim","","<div class = coverbox></div><div class = shapebox><img class = stim src = /static/experiments/motor_selective_stop_signal/images/Lshape.png></img></div>","89,71","850","","89","","test","138","<div class = coverbox></div><div class = stopbox><div class = centered-shape id = stop-signal></div><div class = centered-shape id = stop-signal-inner></div></div>","1000","stop","500","stop","89",""
"1507","89","stop-signal","164","487951","0.0-153.0","sub-06_ses-02_2","","2550","0","stim","","<div class = coverbox></div><div class = shapebox><img class = stim src = /static/experiments/motor_selective_stop_signal/images/circle.png></img></div>","89,71","850","","89","","test","139","<div class = coverbox></div><div class = stopbox><div class = centered-shape id = stop-signal></div><div class = centered-shape id = stop-signal-inner></div></div>","1000","go","500","go","89",""
"816","71","stop-signal","165","490311","0.0-154.0","sub-06_ses-02_2","","2350","0","stim","","<div class = coverbox></div><div class = shapebox><img class = stim src = /static/experiments/motor_selective_stop_signal/images/triangle.png></img></div>","89,71","850","","71","","test","140","<div class = coverbox></div><div class = stopbox><div class = centered-shape id = stop-signal></div><div class = centered-shape id = stop-signal-inner></div></div>","1000","go","500","go","89",""
"1332","89","stop-signal","166","492672","0.0-155.0","sub-06_ses-02_2","","2350","0","stim","","<div class = coverbox></div><div class = shapebox><img class = stim src = /static/experiments/motor_selective_stop_signal/images/Lshape.png></img></div>","89,71","850","","89","","test","141","<div class = coverbox></div><div class = stopbox><div class = centered-shape id = stop-signal></div><div class = centered-shape id = stop-signal-inner></div></div>","1000","go","500","go","89",""
"876","71","stop-signal","167","494943","0.0-156.0","sub-06_ses-02_2","","2250","0","stim","","<div class = coverbox></div><div class = shapebox><img class = stim src = /static/experiments/motor_selective_stop_signal/images/rhombus.png></img></div>","89,71","850","","71","","test","142","<div class = coverbox></div><div class = stopbox><div class = centered-shape id = stop-signal></div><div class = centered-shape id = stop-signal-inner></div></div>","1000","go","500","go","89",""
"1135","71","stop-signal","168","497401","0.0-157.0","sub-06_ses-02_2","","2450","0","stim","","<div class = coverbox></div><div class = shapebox><img class = stim src = /static/experiments/motor_selective_stop_signal/images/triangle.png></img></div>","89,71","850","","71","","test","143","<div class = coverbox></div><div class = stopbox><div class = centered-shape id = stop-signal></div><div class = centered-shape id = stop-signal-inner></div></div>","1000","stop","500","ignore","89",""
"1783","89","stop-signal","169","499672","0.0-158.0","sub-06_ses-02_2","","2250","0","stim","","<div class = coverbox></div><div class = shapebox><img class = stim src = /static/experiments/motor_selective_stop_signal/images/circle.png></img></div>","89,71","850","","89","","test","144","<div class = coverbox></div><div class = stopbox><div class = centered-shape id = stop-signal></div><div class = centered-shape id = stop-signal-inner></div></div>","1000","go","500","go","89",""
"1922","71","stop-signal","170","502143","0.0-159.0","sub-06_ses-02_2","","2450","0","stim","","<div class = coverbox></div><div class = shapebox><img class = stim src = /static/experiments/motor_selective_stop_signal/images/triangle.png></img></div>","89,71","850","","71","","test","145","<div class = coverbox></div><div class = stopbox><div class = centered-shape id = stop-signal></div><div class = centered-shape id = stop-signal-inner></div></div>","1000","stop","500","ignore","89",""
"-1","-1","stop-signal","171","504813","0.0-160.0","sub-06_ses-02_2","","2650","0","stim","","<div class = coverbox></div><div class = shapebox><img class = stim src = /static/experiments/motor_selective_stop_signal/images/Lshape.png></img></div>","89,71","850","","89","","test","146","<div class = coverbox></div><div class = stopbox><div class = centered-shape id = stop-signal></div><div class = centered-shape id = stop-signal-inner></div></div>","1000","stop","500","stop","89",""
"828","71","stop-signal","172","507282","0.0-161.0","sub-06_ses-02_2","","2450","0","stim","","<div class = coverbox></div><div class = shapebox><img class = stim src = /static/experiments/motor_selective_stop_signal/images/rhombus.png></img></div>","89,71","850","","71","","test","147","<div class = coverbox></div><div class = stopbox><div class = centered-shape id = stop-signal></div><div class = centered-shape id = stop-signal-inner></div></div>","1000","go","500","go","89",""
"758","71","stop-signal","173","509642","0.0-162.0","sub-06_ses-02_2","","2350","0","stim","","<div class = coverbox></div><div class = shapebox><img class = stim src = /static/experiments/motor_selective_stop_signal/images/rhombus.png></img></div>","89,71","850","","71","","test","148","<div class = coverbox></div><div class = stopbox><div class = centered-shape id = stop-signal></div><div class = centered-shape id = stop-signal-inner></div></div>","1000","go","500","go","89",""
"616","71","stop-signal","174","511902","0.0-163.0","sub-06_ses-02_2","","2250","0","stim","","<div class = coverbox></div><div class = shapebox><img class = stim src = /static/experiments/motor_selective_stop_signal/images/triangle.png></img></div>","89,71","850","","71","","test","149","<div class = coverbox></div><div class = stopbox><div class = centered-shape id = stop-signal></div><div class = centered-shape id = stop-signal-inner></div></div>","1000","stop","500","ignore","89",""
"-1","-1","poldrack-single-stim","175","519422","0.0-164.0","sub-06_ses-02_2","","7500","1000","rest_block","","<div class = centerbox><div class = center-text>+</div></div>","none","7500","","","","","","","","","","","",""
"-1","-1","poldrack-single-stim","176","521963","0.0-165.0","sub-06_ses-02_2","","1500","500","test_start_block","","<div class = centerbox><div class = center-text>Preparez-vous!</p></div>","none","1500","","","","","","","","","","","",""
"1536","89","stop-signal","177","525042","0.0-166.0","sub-06_ses-02_2","","2550","0","stim","","<div class = coverbox></div><div class = shapebox><img class = stim src = /static/experiments/motor_selective_stop_signal/images/circle.png></img></div>","89,71","850","","89","","test","150","<div class = coverbox></div><div class = stopbox><div class = centered-shape id = stop-signal></div><div class = centered-shape id = stop-signal-inner></div></div>","1000","go","500","go","89",""
"705","71","stop-signal","178","527312","0.0-167.0","sub-06_ses-02_2","","2250","0","stim","","<div class = coverbox></div><div class = shapebox><img class = stim src = /static/experiments/motor_selective_stop_signal/images/triangle.png></img></div>","89,71","850","","71","","test","151","<div class = coverbox></div><div class = stopbox><div class = centered-shape id = stop-signal></div><div class = centered-shape id = stop-signal-inner></div></div>","1000","go","500","go","89",""
"595","71","stop-signal","179","529582","0.0-168.0","sub-06_ses-02_2","","2250","0","stim","","<div class = coverbox></div><div class = shapebox><img class = stim src = /static/experiments/motor_selective_stop_signal/images/triangle.png></img></div>","89,71","850","","71","","test","152","<div class = coverbox></div><div class = stopbox><div class = centered-shape id = stop-signal></div><div class = centered-shape id = stop-signal-inner></div></div>","1000","go","500","go","89",""
"1520","89","stop-signal","180","531941","0.0-169.0","sub-06_ses-02_2","","2350","0","stim","","<div class = coverbox></div><div class = shapebox><img class = stim src = /static/experiments/motor_selective_stop_signal/images/circle.png></img></div>","89,71","850","","89","","test","153","<div class = coverbox></div><div class = stopbox><div class = centered-shape id = stop-signal></div><div class = centered-shape id = stop-signal-inner></div></div>","1000","go","500","go","89",""
"1567","89","stop-signal","181","534212","0.0-170.0","sub-06_ses-02_2","","2250","0","stim","","<div class = coverbox></div><div class = shapebox><img class = stim src = /static/experiments/motor_selective_stop_signal/images/circle.png></img></div>","89,71","850","","89","","test","154","<div class = coverbox></div><div class = stopbox><div class = centered-shape id = stop-signal></div><div class = centered-shape id = stop-signal-inner></div></div>","1000","go","500","go","89",""
"692","71","stop-signal","182","536872","0.0-171.0","sub-06_ses-02_2","","2650","0","stim","","<div class = coverbox></div><div class = shapebox><img class = stim src = /static/experiments/motor_selective_stop_signal/images/rhombus.png></img></div>","89,71","850","","71","","test","155","<div class = coverbox></div><div class = stopbox><div class = centered-shape id = stop-signal></div><div class = centered-shape id = stop-signal-inner></div></div>","1000","stop","500","ignore","89",""
"1306","71","stop-signal","183","539243","0.0-172.0","sub-06_ses-02_2","","2350","0","stim","","<div class = coverbox></div><div class = shapebox><img class = stim src = /static/experiments/motor_selective_stop_signal/images/triangle.png></img></div>","89,71","850","","71","","test","156","<div class = coverbox></div><div class = stopbox><div class = centered-shape id = stop-signal></div><div class = centered-shape id = stop-signal-inner></div></div>","1000","stop","500","ignore","89",""
"1539","89","stop-signal","184","541702","0.0-173.0","sub-06_ses-02_2","","2450","0","stim","","<div class = coverbox></div><div class = shapebox><img class = stim src = /static/experiments/motor_selective_stop_signal/images/Lshape.png></img></div>","89,71","850","","89","","test","157","<div class = coverbox></div><div class = stopbox><div class = centered-shape id = stop-signal></div><div class = centered-shape id = stop-signal-inner></div></div>","1000","go","500","go","89",""
"1198","71","stop-signal","185","544062","0.0-174.0","sub-06_ses-02_2","","2350","0","stim","","<div class = coverbox></div><div class = shapebox><img class = stim src = /static/experiments/motor_selective_stop_signal/images/rhombus.png></img></div>","89,71","850","","71","","test","158","<div class = coverbox></div><div class = stopbox><div class = centered-shape id = stop-signal></div><div class = centered-shape id = stop-signal-inner></div></div>","1000","stop","500","ignore","89",""
"-1","-1","stop-signal","186","546323","0.0-175.0","sub-06_ses-02_2","","2250","0","stim","","<div class = coverbox></div><div class = shapebox><img class = stim src = /static/experiments/motor_selective_stop_signal/images/Lshape.png></img></div>","89,71","850","","89","","test","159","<div class = coverbox></div><div class = stopbox><div class = centered-shape id = stop-signal></div><div class = centered-shape id = stop-signal-inner></div></div>","1000","stop","500","stop","89",""
"652","71","stop-signal","187","548582","0.0-176.0","sub-06_ses-02_2","","2250","0","stim","","<div class = coverbox></div><div class = shapebox><img class = stim src = /static/experiments/motor_selective_stop_signal/images/triangle.png></img></div>","89,71","850","","71","","test","160","<div class = coverbox></div><div class = stopbox><div class = centered-shape id = stop-signal></div><div class = centered-shape id = stop-signal-inner></div></div>","1000","go","500","go","89",""
"-1","-1","stop-signal","188","550843","0.0-177.0","sub-06_ses-02_2","","2250","0","stim","","<div class = coverbox></div><div class = shapebox><img class = stim src = /static/experiments/motor_selective_stop_signal/images/circle.png></img></div>","89,71","850","","89","","test","161","<div class = coverbox></div><div class = stopbox><div class = centered-shape id = stop-signal></div><div class = centered-shape id = stop-signal-inner></div></div>","1000","stop","500","stop","89",""
"1612","89","stop-signal","189","553102","0.0-178.0","sub-06_ses-02_2","","2250","0","stim","","<div class = coverbox></div><div class = shapebox><img class = stim src = /static/experiments/motor_selective_stop_signal/images/Lshape.png></img></div>","89,71","850","","89","","test","162","<div class = coverbox></div><div class = stopbox><div class = centered-shape id = stop-signal></div><div class = centered-shape id = stop-signal-inner></div></div>","1000","go","500","go","89",""
"-1","-1","stop-signal","190","555467","0.0-179.0","sub-06_ses-02_2","","2350","0","stim","","<div class = coverbox></div><div class = shapebox><img class = stim src = /static/experiments/motor_selective_stop_signal/images/Lshape.png></img></div>","89,71","850","","89","","test","163","<div class = coverbox></div><div class = stopbox><div class = centered-shape id = stop-signal></div><div class = centered-shape id = stop-signal-inner></div></div>","1000","stop","500","stop","89",""
"688","71","stop-signal","191","558842","0.0-180.0","sub-06_ses-02_2","","3350","0","stim","","<div class = coverbox></div><div class = shapebox><img class = stim src = /static/experiments/motor_selective_stop_signal/images/triangle.png></img></div>","89,71","850","","71","","test","164","<div class = coverbox></div><div class = stopbox><div class = centered-shape id = stop-signal></div><div class = centered-shape id = stop-signal-inner></div></div>","1000","go","500","go","89",""
"630","71","stop-signal","192","561406","0.0-181.0","sub-06_ses-02_2","","2550","0","stim","","<div class = coverbox></div><div class = shapebox><img class = stim src = /static/experiments/motor_selective_stop_signal/images/rhombus.png></img></div>","89,71","850","","71","","test","165","<div class = coverbox></div><div class = stopbox><div class = centered-shape id = stop-signal></div><div class = centered-shape id = stop-signal-inner></div></div>","1000","go","500","go","89",""
"1326","89","stop-signal","193","564185","0.0-182.0","sub-06_ses-02_2","","2750","0","stim","","<div class = coverbox></div><div class = shapebox><img class = stim src = /static/experiments/motor_selective_stop_signal/images/circle.png></img></div>","89,71","850","","89","","test","166","<div class = coverbox></div><div class = stopbox><div class = centered-shape id = stop-signal></div><div class = centered-shape id = stop-signal-inner></div></div>","1000","stop","500","stop","89",""
"1483","89","stop-signal","194","566964","0.0-183.0","sub-06_ses-02_2","","2750","0","stim","","<div class = coverbox></div><div class = shapebox><img class = stim src = /static/experiments/motor_selective_stop_signal/images/Lshape.png></img></div>","89,71","850","","89","","test","167","<div class = coverbox></div><div class = stopbox><div class = centered-shape id = stop-signal></div><div class = centered-shape id = stop-signal-inner></div></div>","950","go","500","go","89",""
"1680","89","stop-signal","195","569623","0.0-184.0","sub-06_ses-02_2","","2650","0","stim","","<div class = coverbox></div><div class = shapebox><img class = stim src = /static/experiments/motor_selective_stop_signal/images/Lshape.png></img></div>","89,71","850","","89","","test","168","<div class = coverbox></div><div class = stopbox><div class = centered-shape id = stop-signal></div><div class = centered-shape id = stop-signal-inner></div></div>","950","go","500","go","89",""
"-1","-1","stop-signal","196","572085","0.0-185.0","sub-06_ses-02_2","","2450","0","stim","","<div class = coverbox></div><div class = shapebox><img class = stim src = /static/experiments/motor_selective_stop_signal/images/circle.png></img></div>","89,71","850","","89","","test","169","<div class = coverbox></div><div class = stopbox><div class = centered-shape id = stop-signal></div><div class = centered-shape id = stop-signal-inner></div></div>","950","stop","500","stop","89",""
"1489","89","stop-signal","197","574343","0.0-186.0","sub-06_ses-02_2","","2250","0","stim","","<div class = coverbox></div><div class = shapebox><img class = stim src = /static/experiments/motor_selective_stop_signal/images/circle.png></img></div>","89,71","850","","89","","test","170","<div class = coverbox></div><div class = stopbox><div class = centered-shape id = stop-signal></div><div class = centered-shape id = stop-signal-inner></div></div>","1000","go","500","go","89",""
"1604","89","stop-signal","198","576702","0.0-187.0","sub-06_ses-02_2","","2350","0","stim","","<div class = coverbox></div><div class = shapebox><img class = stim src = /static/experiments/motor_selective_stop_signal/images/circle.png></img></div>","89,71","850","","89","","test","171","<div class = coverbox></div><div class = stopbox><div class = centered-shape id = stop-signal></div><div class = centered-shape id = stop-signal-inner></div></div>","1000","go","500","go","89",""
"1423","71","stop-signal","199","579161","0.0-188.0","sub-06_ses-02_2","","2450","0","stim","","<div class = coverbox></div><div class = shapebox><img class = stim src = /static/experiments/motor_selective_stop_signal/images/rhombus.png></img></div>","89,71","850","","71","","test","172","<div class = coverbox></div><div class = stopbox><div class = centered-shape id = stop-signal></div><div class = centered-shape id = stop-signal-inner></div></div>","1000","go","500","go","89",""
"1847","89","stop-signal","200","582223","0.0-189.0","sub-06_ses-02_2","","3050","0","stim","","<div class = coverbox></div><div class = shapebox><img class = stim src = /static/experiments/motor_selective_stop_signal/images/Lshape.png></img></div>","89,71","850","","89","","test","173","<div class = coverbox></div><div class = stopbox><div class = centered-shape id = stop-signal></div><div class = centered-shape id = stop-signal-inner></div></div>","1000","go","500","go","89",""
"1711","89","stop-signal","201","584592","0.0-190.0","sub-06_ses-02_2","","2350","0","stim","","<div class = coverbox></div><div class = shapebox><img class = stim src = /static/experiments/motor_selective_stop_signal/images/circle.png></img></div>","89,71","850","","89","","test","174","<div class = coverbox></div><div class = stopbox><div class = centered-shape id = stop-signal></div><div class = centered-shape id = stop-signal-inner></div></div>","1000","go","500","go","89",""
"696","71","stop-signal","202","586864","0.0-191.0","sub-06_ses-02_2","","2250","0","stim","","<div class = coverbox></div><div class = shapebox><img class = stim src = /static/experiments/motor_selective_stop_signal/images/triangle.png></img></div>","89,71","850","","71","","test","175","<div class = coverbox></div><div class = stopbox><div class = centered-shape id = stop-signal></div><div class = centered-shape id = stop-signal-inner></div></div>","1000","stop","500","ignore","89",""
"1464","89","stop-signal","203","589222","0.0-192.0","sub-06_ses-02_2","","2350","0","stim","","<div class = coverbox></div><div class = shapebox><img class = stim src = /static/experiments/motor_selective_stop_signal/images/Lshape.png></img></div>","89,71","850","","89","","test","176","<div class = coverbox></div><div class = stopbox><div class = centered-shape id = stop-signal></div><div class = centered-shape id = stop-signal-inner></div></div>","1000","go","500","go","89",""
"1492","89","stop-signal","204","591582","0.0-193.0","sub-06_ses-02_2","","2350","0","stim","","<div class = coverbox></div><div class = shapebox><img class = stim src = /static/experiments/motor_selective_stop_signal/images/Lshape.png></img></div>","89,71","850","","89","","test","177","<div class = coverbox></div><div class = stopbox><div class = centered-shape id = stop-signal></div><div class = centered-shape id = stop-signal-inner></div></div>","1000","go","500","go","89",""
"1607","89","stop-signal","205","593952","0.0-194.0","sub-06_ses-02_2","","2350","0","stim","","<div class = coverbox></div><div class = shapebox><img class = stim src = /static/experiments/motor_selective_stop_signal/images/circle.png></img></div>","89,71","850","","89","","test","178","<div class = coverbox></div><div class = stopbox><div class = centered-shape id = stop-signal></div><div class = centered-shape id = stop-signal-inner></div></div>","1000","go","500","go","89",""
"1328","71","stop-signal","206","596313","0.0-195.0","sub-06_ses-02_2","","2350","0","stim","","<div class = coverbox></div><div class = shapebox><img class = stim src = /static/experiments/motor_selective_stop_signal/images/rhombus.png></img></div>","89,71","850","","71","","test","179","<div class = coverbox></div><div class = stopbox><div class = centered-shape id = stop-signal></div><div class = centered-shape id = stop-signal-inner></div></div>","1000","stop","500","ignore","89",""
"647","71","stop-signal","207","598673","0.0-196.0","sub-06_ses-02_2","","2350","0","stim","","<div class = coverbox></div><div class = shapebox><img class = stim src = /static/experiments/motor_selective_stop_signal/images/rhombus.png></img></div>","89,71","850","","71","","test","180","<div class = coverbox></div><div class = stopbox><div class = centered-shape id = stop-signal></div><div class = centered-shape id = stop-signal-inner></div></div>","1000","go","500","go","89",""
"674","71","stop-signal","208","600933","0.0-197.0","sub-06_ses-02_2","","2250","0","stim","","<div class = coverbox></div><div class = shapebox><img class = stim src = /static/experiments/motor_selective_stop_signal/images/triangle.png></img></div>","89,71","850","","71","","test","181","<div class = coverbox></div><div class = stopbox><div class = centered-shape id = stop-signal></div><div class = centered-shape id = stop-signal-inner></div></div>","1000","go","500","go","89",""
"-1","-1","stop-signal","209","603294","0.0-198.0","sub-06_ses-02_2","","2350","0","stim","","<div class = coverbox></div><div class = shapebox><img class = stim src = /static/experiments/motor_selective_stop_signal/images/Lshape.png></img></div>","89,71","850","","89","","test","182","<div class = coverbox></div><div class = stopbox><div class = centered-shape id = stop-signal></div><div class = centered-shape id = stop-signal-inner></div></div>","1000","stop","500","stop","89",""
"1674","89","stop-signal","210","605752","0.0-199.0","sub-06_ses-02_2","","2450","0","stim","","<div class = coverbox></div><div class = shapebox><img class = stim src = /static/experiments/motor_selective_stop_signal/images/Lshape.png></img></div>","89,71","850","","89","","test","183","<div class = coverbox></div><div class = stopbox><div class = centered-shape id = stop-signal></div><div class = centered-shape id = stop-signal-inner></div></div>","1000","go","500","go","89",""
"-1","-1","stop-signal","211","608113","0.0-200.0","sub-06_ses-02_2","","2350","0","stim","","<div class = coverbox></div><div class = shapebox><img class = stim src = /static/experiments/motor_selective_stop_signal/images/rhombus.png></img></div>","89,71","850","","71","","test","184","<div class = coverbox></div><div class = stopbox><div class = centered-shape id = stop-signal></div><div class = centered-shape id = stop-signal-inner></div></div>","1000","go","500","go","89",""
"664","71","stop-signal","212","610982","0.0-201.0","sub-06_ses-02_2","","2850","0","stim","","<div class = coverbox></div><div class = shapebox><img class = stim src = /static/experiments/motor_selective_stop_signal/images/triangle.png></img></div>","89,71","850","","71","","test","185","<div class = coverbox></div><div class = stopbox><div class = centered-shape id = stop-signal></div><div class = centered-shape id = stop-signal-inner></div></div>","1000","go","500","go","89",""
"1564","89","stop-signal","213","613544","0.0-202.0","sub-06_ses-02_2","","2550","0","stim","","<div class = coverbox></div><div class = shapebox><img class = stim src = /static/experiments/motor_selective_stop_signal/images/circle.png></img></div>","89,71","850","","89","","test","186","<div class = coverbox></div><div class = stopbox><div class = centered-shape id = stop-signal></div><div class = centered-shape id = stop-signal-inner></div></div>","1000","go","500","go","89",""
"1721","89","stop-signal","214","616306","0.0-203.0","sub-06_ses-02_2","","2750","0","stim","","<div class = coverbox></div><div class = shapebox><img class = stim src = /static/experiments/motor_selective_stop_signal/images/Lshape.png></img></div>","89,71","850","","89","","test","187","<div class = coverbox></div><div class = stopbox><div class = centered-shape id = stop-signal></div><div class = centered-shape id = stop-signal-inner></div></div>","1000","go","500","go","89",""
