"rt","key_press","trial_type","trial_index","time_elapsed","internal_node_id","subject","text","block_duration","timing_post_trial","trial_id","responses","stimulus","possible_responses","stim_duration","exp_stage","cue","stim_color","stim_number","task","task_switch","cue_switch","trial_num","correct","correct_response","feedback_duration","exp_id"
"935","13","text","0","941","0.0-0.0","sub-09_ses-01_1","","","","","","","","","","","","","","","","","","","",""
"955","89","poldrack-text","1","2922","0.0-1.0","sub-09_ses-01_1","<div class = centerbox><div style = 'font-size: 50px' class = center-text>Veuillez appuyer avec votre index</p></div>","955","500","fmri_response_test","","","","","","","","","","","","","","","",""
"651","71","poldrack-text","2","4097","0.0-2.0","sub-09_ses-01_1","<div class = centerbox><div style = 'font-size: 50px' class = center-text>Veuillez appuyer avec votre majeur</p></div>","651","500","fmri_response_test","","","","","","","","","","","","","","","",""
"5569","","survey-text","3","10193","0.0-3.0","sub-09_ses-01_1","","","","task_setup","{""Q0"":""1"",""Q1"":""2""}","","","","","","","","","","","","","","",""
"8254","32","poldrack-single-stim","4","19462","0.0-4.0","sub-09_ses-01_1","","8254","0","instructions","","<div class = centerbox><div class = center-text style=""font-size:40px""><strong>Couleur</strong> or <strong>Orange-Bleu</strong>: Index si orange et Majeur si bleu.<br><br><strong>Amplitude</strong> ou <strong>Haut-Bas</strong>: Majeur si >5 et Index si <5.</div></div>","32","8254","","","","","","","","","","","",""
"","","call-function","5","19464","0.0-5.0-0.0","sub-09_ses-01_1","","","","set_stims","","","","","","","","","","","","","","","",""
"-1","-1","poldrack-single-stim","6","19983","0.0-5.0-1.0","sub-09_ses-01_1","","500","0","fixation","","<div class = upperbox><div class = fixation>+</div></div><div class = lowerbox><div class = fixation>+</div></div>","none","500","practice","","","","","","","","","","",""
"-1","-1","poldrack-single-stim","7","20905","0.0-5.0-2.0","sub-09_ses-01_1","","900","0","cue","","<div class = upperbox><div class = ""center-text"" >Amplitude</div></div><div class = lowerbox><div class = fixation>+</div></div>","none","900","practice","Amplitude","#1F45FC","1","magnitude","stay","switch","0","","","",""
"1163","89","poldrack-categorize","8","23442","0.0-5.0-3.0","sub-09_ses-01_1","","2000","0","stim","","<div class = upperbox><div class = ""center-text"" >Amplitude</div></div><div class = lowerbox><div class = ""stim-text"" style=color:#1F45FC;>1</div>","89,71","1000","practice","Amplitude","#1F45FC","1","magnitude","stay","switch","0","true","89","500",""
"-1","-1","poldrack-single-stim","9","23962","0.0-5.0-4.0","sub-09_ses-01_1","","500","0","gap",""," ","none","500","practice","","","","","","","","","","",""
"","","call-function","10","23964","0.0-5.0-5.0","sub-09_ses-01_1","","","","set_stims","","","","","","","","","","","","","","","",""
"-1","-1","poldrack-single-stim","11","24480","0.0-5.0-6.0","sub-09_ses-01_1","","500","0","fixation","","<div class = upperbox><div class = fixation>+</div></div><div class = lowerbox><div class = fixation>+</div></div>","none","500","practice","","","","","","","","","","",""
"-1","-1","poldrack-single-stim","12","24603","0.0-5.0-7.0","sub-09_ses-01_1","","100","0","cue","","<div class = upperbox><div class = ""center-text"" >Haut-Bas</div></div><div class = lowerbox><div class = fixation>+</div></div>","none","100","practice","Haut-Bas","orange","6","magnitude","stay","switch","1","","","",""
"920","71","poldrack-categorize","13","27121","0.0-5.0-8.0","sub-09_ses-01_1","","2000","0","stim","","<div class = upperbox><div class = ""center-text"" >Haut-Bas</div></div><div class = lowerbox><div class = ""stim-text"" style=color:orange;>6</div>","89,71","1000","practice","Haut-Bas","orange","6","magnitude","stay","switch","1","true","71","500",""
"-1","-1","poldrack-single-stim","14","27642","0.0-5.0-9.0","sub-09_ses-01_1","","500","0","gap",""," ","none","500","practice","","","","","","","","","","",""
"","","call-function","15","27643","0.0-5.0-10.0","sub-09_ses-01_1","","","","set_stims","","","","","","","","","","","","","","","",""
"-1","-1","poldrack-single-stim","16","28162","0.0-5.0-11.0","sub-09_ses-01_1","","500","0","fixation","","<div class = upperbox><div class = fixation>+</div></div><div class = lowerbox><div class = fixation>+</div></div>","none","500","practice","","","","","","","","","","",""
"-1","-1","poldrack-single-stim","17","29082","0.0-5.0-12.0","sub-09_ses-01_1","","900","0","cue","","<div class = upperbox><div class = ""center-text"" >Orange-Bleu</div></div><div class = lowerbox><div class = fixation>+</div></div>","none","900","practice","Orange-Bleu","#1F45FC","3","color","switch","stay","2","","","",""
"760","71","poldrack-categorize","18","31622","0.0-5.0-13.0","sub-09_ses-01_1","","2000","0","stim","","<div class = upperbox><div class = ""center-text"" >Orange-Bleu</div></div><div class = lowerbox><div class = ""stim-text"" style=color:#1F45FC;>3</div>","89,71","1000","practice","Orange-Bleu","#1F45FC","3","color","switch","stay","2","true","71","500",""
"-1","-1","poldrack-single-stim","19","32141","0.0-5.0-14.0","sub-09_ses-01_1","","500","0","gap",""," ","none","500","practice","","","","","","","","","","",""
"","","call-function","20","32142","0.0-5.0-15.0","sub-09_ses-01_1","","","","set_stims","","","","","","","","","","","","","","","",""
"-1","-1","poldrack-single-stim","21","32662","0.0-5.0-16.0","sub-09_ses-01_1","","500","0","fixation","","<div class = upperbox><div class = fixation>+</div></div><div class = lowerbox><div class = fixation>+</div></div>","none","500","practice","","","","","","","","","","",""
"-1","-1","poldrack-single-stim","22","32782","0.0-5.0-17.0","sub-09_ses-01_1","","100","0","cue","","<div class = upperbox><div class = ""center-text"" >Orange-Bleu</div></div><div class = lowerbox><div class = fixation>+</div></div>","none","100","practice","Orange-Bleu","orange","4","color","stay","stay","3","","","",""
"863","89","poldrack-categorize","23","35322","0.0-5.0-18.0","sub-09_ses-01_1","","2000","0","stim","","<div class = upperbox><div class = ""center-text"" >Orange-Bleu</div></div><div class = lowerbox><div class = ""stim-text"" style=color:orange;>4</div>","89,71","1000","practice","Orange-Bleu","orange","4","color","stay","stay","3","true","89","500",""
"-1","-1","poldrack-single-stim","24","35842","0.0-5.0-19.0","sub-09_ses-01_1","","500","0","gap",""," ","none","500","practice","","","","","","","","","","",""
"","","call-function","25","35843","0.0-5.0-20.0","sub-09_ses-01_1","","","","set_stims","","","","","","","","","","","","","","","",""
"-1","-1","poldrack-single-stim","26","36360","0.0-5.0-21.0","sub-09_ses-01_1","","500","0","fixation","","<div class = upperbox><div class = fixation>+</div></div><div class = lowerbox><div class = fixation>+</div></div>","none","500","practice","","","","","","","","","","",""
"-1","-1","poldrack-single-stim","27","36481","0.0-5.0-22.0","sub-09_ses-01_1","","100","0","cue","","<div class = upperbox><div class = ""center-text"" >Couleur</div></div><div class = lowerbox><div class = fixation>+</div></div>","none","100","practice","Couleur","orange","9","color","stay","switch","4","","","",""
"829","89","poldrack-categorize","28","39021","0.0-5.0-23.0","sub-09_ses-01_1","","2000","0","stim","","<div class = upperbox><div class = ""center-text"" >Couleur</div></div><div class = lowerbox><div class = ""stim-text"" style=color:orange;>9</div>","89,71","1000","practice","Couleur","orange","9","color","stay","switch","4","true","89","500",""
"-1","-1","poldrack-single-stim","29","39531","0.0-5.0-24.0","sub-09_ses-01_1","","500","0","gap",""," ","none","500","practice","","","","","","","","","","",""
"","","call-function","30","39532","0.0-5.0-25.0","sub-09_ses-01_1","","","","set_stims","","","","","","","","","","","","","","","",""
"-1","-1","poldrack-single-stim","31","40051","0.0-5.0-26.0","sub-09_ses-01_1","","500","0","fixation","","<div class = upperbox><div class = fixation>+</div></div><div class = lowerbox><div class = fixation>+</div></div>","none","500","practice","","","","","","","","","","",""
"-1","-1","poldrack-single-stim","32","40172","0.0-5.0-27.0","sub-09_ses-01_1","","100","0","cue","","<div class = upperbox><div class = ""center-text"" >Amplitude</div></div><div class = lowerbox><div class = fixation>+</div></div>","none","100","practice","Amplitude","orange","2","magnitude","switch","switch","5","","","",""
"1071","89","poldrack-categorize","33","42711","0.0-5.0-28.0","sub-09_ses-01_1","","2000","0","stim","","<div class = upperbox><div class = ""center-text"" >Amplitude</div></div><div class = lowerbox><div class = ""stim-text"" style=color:orange;>2</div>","89,71","1000","practice","Amplitude","orange","2","magnitude","switch","switch","5","true","89","500",""
"-1","-1","poldrack-single-stim","34","43231","0.0-5.0-29.0","sub-09_ses-01_1","","500","0","gap",""," ","none","500","practice","","","","","","","","","","",""
"","","call-function","35","43231","0.0-5.0-30.0","sub-09_ses-01_1","","","","set_stims","","","","","","","","","","","","","","","",""
"-1","-1","poldrack-single-stim","36","43752","0.0-5.0-31.0","sub-09_ses-01_1","","500","0","fixation","","<div class = upperbox><div class = fixation>+</div></div><div class = lowerbox><div class = fixation>+</div></div>","none","500","practice","","","","","","","","","","",""
"-1","-1","poldrack-single-stim","37","43872","0.0-5.0-32.0","sub-09_ses-01_1","","100","0","cue","","<div class = upperbox><div class = ""center-text"" >Amplitude</div></div><div class = lowerbox><div class = fixation>+</div></div>","none","100","practice","Amplitude","orange","9","magnitude","stay","stay","6","","","",""
"1445","89","poldrack-categorize","38","46400","0.0-5.0-33.0","sub-09_ses-01_1","","2000","0","stim","","<div class = upperbox><div class = ""center-text"" >Amplitude</div></div><div class = lowerbox><div class = ""stim-text"" style=color:orange;>9</div>","89,71","1000","practice","Amplitude","orange","9","magnitude","stay","stay","6","false","71","500",""
"-1","-1","poldrack-single-stim","39","46922","0.0-5.0-34.0","sub-09_ses-01_1","","500","0","gap",""," ","none","500","practice","","","","","","","","","","",""
"","","call-function","40","46922","0.0-5.0-35.0","sub-09_ses-01_1","","","","set_stims","","","","","","","","","","","","","","","",""
"-1","-1","poldrack-single-stim","41","47441","0.0-5.0-36.0","sub-09_ses-01_1","","500","0","fixation","","<div class = upperbox><div class = fixation>+</div></div><div class = lowerbox><div class = fixation>+</div></div>","none","500","practice","","","","","","","","","","",""
"-1","-1","poldrack-single-stim","42","48363","0.0-5.0-37.0","sub-09_ses-01_1","","900","0","cue","","<div class = upperbox><div class = ""center-text"" >Haut-Bas</div></div><div class = lowerbox><div class = fixation>+</div></div>","none","900","practice","Haut-Bas","orange","4","magnitude","stay","switch","7","","","",""
"689","89","poldrack-categorize","43","50902","0.0-5.0-38.0","sub-09_ses-01_1","","2000","0","stim","","<div class = upperbox><div class = ""center-text"" >Haut-Bas</div></div><div class = lowerbox><div class = ""stim-text"" style=color:orange;>4</div>","89,71","1000","practice","Haut-Bas","orange","4","magnitude","stay","switch","7","true","89","500",""
"-1","-1","poldrack-single-stim","44","51422","0.0-5.0-39.0","sub-09_ses-01_1","","500","0","gap",""," ","none","500","practice","","","","","","","","","","",""
"","","call-function","45","51423","0.0-5.0-40.0","sub-09_ses-01_1","","","","set_stims","","","","","","","","","","","","","","","",""
"-1","-1","poldrack-single-stim","46","51941","0.0-5.0-41.0","sub-09_ses-01_1","","500","0","fixation","","<div class = upperbox><div class = fixation>+</div></div><div class = lowerbox><div class = fixation>+</div></div>","none","500","practice","","","","","","","","","","",""
"-1","-1","poldrack-single-stim","47","52861","0.0-5.0-42.0","sub-09_ses-01_1","","900","0","cue","","<div class = upperbox><div class = ""center-text"" >Haut-Bas</div></div><div class = lowerbox><div class = fixation>+</div></div>","none","900","practice","Haut-Bas","#1F45FC","2","magnitude","stay","stay","8","","","",""
"590","89","poldrack-categorize","48","55392","0.0-5.0-43.0","sub-09_ses-01_1","","2000","0","stim","","<div class = upperbox><div class = ""center-text"" >Haut-Bas</div></div><div class = lowerbox><div class = ""stim-text"" style=color:#1F45FC;>2</div>","89,71","1000","practice","Haut-Bas","#1F45FC","2","magnitude","stay","stay","8","true","89","500",""
"-1","-1","poldrack-single-stim","49","55911","0.0-5.0-44.0","sub-09_ses-01_1","","500","0","gap",""," ","none","500","practice","","","","","","","","","","",""
"","","call-function","50","55912","0.0-5.0-45.0","sub-09_ses-01_1","","","","set_stims","","","","","","","","","","","","","","","",""
"-1","-1","poldrack-single-stim","51","56432","0.0-5.0-46.0","sub-09_ses-01_1","","500","0","fixation","","<div class = upperbox><div class = fixation>+</div></div><div class = lowerbox><div class = fixation>+</div></div>","none","500","practice","","","","","","","","","","",""
"-1","-1","poldrack-single-stim","52","57352","0.0-5.0-47.0","sub-09_ses-01_1","","900","0","cue","","<div class = upperbox><div class = ""center-text"" >Orange-Bleu</div></div><div class = lowerbox><div class = fixation>+</div></div>","none","900","practice","Orange-Bleu","orange","8","color","switch","stay","9","","","",""
"554","89","poldrack-categorize","53","59891","0.0-5.0-48.0","sub-09_ses-01_1","","2000","0","stim","","<div class = upperbox><div class = ""center-text"" >Orange-Bleu</div></div><div class = lowerbox><div class = ""stim-text"" style=color:orange;>8</div>","89,71","1000","practice","Orange-Bleu","orange","8","color","switch","stay","9","true","89","500",""
"-1","-1","poldrack-single-stim","54","60402","0.0-5.0-49.0","sub-09_ses-01_1","","500","0","gap",""," ","none","500","practice","","","","","","","","","","",""
"","","call-function","55","60402","0.0-5.0-50.0","sub-09_ses-01_1","","","","set_stims","","","","","","","","","","","","","","","",""
"-1","-1","poldrack-single-stim","56","60922","0.0-5.0-51.0","sub-09_ses-01_1","","500","0","fixation","","<div class = upperbox><div class = fixation>+</div></div><div class = lowerbox><div class = fixation>+</div></div>","none","500","practice","","","","","","","","","","",""
"-1","-1","poldrack-single-stim","57","61840","0.0-5.0-52.0","sub-09_ses-01_1","","900","0","cue","","<div class = upperbox><div class = ""center-text"" >Haut-Bas</div></div><div class = lowerbox><div class = fixation>+</div></div>","none","900","practice","Haut-Bas","orange","4","magnitude","switch","switch","10","","","",""
"610","89","poldrack-categorize","58","64382","0.0-5.0-53.0","sub-09_ses-01_1","","2000","0","stim","","<div class = upperbox><div class = ""center-text"" >Haut-Bas</div></div><div class = lowerbox><div class = ""stim-text"" style=color:orange;>4</div>","89,71","1000","practice","Haut-Bas","orange","4","magnitude","switch","switch","10","true","89","500",""
"-1","-1","poldrack-single-stim","59","64901","0.0-5.0-54.0","sub-09_ses-01_1","","500","0","gap",""," ","none","500","practice","","","","","","","","","","",""
"","","call-function","60","64902","0.0-5.0-55.0","sub-09_ses-01_1","","","","set_stims","","","","","","","","","","","","","","","",""
"-1","-1","poldrack-single-stim","61","65422","0.0-5.0-56.0","sub-09_ses-01_1","","500","0","fixation","","<div class = upperbox><div class = fixation>+</div></div><div class = lowerbox><div class = fixation>+</div></div>","none","500","practice","","","","","","","","","","",""
"-1","-1","poldrack-single-stim","62","65543","0.0-5.0-57.0","sub-09_ses-01_1","","100","0","cue","","<div class = upperbox><div class = ""center-text"" >Orange-Bleu</div></div><div class = lowerbox><div class = fixation>+</div></div>","none","100","practice","Orange-Bleu","orange","2","color","switch","switch","11","","","",""
"843","89","poldrack-categorize","63","68082","0.0-5.0-58.0","sub-09_ses-01_1","","2000","0","stim","","<div class = upperbox><div class = ""center-text"" >Orange-Bleu</div></div><div class = lowerbox><div class = ""stim-text"" style=color:orange;>2</div>","89,71","1000","practice","Orange-Bleu","orange","2","color","switch","switch","11","true","89","500",""
"-1","-1","poldrack-single-stim","64","68649","0.0-5.0-59.0","sub-09_ses-01_1","","500","0","gap",""," ","none","500","practice","","","","","","","","","","",""
"","","call-function","65","68651","0.0-5.0-60.0","sub-09_ses-01_1","","","","set_stims","","","","","","","","","","","","","","","",""
"-1","-1","poldrack-single-stim","66","69162","0.0-5.0-61.0","sub-09_ses-01_1","","500","0","fixation","","<div class = upperbox><div class = fixation>+</div></div><div class = lowerbox><div class = fixation>+</div></div>","none","500","practice","","","","","","","","","","",""
"-1","-1","poldrack-single-stim","67","70082","0.0-5.0-62.0","sub-09_ses-01_1","","900","0","cue","","<div class = upperbox><div class = ""center-text"" >Amplitude</div></div><div class = lowerbox><div class = fixation>+</div></div>","none","900","practice","Amplitude","#1F45FC","8","magnitude","switch","switch","12","","","",""
"564","71","poldrack-categorize","68","72622","0.0-5.0-63.0","sub-09_ses-01_1","","2000","0","stim","","<div class = upperbox><div class = ""center-text"" >Amplitude</div></div><div class = lowerbox><div class = ""stim-text"" style=color:#1F45FC;>8</div>","89,71","1000","practice","Amplitude","#1F45FC","8","magnitude","switch","switch","12","true","71","500",""
"-1","-1","poldrack-single-stim","69","73143","0.0-5.0-64.0","sub-09_ses-01_1","","500","0","gap",""," ","none","500","practice","","","","","","","","","","",""
"","","call-function","70","73143","0.0-5.0-65.0","sub-09_ses-01_1","","","","set_stims","","","","","","","","","","","","","","","",""
"-1","-1","poldrack-single-stim","71","73661","0.0-5.0-66.0","sub-09_ses-01_1","","500","0","fixation","","<div class = upperbox><div class = fixation>+</div></div><div class = lowerbox><div class = fixation>+</div></div>","none","500","practice","","","","","","","","","","",""
"-1","-1","poldrack-single-stim","72","73782","0.0-5.0-67.0","sub-09_ses-01_1","","100","0","cue","","<div class = upperbox><div class = ""center-text"" >Couleur</div></div><div class = lowerbox><div class = fixation>+</div></div>","none","100","practice","Couleur","orange","6","color","switch","stay","13","","","",""
"713","89","poldrack-categorize","73","76322","0.0-5.0-68.0","sub-09_ses-01_1","","2000","0","stim","","<div class = upperbox><div class = ""center-text"" >Couleur</div></div><div class = lowerbox><div class = ""stim-text"" style=color:orange;>6</div>","89,71","1000","practice","Couleur","orange","6","color","switch","stay","13","true","89","500",""
"-1","-1","poldrack-single-stim","74","76841","0.0-5.0-69.0","sub-09_ses-01_1","","500","0","gap",""," ","none","500","practice","","","","","","","","","","",""
"","","call-function","75","76842","0.0-5.0-70.0","sub-09_ses-01_1","","","","set_stims","","","","","","","","","","","","","","","",""
"-1","-1","poldrack-single-stim","76","77362","0.0-5.0-71.0","sub-09_ses-01_1","","500","0","fixation","","<div class = upperbox><div class = fixation>+</div></div><div class = lowerbox><div class = fixation>+</div></div>","none","500","practice","","","","","","","","","","",""
"-1","-1","poldrack-single-stim","77","77483","0.0-5.0-72.0","sub-09_ses-01_1","","100","0","cue","","<div class = upperbox><div class = ""center-text"" >Haut-Bas</div></div><div class = lowerbox><div class = fixation>+</div></div>","none","100","practice","Haut-Bas","orange","8","magnitude","switch","stay","14","","","",""
"802","71","poldrack-categorize","78","80021","0.0-5.0-73.0","sub-09_ses-01_1","","2000","0","stim","","<div class = upperbox><div class = ""center-text"" >Haut-Bas</div></div><div class = lowerbox><div class = ""stim-text"" style=color:orange;>8</div>","89,71","1000","practice","Haut-Bas","orange","8","magnitude","switch","stay","14","true","71","500",""
"-1","-1","poldrack-single-stim","79","80541","0.0-5.0-74.0","sub-09_ses-01_1","","500","0","gap",""," ","none","500","practice","","","","","","","","","","",""
"","","call-function","80","80542","0.0-5.0-75.0","sub-09_ses-01_1","","","","set_stims","","","","","","","","","","","","","","","",""
"-1","-1","poldrack-single-stim","81","81062","0.0-5.0-76.0","sub-09_ses-01_1","","500","0","fixation","","<div class = upperbox><div class = fixation>+</div></div><div class = lowerbox><div class = fixation>+</div></div>","none","500","practice","","","","","","","","","","",""
"-1","-1","poldrack-single-stim","82","81981","0.0-5.0-77.0","sub-09_ses-01_1","","900","0","cue","","<div class = upperbox><div class = ""center-text"" >Haut-Bas</div></div><div class = lowerbox><div class = fixation>+</div></div>","none","900","practice","Haut-Bas","orange","1","magnitude","stay","stay","15","","","",""
"459","89","poldrack-categorize","83","84511","0.0-5.0-78.0","sub-09_ses-01_1","","2000","0","stim","","<div class = upperbox><div class = ""center-text"" >Haut-Bas</div></div><div class = lowerbox><div class = ""stim-text"" style=color:orange;>1</div>","89,71","1000","practice","Haut-Bas","orange","1","magnitude","stay","stay","15","true","89","500",""
"-1","-1","poldrack-single-stim","84","85032","0.0-5.0-79.0","sub-09_ses-01_1","","500","0","gap",""," ","none","500","practice","","","","","","","","","","",""
"1052","32","poldrack-text","85","86098","0.0-6.0","sub-09_ses-01_1","<div class = centerbox><div  class = center-text>Scanner Setup</div></div>","1052","0","fmri_scanner_wait","","","","","","","","","","","","","","","",""
"56951","84","poldrack-text","86","143053","0.0-7.0","sub-09_ses-01_1","<div class = centerbox><div style='color:red'; class = center-text>+</div></div>","56951","0","fmri_trigger_wait","","","","","","","","","","","","","","","",""
"-1","-1","poldrack-single-stim","87","144073","0.0-8.0","sub-09_ses-01_1","","1000","0","fmri_buffer","","","none","1000","","","","","","","","","","","",""
"-1","-1","poldrack-single-stim","88","145593","0.0-9.0","sub-09_ses-01_1","","1500","500","test_start_block","","<div class = centerbox><div class = center-text>Preparez-vous!</p></div>","none","1500","","","","","","","","","","","",""
"-1","-1","poldrack-single-stim","89","146632","0.0-10.0","sub-09_ses-01_1","","500","0","fixation","","<div class = upperbox><div class = fixation>+</div></div><div class = lowerbox><div class = fixation>+</div></div>","none","500","test","","","","","","","","","","",""
"","","call-function","90","146633","0.0-11.0","sub-09_ses-01_1","","","","set_stims","","","","","","","","","","","","","","","",""
"-1","-1","poldrack-single-stim","91","146752","0.0-12.0","sub-09_ses-01_1","","100","0","cue","","<div class = upperbox><div class = ""center-text"" >Orange-Bleu</div></div><div class = lowerbox><div class = fixation>+</div></div>","none","100","test","Orange-Bleu","#1F45FC","1","color","stay","stay","0","","","",""
"784","71","poldrack-single-stim","92","149992","0.0-13.0","sub-09_ses-01_1","","3224","0","stim","","<div class = upperbox><div class = ""center-text"" >Orange-Bleu</div></div><div class = lowerbox><div class = ""stim-text"" style=color:#1F45FC;>1</div>","89,71","1000","test","Orange-Bleu","#1F45FC","1","color","stay","stay","0","true","71","",""
"","","call-function","93","149993","0.0-14.0","sub-09_ses-01_1","","","","set_stims","","","","","","","","","","","","","","","",""
"-1","-1","poldrack-single-stim","94","150112","0.0-15.0","sub-09_ses-01_1","","100","0","cue","","<div class = upperbox><div class = ""center-text"" >Amplitude</div></div><div class = lowerbox><div class = fixation>+</div></div>","none","100","test","Amplitude","orange","6","magnitude","switch","switch","1","","","",""
"817","71","poldrack-single-stim","95","152540","0.0-16.0","sub-09_ses-01_1","","2408","0","stim","","<div class = upperbox><div class = ""center-text"" >Amplitude</div></div><div class = lowerbox><div class = ""stim-text"" style=color:orange;>6</div>","89,71","1000","test","Amplitude","orange","6","magnitude","switch","switch","1","true","71","",""
"","","call-function","96","152542","0.0-17.0","sub-09_ses-01_1","","","","set_stims","","","","","","","","","","","","","","","",""
"-1","-1","poldrack-single-stim","97","153461","0.0-18.0","sub-09_ses-01_1","","900","0","cue","","<div class = upperbox><div class = ""center-text"" >Orange-Bleu</div></div><div class = lowerbox><div class = fixation>+</div></div>","none","900","test","Orange-Bleu","#1F45FC","3","color","switch","switch","2","","","",""
"622","71","poldrack-single-stim","98","156281","0.0-19.0","sub-09_ses-01_1","","2816","0","stim","","<div class = upperbox><div class = ""center-text"" >Orange-Bleu</div></div><div class = lowerbox><div class = ""stim-text"" style=color:#1F45FC;>3</div>","89,71","1000","test","Orange-Bleu","#1F45FC","3","color","switch","switch","2","true","71","",""
"","","call-function","99","156282","0.0-20.0","sub-09_ses-01_1","","","","set_stims","","","","","","","","","","","","","","","",""
"-1","-1","poldrack-single-stim","100","157202","0.0-21.0","sub-09_ses-01_1","","900","0","cue","","<div class = upperbox><div class = ""center-text"" >Amplitude</div></div><div class = lowerbox><div class = fixation>+</div></div>","none","900","test","Amplitude","orange","4","magnitude","switch","stay","3","","","",""
"470","89","poldrack-single-stim","101","159620","0.0-22.0","sub-09_ses-01_1","","2408","0","stim","","<div class = upperbox><div class = ""center-text"" >Amplitude</div></div><div class = lowerbox><div class = ""stim-text"" style=color:orange;>4</div>","89,71","1000","test","Amplitude","orange","4","magnitude","switch","stay","3","true","89","",""
"","","call-function","102","159622","0.0-23.0","sub-09_ses-01_1","","","","set_stims","","","","","","","","","","","","","","","",""
"-1","-1","poldrack-single-stim","103","160541","0.0-24.0","sub-09_ses-01_1","","900","0","cue","","<div class = upperbox><div class = ""center-text"" >Couleur</div></div><div class = lowerbox><div class = fixation>+</div></div>","none","900","test","Couleur","orange","9","color","switch","stay","4","","","",""
"431","89","poldrack-single-stim","104","162701","0.0-25.0","sub-09_ses-01_1","","2136","0","stim","","<div class = upperbox><div class = ""center-text"" >Couleur</div></div><div class = lowerbox><div class = ""stim-text"" style=color:orange;>9</div>","89,71","1000","test","Couleur","orange","9","color","switch","stay","4","true","89","",""
"","","call-function","105","162702","0.0-26.0","sub-09_ses-01_1","","","","set_stims","","","","","","","","","","","","","","","",""
"-1","-1","poldrack-single-stim","106","163642","0.0-27.0","sub-09_ses-01_1","","900","0","cue","","<div class = upperbox><div class = ""center-text"" >Couleur</div></div><div class = lowerbox><div class = fixation>+</div></div>","none","900","test","Couleur","orange","2","color","stay","stay","5","","","",""
"458","89","poldrack-single-stim","107","165801","0.0-28.0","sub-09_ses-01_1","","2136","0","stim","","<div class = upperbox><div class = ""center-text"" >Couleur</div></div><div class = lowerbox><div class = ""stim-text"" style=color:orange;>2</div>","89,71","1000","test","Couleur","orange","2","color","stay","stay","5","true","89","",""
"","","call-function","108","165803","0.0-29.0","sub-09_ses-01_1","","","","set_stims","","","","","","","","","","","","","","","",""
"-1","-1","poldrack-single-stim","109","166721","0.0-30.0","sub-09_ses-01_1","","900","0","cue","","<div class = upperbox><div class = ""center-text"" >Orange-Bleu</div></div><div class = lowerbox><div class = fixation>+</div></div>","none","900","test","Orange-Bleu","orange","9","color","stay","switch","6","","","",""
"444","89","poldrack-single-stim","110","168741","0.0-31.0","sub-09_ses-01_1","","2000","0","stim","","<div class = upperbox><div class = ""center-text"" >Orange-Bleu</div></div><div class = lowerbox><div class = ""stim-text"" style=color:orange;>9</div>","89,71","1000","test","Orange-Bleu","orange","9","color","stay","switch","6","true","89","",""
"","","call-function","111","168741","0.0-32.0","sub-09_ses-01_1","","","","set_stims","","","","","","","","","","","","","","","",""
"-1","-1","poldrack-single-stim","112","169661","0.0-33.0","sub-09_ses-01_1","","900","0","cue","","<div class = upperbox><div class = ""center-text"" >Couleur</div></div><div class = lowerbox><div class = fixation>+</div></div>","none","900","test","Couleur","orange","4","color","stay","switch","7","","","",""
"484","89","poldrack-single-stim","113","171680","0.0-34.0","sub-09_ses-01_1","","2000","0","stim","","<div class = upperbox><div class = ""center-text"" >Couleur</div></div><div class = lowerbox><div class = ""stim-text"" style=color:orange;>4</div>","89,71","1000","test","Couleur","orange","4","color","stay","switch","7","true","89","",""
"","","call-function","114","171681","0.0-35.0","sub-09_ses-01_1","","","","set_stims","","","","","","","","","","","","","","","",""
"-1","-1","poldrack-single-stim","115","171801","0.0-36.0","sub-09_ses-01_1","","100","0","cue","","<div class = upperbox><div class = ""center-text"" >Amplitude</div></div><div class = lowerbox><div class = fixation>+</div></div>","none","100","test","Amplitude","#1F45FC","2","magnitude","switch","switch","8","","","",""
"815","89","poldrack-single-stim","116","174081","0.0-37.0","sub-09_ses-01_1","","2272","0","stim","","<div class = upperbox><div class = ""center-text"" >Amplitude</div></div><div class = lowerbox><div class = ""stim-text"" style=color:#1F45FC;>2</div>","89,71","1000","test","Amplitude","#1F45FC","2","magnitude","switch","switch","8","true","89","",""
"","","call-function","117","174082","0.0-38.0","sub-09_ses-01_1","","","","set_stims","","","","","","","","","","","","","","","",""
"-1","-1","poldrack-single-stim","118","174202","0.0-39.0","sub-09_ses-01_1","","100","0","cue","","<div class = upperbox><div class = ""center-text"" >Couleur</div></div><div class = lowerbox><div class = fixation>+</div></div>","none","100","test","Couleur","orange","8","color","switch","stay","9","","","",""
"1072","89","poldrack-single-stim","119","176621","0.0-40.0","sub-09_ses-01_1","","2408","0","stim","","<div class = upperbox><div class = ""center-text"" >Couleur</div></div><div class = lowerbox><div class = ""stim-text"" style=color:orange;>8</div>","89,71","1000","test","Couleur","orange","8","color","switch","stay","9","true","89","",""
"","","call-function","120","176623","0.0-41.0","sub-09_ses-01_1","","","","set_stims","","","","","","","","","","","","","","","",""
"-1","-1","poldrack-single-stim","121","176741","0.0-42.0","sub-09_ses-01_1","","100","0","cue","","<div class = upperbox><div class = ""center-text"" >Haut-Bas</div></div><div class = lowerbox><div class = fixation>+</div></div>","none","100","test","Haut-Bas","orange","4","magnitude","switch","stay","10","","","",""
"766","89","poldrack-single-stim","122","178762","0.0-43.0","sub-09_ses-01_1","","2000","0","stim","","<div class = upperbox><div class = ""center-text"" >Haut-Bas</div></div><div class = lowerbox><div class = ""stim-text"" style=color:orange;>4</div>","89,71","1000","test","Haut-Bas","orange","4","magnitude","switch","stay","10","true","89","",""
"","","call-function","123","178763","0.0-44.0","sub-09_ses-01_1","","","","set_stims","","","","","","","","","","","","","","","",""
"-1","-1","poldrack-single-stim","124","178882","0.0-45.0","sub-09_ses-01_1","","100","0","cue","","<div class = upperbox><div class = ""center-text"" >Amplitude</div></div><div class = lowerbox><div class = fixation>+</div></div>","none","100","test","Amplitude","orange","2","magnitude","stay","switch","11","","","",""
"795","89","poldrack-single-stim","125","181031","0.0-46.0","sub-09_ses-01_1","","2136","0","stim","","<div class = upperbox><div class = ""center-text"" >Amplitude</div></div><div class = lowerbox><div class = ""stim-text"" style=color:orange;>2</div>","89,71","1000","test","Amplitude","orange","2","magnitude","stay","switch","11","true","89","",""
"","","call-function","126","181032","0.0-47.0","sub-09_ses-01_1","","","","set_stims","","","","","","","","","","","","","","","",""
"-1","-1","poldrack-single-stim","127","181949","0.0-48.0","sub-09_ses-01_1","","900","0","cue","","<div class = upperbox><div class = ""center-text"" >Orange-Bleu</div></div><div class = lowerbox><div class = fixation>+</div></div>","none","900","test","Orange-Bleu","#1F45FC","8","color","switch","stay","12","","","",""
"409","71","poldrack-single-stim","128","183971","0.0-49.0","sub-09_ses-01_1","","2000","0","stim","","<div class = upperbox><div class = ""center-text"" >Orange-Bleu</div></div><div class = lowerbox><div class = ""stim-text"" style=color:#1F45FC;>8</div>","89,71","1000","test","Orange-Bleu","#1F45FC","8","color","switch","stay","12","true","71","",""
"","","call-function","129","183972","0.0-50.0","sub-09_ses-01_1","","","","set_stims","","","","","","","","","","","","","","","",""
"-1","-1","poldrack-single-stim","130","184893","0.0-51.0","sub-09_ses-01_1","","900","0","cue","","<div class = upperbox><div class = ""center-text"" >Haut-Bas</div></div><div class = lowerbox><div class = fixation>+</div></div>","none","900","test","Haut-Bas","orange","6","magnitude","switch","stay","13","","","",""
"814","71","poldrack-single-stim","131","187322","0.0-52.0","sub-09_ses-01_1","","2408","0","stim","","<div class = upperbox><div class = ""center-text"" >Haut-Bas</div></div><div class = lowerbox><div class = ""stim-text"" style=color:orange;>6</div>","89,71","1000","test","Haut-Bas","orange","6","magnitude","switch","stay","13","true","71","",""
"","","call-function","132","187322","0.0-53.0","sub-09_ses-01_1","","","","set_stims","","","","","","","","","","","","","","","",""
"-1","-1","poldrack-single-stim","133","187441","0.0-54.0","sub-09_ses-01_1","","100","0","cue","","<div class = upperbox><div class = ""center-text"" >Amplitude</div></div><div class = lowerbox><div class = fixation>+</div></div>","none","100","test","Amplitude","orange","8","magnitude","stay","switch","14","","","",""
"665","71","poldrack-single-stim","134","189721","0.0-55.0","sub-09_ses-01_1","","2272","0","stim","","<div class = upperbox><div class = ""center-text"" >Amplitude</div></div><div class = lowerbox><div class = ""stim-text"" style=color:orange;>8</div>","89,71","1000","test","Amplitude","orange","8","magnitude","stay","switch","14","true","71","",""
"","","call-function","135","189722","0.0-56.0","sub-09_ses-01_1","","","","set_stims","","","","","","","","","","","","","","","",""
"-1","-1","poldrack-single-stim","136","189831","0.0-57.0","sub-09_ses-01_1","","100","0","cue","","<div class = upperbox><div class = ""center-text"" >Couleur</div></div><div class = lowerbox><div class = fixation>+</div></div>","none","100","test","Couleur","orange","1","color","switch","stay","15","","","",""
"822","89","poldrack-single-stim","137","191840","0.0-58.0","sub-09_ses-01_1","","2000","0","stim","","<div class = upperbox><div class = ""center-text"" >Couleur</div></div><div class = lowerbox><div class = ""stim-text"" style=color:orange;>1</div>","89,71","1000","test","Couleur","orange","1","color","switch","stay","15","true","89","",""
"","","call-function","138","191842","0.0-59.0","sub-09_ses-01_1","","","","set_stims","","","","","","","","","","","","","","","",""
"-1","-1","poldrack-single-stim","139","191960","0.0-60.0","sub-09_ses-01_1","","100","0","cue","","<div class = upperbox><div class = ""center-text"" >Orange-Bleu</div></div><div class = lowerbox><div class = fixation>+</div></div>","none","100","test","Orange-Bleu","orange","1","color","stay","switch","16","","","",""
"1082","89","poldrack-single-stim","140","194252","0.0-61.0","sub-09_ses-01_1","","2272","0","stim","","<div class = upperbox><div class = ""center-text"" >Orange-Bleu</div></div><div class = lowerbox><div class = ""stim-text"" style=color:orange;>1</div>","89,71","1000","test","Orange-Bleu","orange","1","color","stay","switch","16","true","89","",""
"","","call-function","141","194252","0.0-62.0","sub-09_ses-01_1","","","","set_stims","","","","","","","","","","","","","","","",""
"-1","-1","poldrack-single-stim","142","194371","0.0-63.0","sub-09_ses-01_1","","100","0","cue","","<div class = upperbox><div class = ""center-text"" >Haut-Bas</div></div><div class = lowerbox><div class = fixation>+</div></div>","none","100","test","Haut-Bas","orange","2","magnitude","switch","switch","17","","","",""
"932","89","poldrack-single-stim","143","196392","0.0-64.0","sub-09_ses-01_1","","2000","0","stim","","<div class = upperbox><div class = ""center-text"" >Haut-Bas</div></div><div class = lowerbox><div class = ""stim-text"" style=color:orange;>2</div>","89,71","1000","test","Haut-Bas","orange","2","magnitude","switch","switch","17","true","89","",""
"","","call-function","144","196393","0.0-65.0","sub-09_ses-01_1","","","","set_stims","","","","","","","","","","","","","","","",""
"-1","-1","poldrack-single-stim","145","197302","0.0-66.0","sub-09_ses-01_1","","900","0","cue","","<div class = upperbox><div class = ""center-text"" >Orange-Bleu</div></div><div class = lowerbox><div class = fixation>+</div></div>","none","900","test","Orange-Bleu","orange","7","color","switch","stay","18","","","",""
"474","89","poldrack-single-stim","146","199312","0.0-67.0","sub-09_ses-01_1","","2000","0","stim","","<div class = upperbox><div class = ""center-text"" >Orange-Bleu</div></div><div class = lowerbox><div class = ""stim-text"" style=color:orange;>7</div>","89,71","1000","test","Orange-Bleu","orange","7","color","switch","stay","18","true","89","",""
"","","call-function","147","199313","0.0-68.0","sub-09_ses-01_1","","","","set_stims","","","","","","","","","","","","","","","",""
"-1","-1","poldrack-single-stim","148","200232","0.0-69.0","sub-09_ses-01_1","","900","0","cue","","<div class = upperbox><div class = ""center-text"" >Orange-Bleu</div></div><div class = lowerbox><div class = fixation>+</div></div>","none","900","test","Orange-Bleu","#1F45FC","6","color","stay","stay","19","","","",""
"381","71","poldrack-single-stim","149","202512","0.0-70.0","sub-09_ses-01_1","","2272","0","stim","","<div class = upperbox><div class = ""center-text"" >Orange-Bleu</div></div><div class = lowerbox><div class = ""stim-text"" style=color:#1F45FC;>6</div>","89,71","1000","test","Orange-Bleu","#1F45FC","6","color","stay","stay","19","true","71","",""
"","","call-function","150","202512","0.0-71.0","sub-09_ses-01_1","","","","set_stims","","","","","","","","","","","","","","","",""
"-1","-1","poldrack-single-stim","151","202631","0.0-72.0","sub-09_ses-01_1","","100","0","cue","","<div class = upperbox><div class = ""center-text"" >Haut-Bas</div></div><div class = lowerbox><div class = fixation>+</div></div>","none","100","test","Haut-Bas","#1F45FC","3","magnitude","switch","stay","20","","","",""
"792","89","poldrack-single-stim","152","204771","0.0-73.0","sub-09_ses-01_1","","2136","0","stim","","<div class = upperbox><div class = ""center-text"" >Haut-Bas</div></div><div class = lowerbox><div class = ""stim-text"" style=color:#1F45FC;>3</div>","89,71","1000","test","Haut-Bas","#1F45FC","3","magnitude","switch","stay","20","true","89","",""
"","","call-function","153","204773","0.0-74.0","sub-09_ses-01_1","","","","set_stims","","","","","","","","","","","","","","","",""
"-1","-1","poldrack-single-stim","154","204892","0.0-75.0","sub-09_ses-01_1","","100","0","cue","","<div class = upperbox><div class = ""center-text"" >Orange-Bleu</div></div><div class = lowerbox><div class = fixation>+</div></div>","none","100","test","Orange-Bleu","#1F45FC","4","color","switch","switch","21","","","",""
"753","71","poldrack-single-stim","155","206911","0.0-76.0","sub-09_ses-01_1","","2000","0","stim","","<div class = upperbox><div class = ""center-text"" >Orange-Bleu</div></div><div class = lowerbox><div class = ""stim-text"" style=color:#1F45FC;>4</div>","89,71","1000","test","Orange-Bleu","#1F45FC","4","color","switch","switch","21","true","71","",""
"","","call-function","156","206913","0.0-77.0","sub-09_ses-01_1","","","","set_stims","","","","","","","","","","","","","","","",""
"-1","-1","poldrack-single-stim","157","207823","0.0-78.0","sub-09_ses-01_1","","900","0","cue","","<div class = upperbox><div class = ""center-text"" >Orange-Bleu</div></div><div class = lowerbox><div class = fixation>+</div></div>","none","900","test","Orange-Bleu","#1F45FC","8","color","stay","stay","22","","","",""
"753","71","poldrack-single-stim","158","209841","0.0-79.0","sub-09_ses-01_1","","2000","0","stim","","<div class = upperbox><div class = ""center-text"" >Orange-Bleu</div></div><div class = lowerbox><div class = ""stim-text"" style=color:#1F45FC;>8</div>","89,71","1000","test","Orange-Bleu","#1F45FC","8","color","stay","stay","22","true","71","",""
"","","call-function","159","209843","0.0-80.0","sub-09_ses-01_1","","","","set_stims","","","","","","","","","","","","","","","",""
"-1","-1","poldrack-single-stim","160","209959","0.0-81.0","sub-09_ses-01_1","","100","0","cue","","<div class = upperbox><div class = ""center-text"" >Amplitude</div></div><div class = lowerbox><div class = fixation>+</div></div>","none","100","test","Amplitude","orange","8","magnitude","switch","switch","23","","","",""
"871","71","poldrack-single-stim","161","211991","0.0-82.0","sub-09_ses-01_1","","2000","0","stim","","<div class = upperbox><div class = ""center-text"" >Amplitude</div></div><div class = lowerbox><div class = ""stim-text"" style=color:orange;>8</div>","89,71","1000","test","Amplitude","orange","8","magnitude","switch","switch","23","true","71","",""
"","","call-function","162","211992","0.0-83.0","sub-09_ses-01_1","","","","set_stims","","","","","","","","","","","","","","","",""
"-1","-1","poldrack-single-stim","163","212908","0.0-84.0","sub-09_ses-01_1","","900","0","cue","","<div class = upperbox><div class = ""center-text"" >Haut-Bas</div></div><div class = lowerbox><div class = fixation>+</div></div>","none","900","test","Haut-Bas","orange","9","magnitude","stay","switch","24","","","",""
"566","71","poldrack-single-stim","164","214921","0.0-85.0","sub-09_ses-01_1","","2000","0","stim","","<div class = upperbox><div class = ""center-text"" >Haut-Bas</div></div><div class = lowerbox><div class = ""stim-text"" style=color:orange;>9</div>","89,71","1000","test","Haut-Bas","orange","9","magnitude","stay","switch","24","true","71","",""
"","","call-function","165","214922","0.0-86.0","sub-09_ses-01_1","","","","set_stims","","","","","","","","","","","","","","","",""
"-1","-1","poldrack-single-stim","166","215842","0.0-87.0","sub-09_ses-01_1","","900","0","cue","","<div class = upperbox><div class = ""center-text"" >Haut-Bas</div></div><div class = lowerbox><div class = fixation>+</div></div>","none","900","test","Haut-Bas","#1F45FC","3","magnitude","stay","stay","25","","","",""
"501","89","poldrack-single-stim","167","217860","0.0-88.0","sub-09_ses-01_1","","2000","0","stim","","<div class = upperbox><div class = ""center-text"" >Haut-Bas</div></div><div class = lowerbox><div class = ""stim-text"" style=color:#1F45FC;>3</div>","89,71","1000","test","Haut-Bas","#1F45FC","3","magnitude","stay","stay","25","true","89","",""
"","","call-function","168","217861","0.0-89.0","sub-09_ses-01_1","","","","set_stims","","","","","","","","","","","","","","","",""
"-1","-1","poldrack-single-stim","169","218782","0.0-90.0","sub-09_ses-01_1","","900","0","cue","","<div class = upperbox><div class = ""center-text"" >Couleur</div></div><div class = lowerbox><div class = fixation>+</div></div>","none","900","test","Couleur","#1F45FC","8","color","switch","stay","26","","","",""
"483","71","poldrack-single-stim","170","220921","0.0-91.0","sub-09_ses-01_1","","2136","0","stim","","<div class = upperbox><div class = ""center-text"" >Couleur</div></div><div class = lowerbox><div class = ""stim-text"" style=color:#1F45FC;>8</div>","89,71","1000","test","Couleur","#1F45FC","8","color","switch","stay","26","true","71","",""
"","","call-function","171","220922","0.0-92.0","sub-09_ses-01_1","","","","set_stims","","","","","","","","","","","","","","","",""
"-1","-1","poldrack-single-stim","172","221832","0.0-93.0","sub-09_ses-01_1","","900","0","cue","","<div class = upperbox><div class = ""center-text"" >Couleur</div></div><div class = lowerbox><div class = fixation>+</div></div>","none","900","test","Couleur","orange","7","color","stay","stay","27","","","",""
"790","89","poldrack-single-stim","173","223850","0.0-94.0","sub-09_ses-01_1","","2000","0","stim","","<div class = upperbox><div class = ""center-text"" >Couleur</div></div><div class = lowerbox><div class = ""stim-text"" style=color:orange;>7</div>","89,71","1000","test","Couleur","orange","7","color","stay","stay","27","true","89","",""
"","","call-function","174","223851","0.0-95.0","sub-09_ses-01_1","","","","set_stims","","","","","","","","","","","","","","","",""
"-1","-1","poldrack-single-stim","175","223971","0.0-96.0","sub-09_ses-01_1","","100","0","cue","","<div class = upperbox><div class = ""center-text"" >Haut-Bas</div></div><div class = lowerbox><div class = fixation>+</div></div>","none","100","test","Haut-Bas","orange","9","magnitude","switch","stay","28","","","",""
"1187","71","poldrack-single-stim","176","225981","0.0-97.0","sub-09_ses-01_1","","2000","0","stim","","<div class = upperbox><div class = ""center-text"" >Haut-Bas</div></div><div class = lowerbox><div class = ""stim-text"" style=color:orange;>9</div>","89,71","1000","test","Haut-Bas","orange","9","magnitude","switch","stay","28","true","71","",""
"","","call-function","177","225982","0.0-98.0","sub-09_ses-01_1","","","","set_stims","","","","","","","","","","","","","","","",""
"-1","-1","poldrack-single-stim","178","226102","0.0-99.0","sub-09_ses-01_1","","100","0","cue","","<div class = upperbox><div class = ""center-text"" >Amplitude</div></div><div class = lowerbox><div class = fixation>+</div></div>","none","100","test","Amplitude","orange","4","magnitude","stay","switch","29","","","",""
"728","89","poldrack-single-stim","179","228260","0.0-100.0","sub-09_ses-01_1","","2136","0","stim","","<div class = upperbox><div class = ""center-text"" >Amplitude</div></div><div class = lowerbox><div class = ""stim-text"" style=color:orange;>4</div>","89,71","1000","test","Amplitude","orange","4","magnitude","stay","switch","29","true","89","",""
"","","call-function","180","228261","0.0-101.0","sub-09_ses-01_1","","","","set_stims","","","","","","","","","","","","","","","",""
"-1","-1","poldrack-single-stim","181","228381","0.0-102.0","sub-09_ses-01_1","","100","0","cue","","<div class = upperbox><div class = ""center-text"" >Haut-Bas</div></div><div class = lowerbox><div class = fixation>+</div></div>","none","100","test","Haut-Bas","#1F45FC","4","magnitude","stay","switch","30","","","",""
"919","89","poldrack-single-stim","182","230401","0.0-103.0","sub-09_ses-01_1","","2000","0","stim","","<div class = upperbox><div class = ""center-text"" >Haut-Bas</div></div><div class = lowerbox><div class = ""stim-text"" style=color:#1F45FC;>4</div>","89,71","1000","test","Haut-Bas","#1F45FC","4","magnitude","stay","switch","30","true","89","",""
"","","call-function","183","230403","0.0-104.0","sub-09_ses-01_1","","","","set_stims","","","","","","","","","","","","","","","",""
"-1","-1","poldrack-single-stim","184","230522","0.0-105.0","sub-09_ses-01_1","","100","0","cue","","<div class = upperbox><div class = ""center-text"" >Couleur</div></div><div class = lowerbox><div class = fixation>+</div></div>","none","100","test","Couleur","#1F45FC","1","color","switch","stay","31","","","",""
"710","71","poldrack-single-stim","185","232680","0.0-106.0","sub-09_ses-01_1","","2136","0","stim","","<div class = upperbox><div class = ""center-text"" >Couleur</div></div><div class = lowerbox><div class = ""stim-text"" style=color:#1F45FC;>1</div>","89,71","1000","test","Couleur","#1F45FC","1","color","switch","stay","31","true","71","",""
"","","call-function","186","232682","0.0-107.0","sub-09_ses-01_1","","","","set_stims","","","","","","","","","","","","","","","",""
"-1","-1","poldrack-single-stim","187","233591","0.0-108.0","sub-09_ses-01_1","","900","0","cue","","<div class = upperbox><div class = ""center-text"" >Haut-Bas</div></div><div class = lowerbox><div class = fixation>+</div></div>","none","900","test","Haut-Bas","#1F45FC","3","magnitude","switch","stay","32","","","",""
"682","89","poldrack-single-stim","188","236294","0.0-109.0","sub-09_ses-01_1","","2680","0","stim","","<div class = upperbox><div class = ""center-text"" >Haut-Bas</div></div><div class = lowerbox><div class = ""stim-text"" style=color:#1F45FC;>3</div>","89,71","1000","test","Haut-Bas","#1F45FC","3","magnitude","switch","stay","32","true","89","",""
"","","call-function","189","236296","0.0-110.0","sub-09_ses-01_1","","","","set_stims","","","","","","","","","","","","","","","",""
"-1","-1","poldrack-single-stim","190","237212","0.0-111.0","sub-09_ses-01_1","","900","0","cue","","<div class = upperbox><div class = ""center-text"" >Haut-Bas</div></div><div class = lowerbox><div class = fixation>+</div></div>","none","900","test","Haut-Bas","orange","8","magnitude","stay","stay","33","","","",""
"655","71","poldrack-single-stim","191","239501","0.0-112.0","sub-09_ses-01_1","","2272","0","stim","","<div class = upperbox><div class = ""center-text"" >Haut-Bas</div></div><div class = lowerbox><div class = ""stim-text"" style=color:orange;>8</div>","89,71","1000","test","Haut-Bas","orange","8","magnitude","stay","stay","33","true","71","",""
"","","call-function","192","239502","0.0-113.0","sub-09_ses-01_1","","","","set_stims","","","","","","","","","","","","","","","",""
"-1","-1","poldrack-single-stim","193","239621","0.0-114.0","sub-09_ses-01_1","","100","0","cue","","<div class = upperbox><div class = ""center-text"" >Haut-Bas</div></div><div class = lowerbox><div class = fixation>+</div></div>","none","100","test","Haut-Bas","#1F45FC","9","magnitude","stay","stay","34","","","",""
"723","71","poldrack-single-stim","194","241761","0.0-115.0","sub-09_ses-01_1","","2136","0","stim","","<div class = upperbox><div class = ""center-text"" >Haut-Bas</div></div><div class = lowerbox><div class = ""stim-text"" style=color:#1F45FC;>9</div>","89,71","1000","test","Haut-Bas","#1F45FC","9","magnitude","stay","stay","34","true","71","",""
"","","call-function","195","241762","0.0-116.0","sub-09_ses-01_1","","","","set_stims","","","","","","","","","","","","","","","",""
"-1","-1","poldrack-single-stim","196","241881","0.0-117.0","sub-09_ses-01_1","","100","0","cue","","<div class = upperbox><div class = ""center-text"" >Couleur</div></div><div class = lowerbox><div class = fixation>+</div></div>","none","100","test","Couleur","orange","1","color","switch","switch","35","","","",""
"581","89","poldrack-single-stim","197","243900","0.0-118.0","sub-09_ses-01_1","","2000","0","stim","","<div class = upperbox><div class = ""center-text"" >Couleur</div></div><div class = lowerbox><div class = ""stim-text"" style=color:orange;>1</div>","89,71","1000","test","Couleur","orange","1","color","switch","switch","35","true","89","",""
"","","call-function","198","243900","0.0-119.0","sub-09_ses-01_1","","","","set_stims","","","","","","","","","","","","","","","",""
"-1","-1","poldrack-single-stim","199","244020","0.0-120.0","sub-09_ses-01_1","","100","0","cue","","<div class = upperbox><div class = ""center-text"" >Amplitude</div></div><div class = lowerbox><div class = fixation>+</div></div>","none","100","test","Amplitude","#1F45FC","3","magnitude","switch","switch","36","","","",""
"931","71","poldrack-single-stim","200","246161","0.0-121.0","sub-09_ses-01_1","","2136","0","stim","","<div class = upperbox><div class = ""center-text"" >Amplitude</div></div><div class = lowerbox><div class = ""stim-text"" style=color:#1F45FC;>3</div>","89,71","1000","test","Amplitude","#1F45FC","3","magnitude","switch","switch","36","false","89","",""
"","","call-function","201","246162","0.0-122.0","sub-09_ses-01_1","","","","set_stims","","","","","","","","","","","","","","","",""
"-1","-1","poldrack-single-stim","202","246281","0.0-123.0","sub-09_ses-01_1","","100","0","cue","","<div class = upperbox><div class = ""center-text"" >Couleur</div></div><div class = lowerbox><div class = fixation>+</div></div>","none","100","test","Couleur","#1F45FC","3","color","switch","switch","37","","","",""
"743","71","poldrack-single-stim","203","248981","0.0-124.0","sub-09_ses-01_1","","2680","0","stim","","<div class = upperbox><div class = ""center-text"" >Couleur</div></div><div class = lowerbox><div class = ""stim-text"" style=color:#1F45FC;>3</div>","89,71","1000","test","Couleur","#1F45FC","3","color","switch","switch","37","true","71","",""
"","","call-function","204","248982","0.0-125.0","sub-09_ses-01_1","","","","set_stims","","","","","","","","","","","","","","","",""
"-1","-1","poldrack-single-stim","205","249102","0.0-126.0","sub-09_ses-01_1","","100","0","cue","","<div class = upperbox><div class = ""center-text"" >Amplitude</div></div><div class = lowerbox><div class = fixation>+</div></div>","none","100","test","Amplitude","#1F45FC","3","magnitude","switch","stay","38","","","",""
"705","89","poldrack-single-stim","206","251391","0.0-127.0","sub-09_ses-01_1","","2272","0","stim","","<div class = upperbox><div class = ""center-text"" >Amplitude</div></div><div class = lowerbox><div class = ""stim-text"" style=color:#1F45FC;>3</div>","89,71","1000","test","Amplitude","#1F45FC","3","magnitude","switch","stay","38","true","89","",""
"","","call-function","207","251392","0.0-128.0","sub-09_ses-01_1","","","","set_stims","","","","","","","","","","","","","","","",""
"-1","-1","poldrack-single-stim","208","252312","0.0-129.0","sub-09_ses-01_1","","900","0","cue","","<div class = upperbox><div class = ""center-text"" >Haut-Bas</div></div><div class = lowerbox><div class = fixation>+</div></div>","none","900","test","Haut-Bas","orange","7","magnitude","stay","switch","39","","","",""
"605","71","poldrack-single-stim","209","254321","0.0-130.0","sub-09_ses-01_1","","2000","0","stim","","<div class = upperbox><div class = ""center-text"" >Haut-Bas</div></div><div class = lowerbox><div class = ""stim-text"" style=color:orange;>7</div>","89,71","1000","test","Haut-Bas","orange","7","magnitude","stay","switch","39","true","71","",""
"","","call-function","210","254322","0.0-131.0","sub-09_ses-01_1","","","","set_stims","","","","","","","","","","","","","","","",""
"-1","-1","poldrack-single-stim","211","254441","0.0-132.0","sub-09_ses-01_1","","100","0","cue","","<div class = upperbox><div class = ""center-text"" >Couleur</div></div><div class = lowerbox><div class = fixation>+</div></div>","none","100","test","Couleur","#1F45FC","3","color","switch","stay","40","","","",""
"754","71","poldrack-single-stim","212","256451","0.0-133.0","sub-09_ses-01_1","","2000","0","stim","","<div class = upperbox><div class = ""center-text"" >Couleur</div></div><div class = lowerbox><div class = ""stim-text"" style=color:#1F45FC;>3</div>","89,71","1000","test","Couleur","#1F45FC","3","color","switch","stay","40","true","71","",""
"","","call-function","213","256453","0.0-134.0","sub-09_ses-01_1","","","","set_stims","","","","","","","","","","","","","","","",""
"-1","-1","poldrack-single-stim","214","257371","0.0-135.0","sub-09_ses-01_1","","900","0","cue","","<div class = upperbox><div class = ""center-text"" >Couleur</div></div><div class = lowerbox><div class = fixation>+</div></div>","none","900","test","Couleur","orange","8","color","stay","stay","41","","","",""
"400","89","poldrack-single-stim","215","259521","0.0-136.0","sub-09_ses-01_1","","2136","0","stim","","<div class = upperbox><div class = ""center-text"" >Couleur</div></div><div class = lowerbox><div class = ""stim-text"" style=color:orange;>8</div>","89,71","1000","test","Couleur","orange","8","color","stay","stay","41","true","89","",""
"","","call-function","216","259521","0.0-137.0","sub-09_ses-01_1","","","","set_stims","","","","","","","","","","","","","","","",""
"-1","-1","poldrack-single-stim","217","259642","0.0-138.0","sub-09_ses-01_1","","100","0","cue","","<div class = upperbox><div class = ""center-text"" >Couleur</div></div><div class = lowerbox><div class = fixation>+</div></div>","none","100","test","Couleur","#1F45FC","1","color","stay","stay","42","","","",""
"667","71","poldrack-single-stim","218","261660","0.0-139.0","sub-09_ses-01_1","","2000","0","stim","","<div class = upperbox><div class = ""center-text"" >Couleur</div></div><div class = lowerbox><div class = ""stim-text"" style=color:#1F45FC;>1</div>","89,71","1000","test","Couleur","#1F45FC","1","color","stay","stay","42","true","71","",""
"","","call-function","219","261660","0.0-140.0","sub-09_ses-01_1","","","","set_stims","","","","","","","","","","","","","","","",""
"-1","-1","poldrack-single-stim","220","261781","0.0-141.0","sub-09_ses-01_1","","100","0","cue","","<div class = upperbox><div class = ""center-text"" >Couleur</div></div><div class = lowerbox><div class = fixation>+</div></div>","none","100","test","Couleur","#1F45FC","7","color","stay","stay","43","","","",""
"639","71","poldrack-single-stim","221","263800","0.0-142.0","sub-09_ses-01_1","","2000","0","stim","","<div class = upperbox><div class = ""center-text"" >Couleur</div></div><div class = lowerbox><div class = ""stim-text"" style=color:#1F45FC;>7</div>","89,71","1000","test","Couleur","#1F45FC","7","color","stay","stay","43","true","71","",""
"","","call-function","222","263802","0.0-143.0","sub-09_ses-01_1","","","","set_stims","","","","","","","","","","","","","","","",""
"-1","-1","poldrack-single-stim","223","264720","0.0-144.0","sub-09_ses-01_1","","900","0","cue","","<div class = upperbox><div class = ""center-text"" >Orange-Bleu</div></div><div class = lowerbox><div class = fixation>+</div></div>","none","900","test","Orange-Bleu","#1F45FC","4","color","stay","switch","44","","","",""
"627","71","poldrack-single-stim","224","266741","0.0-145.0","sub-09_ses-01_1","","2000","0","stim","","<div class = upperbox><div class = ""center-text"" >Orange-Bleu</div></div><div class = lowerbox><div class = ""stim-text"" style=color:#1F45FC;>4</div>","89,71","1000","test","Orange-Bleu","#1F45FC","4","color","stay","switch","44","true","71","",""
"","","call-function","225","266742","0.0-146.0","sub-09_ses-01_1","","","","set_stims","","","","","","","","","","","","","","","",""
"-1","-1","poldrack-single-stim","226","266862","0.0-147.0","sub-09_ses-01_1","","100","0","cue","","<div class = upperbox><div class = ""center-text"" >Amplitude</div></div><div class = lowerbox><div class = fixation>+</div></div>","none","100","test","Amplitude","orange","7","magnitude","switch","switch","45","","","",""
"956","71","poldrack-single-stim","227","269157","0.0-148.0","sub-09_ses-01_1","","2272","0","stim","","<div class = upperbox><div class = ""center-text"" >Amplitude</div></div><div class = lowerbox><div class = ""stim-text"" style=color:orange;>7</div>","89,71","1000","test","Amplitude","orange","7","magnitude","switch","switch","45","true","71","",""
"","","call-function","228","269158","0.0-149.0","sub-09_ses-01_1","","","","set_stims","","","","","","","","","","","","","","","",""
"-1","-1","poldrack-single-stim","229","269274","0.0-150.0","sub-09_ses-01_1","","100","0","cue","","<div class = upperbox><div class = ""center-text"" >Couleur</div></div><div class = lowerbox><div class = fixation>+</div></div>","none","100","test","Couleur","orange","6","color","switch","switch","46","","","",""
"791","89","poldrack-single-stim","230","271691","0.0-151.0","sub-09_ses-01_1","","2408","0","stim","","<div class = upperbox><div class = ""center-text"" >Couleur</div></div><div class = lowerbox><div class = ""stim-text"" style=color:orange;>6</div>","89,71","1000","test","Couleur","orange","6","color","switch","switch","46","true","89","",""
"","","call-function","231","271692","0.0-152.0","sub-09_ses-01_1","","","","set_stims","","","","","","","","","","","","","","","",""
"-1","-1","poldrack-single-stim","232","272611","0.0-153.0","sub-09_ses-01_1","","900","0","cue","","<div class = upperbox><div class = ""center-text"" >Couleur</div></div><div class = lowerbox><div class = fixation>+</div></div>","none","900","test","Couleur","#1F45FC","4","color","stay","stay","47","","","",""
"474","71","poldrack-single-stim","233","274631","0.0-154.0","sub-09_ses-01_1","","2000","0","stim","","<div class = upperbox><div class = ""center-text"" >Couleur</div></div><div class = lowerbox><div class = ""stim-text"" style=color:#1F45FC;>4</div>","89,71","1000","test","Couleur","#1F45FC","4","color","stay","stay","47","true","71","",""
"","","call-function","234","274631","0.0-155.0","sub-09_ses-01_1","","","","set_stims","","","","","","","","","","","","","","","",""
"-1","-1","poldrack-single-stim","235","274751","0.0-156.0","sub-09_ses-01_1","","100","0","cue","","<div class = upperbox><div class = ""center-text"" >Couleur</div></div><div class = lowerbox><div class = fixation>+</div></div>","none","100","test","Couleur","#1F45FC","7","color","stay","stay","48","","","",""
"735","71","poldrack-single-stim","236","276761","0.0-157.0","sub-09_ses-01_1","","2000","0","stim","","<div class = upperbox><div class = ""center-text"" >Couleur</div></div><div class = lowerbox><div class = ""stim-text"" style=color:#1F45FC;>7</div>","89,71","1000","test","Couleur","#1F45FC","7","color","stay","stay","48","true","71","",""
"","","call-function","237","276762","0.0-158.0","sub-09_ses-01_1","","","","set_stims","","","","","","","","","","","","","","","",""
"-1","-1","poldrack-single-stim","238","277681","0.0-159.0","sub-09_ses-01_1","","900","0","cue","","<div class = upperbox><div class = ""center-text"" >Amplitude</div></div><div class = lowerbox><div class = fixation>+</div></div>","none","900","test","Amplitude","#1F45FC","6","magnitude","switch","stay","49","","","",""
"668","71","poldrack-single-stim","239","279701","0.0-160.0","sub-09_ses-01_1","","2000","0","stim","","<div class = upperbox><div class = ""center-text"" >Amplitude</div></div><div class = lowerbox><div class = ""stim-text"" style=color:#1F45FC;>6</div>","89,71","1000","test","Amplitude","#1F45FC","6","magnitude","switch","stay","49","true","71","",""
"","","call-function","240","279702","0.0-161.0","sub-09_ses-01_1","","","","set_stims","","","","","","","","","","","","","","","",""
"-1","-1","poldrack-single-stim","241","280622","0.0-162.0","sub-09_ses-01_1","","900","0","cue","","<div class = upperbox><div class = ""center-text"" >Orange-Bleu</div></div><div class = lowerbox><div class = fixation>+</div></div>","none","900","test","Orange-Bleu","#1F45FC","1","color","switch","stay","50","","","",""
"527","71","poldrack-single-stim","242","282900","0.0-163.0","sub-09_ses-01_1","","2272","0","stim","","<div class = upperbox><div class = ""center-text"" >Orange-Bleu</div></div><div class = lowerbox><div class = ""stim-text"" style=color:#1F45FC;>1</div>","89,71","1000","test","Orange-Bleu","#1F45FC","1","color","switch","stay","50","true","71","",""
"","","call-function","243","282901","0.0-164.0","sub-09_ses-01_1","","","","set_stims","","","","","","","","","","","","","","","",""
"-1","-1","poldrack-single-stim","244","283021","0.0-165.0","sub-09_ses-01_1","","100","0","cue","","<div class = upperbox><div class = ""center-text"" >Orange-Bleu</div></div><div class = lowerbox><div class = fixation>+</div></div>","none","100","test","Orange-Bleu","orange","6","color","stay","stay","51","","","",""
"622","89","poldrack-single-stim","245","285171","0.0-166.0","sub-09_ses-01_1","","2136","0","stim","","<div class = upperbox><div class = ""center-text"" >Orange-Bleu</div></div><div class = lowerbox><div class = ""stim-text"" style=color:orange;>6</div>","89,71","1000","test","Orange-Bleu","orange","6","color","stay","stay","51","true","89","",""
"","","call-function","246","285172","0.0-167.0","sub-09_ses-01_1","","","","set_stims","","","","","","","","","","","","","","","",""
"-1","-1","poldrack-single-stim","247","285291","0.0-168.0","sub-09_ses-01_1","","100","0","cue","","<div class = upperbox><div class = ""center-text"" >Amplitude</div></div><div class = lowerbox><div class = fixation>+</div></div>","none","100","test","Amplitude","orange","9","magnitude","switch","switch","52","","","",""
"662","71","poldrack-single-stim","248","287310","0.0-169.0","sub-09_ses-01_1","","2000","0","stim","","<div class = upperbox><div class = ""center-text"" >Amplitude</div></div><div class = lowerbox><div class = ""stim-text"" style=color:orange;>9</div>","89,71","1000","test","Amplitude","orange","9","magnitude","switch","switch","52","true","71","",""
"","","call-function","249","287311","0.0-170.0","sub-09_ses-01_1","","","","set_stims","","","","","","","","","","","","","","","",""
"-1","-1","poldrack-single-stim","250","288231","0.0-171.0","sub-09_ses-01_1","","900","0","cue","","<div class = upperbox><div class = ""center-text"" >Haut-Bas</div></div><div class = lowerbox><div class = fixation>+</div></div>","none","900","test","Haut-Bas","#1F45FC","8","magnitude","stay","switch","53","","","",""
"623","71","poldrack-single-stim","251","290791","0.0-172.0","sub-09_ses-01_1","","2544","0","stim","","<div class = upperbox><div class = ""center-text"" >Haut-Bas</div></div><div class = lowerbox><div class = ""stim-text"" style=color:#1F45FC;>8</div>","89,71","1000","test","Haut-Bas","#1F45FC","8","magnitude","stay","switch","53","true","71","",""
"","","call-function","252","290792","0.0-173.0","sub-09_ses-01_1","","","","set_stims","","","","","","","","","","","","","","","",""
"-1","-1","poldrack-single-stim","253","291710","0.0-174.0","sub-09_ses-01_1","","900","0","cue","","<div class = upperbox><div class = ""center-text"" >Orange-Bleu</div></div><div class = lowerbox><div class = fixation>+</div></div>","none","900","test","Orange-Bleu","#1F45FC","9","color","switch","stay","54","","","",""
"729","71","poldrack-single-stim","254","293990","0.0-175.0","sub-09_ses-01_1","","2272","0","stim","","<div class = upperbox><div class = ""center-text"" >Orange-Bleu</div></div><div class = lowerbox><div class = ""stim-text"" style=color:#1F45FC;>9</div>","89,71","1000","test","Orange-Bleu","#1F45FC","9","color","switch","stay","54","true","71","",""
"","","call-function","255","293991","0.0-176.0","sub-09_ses-01_1","","","","set_stims","","","","","","","","","","","","","","","",""
"-1","-1","poldrack-single-stim","256","294111","0.0-177.0","sub-09_ses-01_1","","100","0","cue","","<div class = upperbox><div class = ""center-text"" >Orange-Bleu</div></div><div class = lowerbox><div class = fixation>+</div></div>","none","100","test","Orange-Bleu","orange","4","color","stay","stay","55","","","",""
"685","89","poldrack-single-stim","257","296391","0.0-178.0","sub-09_ses-01_1","","2272","0","stim","","<div class = upperbox><div class = ""center-text"" >Orange-Bleu</div></div><div class = lowerbox><div class = ""stim-text"" style=color:orange;>4</div>","89,71","1000","test","Orange-Bleu","orange","4","color","stay","stay","55","true","89","",""
"","","call-function","258","296392","0.0-179.0","sub-09_ses-01_1","","","","set_stims","","","","","","","","","","","","","","","",""
"-1","-1","poldrack-single-stim","259","297301","0.0-180.0","sub-09_ses-01_1","","900","0","cue","","<div class = upperbox><div class = ""center-text"" >Couleur</div></div><div class = lowerbox><div class = fixation>+</div></div>","none","900","test","Couleur","orange","2","color","stay","switch","56","","","",""
"580","89","poldrack-single-stim","260","299321","0.0-181.0","sub-09_ses-01_1","","2000","0","stim","","<div class = upperbox><div class = ""center-text"" >Couleur</div></div><div class = lowerbox><div class = ""stim-text"" style=color:orange;>2</div>","89,71","1000","test","Couleur","orange","2","color","stay","switch","56","true","89","",""
"","","call-function","261","299322","0.0-182.0","sub-09_ses-01_1","","","","set_stims","","","","","","","","","","","","","","","",""
"-1","-1","poldrack-single-stim","262","299441","0.0-183.0","sub-09_ses-01_1","","100","0","cue","","<div class = upperbox><div class = ""center-text"" >Couleur</div></div><div class = lowerbox><div class = fixation>+</div></div>","none","100","test","Couleur","orange","4","color","stay","stay","57","","","",""
"883","89","poldrack-single-stim","263","301461","0.0-184.0","sub-09_ses-01_1","","2000","0","stim","","<div class = upperbox><div class = ""center-text"" >Couleur</div></div><div class = lowerbox><div class = ""stim-text"" style=color:orange;>4</div>","89,71","1000","test","Couleur","orange","4","color","stay","stay","57","true","89","",""
"","","call-function","264","301462","0.0-185.0","sub-09_ses-01_1","","","","set_stims","","","","","","","","","","","","","","","",""
"-1","-1","poldrack-single-stim","265","302381","0.0-186.0","sub-09_ses-01_1","","900","0","cue","","<div class = upperbox><div class = ""center-text"" >Amplitude</div></div><div class = lowerbox><div class = fixation>+</div></div>","none","900","test","Amplitude","#1F45FC","7","magnitude","switch","switch","58","","","",""
"566","71","poldrack-single-stim","266","304521","0.0-187.0","sub-09_ses-01_1","","2136","0","stim","","<div class = upperbox><div class = ""center-text"" >Amplitude</div></div><div class = lowerbox><div class = ""stim-text"" style=color:#1F45FC;>7</div>","89,71","1000","test","Amplitude","#1F45FC","7","magnitude","switch","switch","58","true","71","",""
"","","call-function","267","304523","0.0-188.0","sub-09_ses-01_1","","","","set_stims","","","","","","","","","","","","","","","",""
"-1","-1","poldrack-single-stim","268","304642","0.0-189.0","sub-09_ses-01_1","","100","0","cue","","<div class = upperbox><div class = ""center-text"" >Orange-Bleu</div></div><div class = lowerbox><div class = fixation>+</div></div>","none","100","test","Orange-Bleu","orange","4","color","switch","switch","59","","","",""
"763","89","poldrack-single-stim","269","306661","0.0-190.0","sub-09_ses-01_1","","2000","0","stim","","<div class = upperbox><div class = ""center-text"" >Orange-Bleu</div></div><div class = lowerbox><div class = ""stim-text"" style=color:orange;>4</div>","89,71","1000","test","Orange-Bleu","orange","4","color","switch","switch","59","true","89","",""
"","","call-function","270","306662","0.0-191.0","sub-09_ses-01_1","","","","set_stims","","","","","","","","","","","","","","","",""
"-1","-1","poldrack-single-stim","271","306781","0.0-192.0","sub-09_ses-01_1","","100","0","cue","","<div class = upperbox><div class = ""center-text"" >Couleur</div></div><div class = lowerbox><div class = fixation>+</div></div>","none","100","test","Couleur","orange","8","color","stay","switch","60","","","",""
"1232","89","poldrack-single-stim","272","308922","0.0-193.0","sub-09_ses-01_1","","2136","0","stim","","<div class = upperbox><div class = ""center-text"" >Couleur</div></div><div class = lowerbox><div class = ""stim-text"" style=color:orange;>8</div>","89,71","1000","test","Couleur","orange","8","color","stay","switch","60","true","89","",""
"","","call-function","273","308922","0.0-194.0","sub-09_ses-01_1","","","","set_stims","","","","","","","","","","","","","","","",""
"-1","-1","poldrack-single-stim","274","309842","0.0-195.0","sub-09_ses-01_1","","900","0","cue","","<div class = upperbox><div class = ""center-text"" >Amplitude</div></div><div class = lowerbox><div class = fixation>+</div></div>","none","900","test","Amplitude","#1F45FC","1","magnitude","switch","stay","61","","","",""
"608","89","poldrack-single-stim","275","312131","0.0-196.0","sub-09_ses-01_1","","2272","0","stim","","<div class = upperbox><div class = ""center-text"" >Amplitude</div></div><div class = lowerbox><div class = ""stim-text"" style=color:#1F45FC;>1</div>","89,71","1000","test","Amplitude","#1F45FC","1","magnitude","switch","stay","61","true","89","",""
"","","call-function","276","312132","0.0-197.0","sub-09_ses-01_1","","","","set_stims","","","","","","","","","","","","","","","",""
"-1","-1","poldrack-single-stim","277","313062","0.0-198.0","sub-09_ses-01_1","","900","0","cue","","<div class = upperbox><div class = ""center-text"" >Couleur</div></div><div class = lowerbox><div class = fixation>+</div></div>","none","900","test","Couleur","#1F45FC","3","color","switch","switch","62","","","",""
"447","71","poldrack-single-stim","278","315211","0.0-199.0","sub-09_ses-01_1","","2136","0","stim","","<div class = upperbox><div class = ""center-text"" >Couleur</div></div><div class = lowerbox><div class = ""stim-text"" style=color:#1F45FC;>3</div>","89,71","1000","test","Couleur","#1F45FC","3","color","switch","switch","62","true","71","",""
"","","call-function","279","315212","0.0-200.0","sub-09_ses-01_1","","","","set_stims","","","","","","","","","","","","","","","",""
"-1","-1","poldrack-single-stim","280","315332","0.0-201.0","sub-09_ses-01_1","","100","0","cue","","<div class = upperbox><div class = ""center-text"" >Couleur</div></div><div class = lowerbox><div class = fixation>+</div></div>","none","100","test","Couleur","#1F45FC","8","color","stay","stay","63","","","",""
"786","71","poldrack-single-stim","281","317612","0.0-202.0","sub-09_ses-01_1","","2272","0","stim","","<div class = upperbox><div class = ""center-text"" >Couleur</div></div><div class = lowerbox><div class = ""stim-text"" style=color:#1F45FC;>8</div>","89,71","1000","test","Couleur","#1F45FC","8","color","stay","stay","63","true","71","",""
"","","call-function","282","317612","0.0-203.0","sub-09_ses-01_1","","","","set_stims","","","","","","","","","","","","","","","",""
"-1","-1","poldrack-single-stim","283","318532","0.0-204.0","sub-09_ses-01_1","","900","0","cue","","<div class = upperbox><div class = ""center-text"" >Haut-Bas</div></div><div class = lowerbox><div class = fixation>+</div></div>","none","900","test","Haut-Bas","orange","6","magnitude","switch","switch","64","","","",""
"704","71","poldrack-single-stim","284","320539","0.0-205.0","sub-09_ses-01_1","","2000","0","stim","","<div class = upperbox><div class = ""center-text"" >Haut-Bas</div></div><div class = lowerbox><div class = ""stim-text"" style=color:orange;>6</div>","89,71","1000","test","Haut-Bas","orange","6","magnitude","switch","switch","64","true","71","",""
"","","call-function","285","320540","0.0-206.0","sub-09_ses-01_1","","","","set_stims","","","","","","","","","","","","","","","",""
"-1","-1","poldrack-single-stim","286","321462","0.0-207.0","sub-09_ses-01_1","","900","0","cue","","<div class = upperbox><div class = ""center-text"" >Haut-Bas</div></div><div class = lowerbox><div class = fixation>+</div></div>","none","900","test","Haut-Bas","#1F45FC","7","magnitude","stay","stay","65","","","",""
"699","71","poldrack-single-stim","287","324280","0.0-208.0","sub-09_ses-01_1","","2816","0","stim","","<div class = upperbox><div class = ""center-text"" >Haut-Bas</div></div><div class = lowerbox><div class = ""stim-text"" style=color:#1F45FC;>7</div>","89,71","1000","test","Haut-Bas","#1F45FC","7","magnitude","stay","stay","65","true","71","",""
"","","call-function","288","324282","0.0-209.0","sub-09_ses-01_1","","","","set_stims","","","","","","","","","","","","","","","",""
"-1","-1","poldrack-single-stim","289","325203","0.0-210.0","sub-09_ses-01_1","","900","0","cue","","<div class = upperbox><div class = ""center-text"" >Amplitude</div></div><div class = lowerbox><div class = fixation>+</div></div>","none","900","test","Amplitude","orange","2","magnitude","stay","switch","66","","","",""
"557","89","poldrack-single-stim","290","327620","0.0-211.0","sub-09_ses-01_1","","2408","0","stim","","<div class = upperbox><div class = ""center-text"" >Amplitude</div></div><div class = lowerbox><div class = ""stim-text"" style=color:orange;>2</div>","89,71","1000","test","Amplitude","orange","2","magnitude","stay","switch","66","true","89","",""
"","","call-function","291","327620","0.0-212.0","sub-09_ses-01_1","","","","set_stims","","","","","","","","","","","","","","","",""
"-1","-1","poldrack-single-stim","292","328540","0.0-213.0","sub-09_ses-01_1","","900","0","cue","","<div class = upperbox><div class = ""center-text"" >Amplitude</div></div><div class = lowerbox><div class = fixation>+</div></div>","none","900","test","Amplitude","orange","6","magnitude","stay","stay","67","","","",""
"551","71","poldrack-single-stim","293","330551","0.0-214.0","sub-09_ses-01_1","","2000","0","stim","","<div class = upperbox><div class = ""center-text"" >Amplitude</div></div><div class = lowerbox><div class = ""stim-text"" style=color:orange;>6</div>","89,71","1000","test","Amplitude","orange","6","magnitude","stay","stay","67","true","71","",""
"","","call-function","294","330552","0.0-215.0","sub-09_ses-01_1","","","","set_stims","","","","","","","","","","","","","","","",""
"-1","-1","poldrack-single-stim","295","330671","0.0-216.0","sub-09_ses-01_1","","100","0","cue","","<div class = upperbox><div class = ""center-text"" >Amplitude</div></div><div class = lowerbox><div class = fixation>+</div></div>","none","100","test","Amplitude","orange","4","magnitude","stay","stay","68","","","",""
"721","89","poldrack-single-stim","296","333231","0.0-217.0","sub-09_ses-01_1","","2544","0","stim","","<div class = upperbox><div class = ""center-text"" >Amplitude</div></div><div class = lowerbox><div class = ""stim-text"" style=color:orange;>4</div>","89,71","1000","test","Amplitude","orange","4","magnitude","stay","stay","68","true","89","",""
"","","call-function","297","333232","0.0-218.0","sub-09_ses-01_1","","","","set_stims","","","","","","","","","","","","","","","",""
"-1","-1","poldrack-single-stim","298","334152","0.0-219.0","sub-09_ses-01_1","","900","0","cue","","<div class = upperbox><div class = ""center-text"" >Couleur</div></div><div class = lowerbox><div class = fixation>+</div></div>","none","900","test","Couleur","#1F45FC","3","color","switch","switch","69","","","",""
"506","71","poldrack-single-stim","299","336290","0.0-220.0","sub-09_ses-01_1","","2136","0","stim","","<div class = upperbox><div class = ""center-text"" >Couleur</div></div><div class = lowerbox><div class = ""stim-text"" style=color:#1F45FC;>3</div>","89,71","1000","test","Couleur","#1F45FC","3","color","switch","switch","69","true","71","",""
"","","call-function","300","336291","0.0-221.0","sub-09_ses-01_1","","","","set_stims","","","","","","","","","","","","","","","",""
"-1","-1","poldrack-single-stim","301","337212","0.0-222.0","sub-09_ses-01_1","","900","0","cue","","<div class = upperbox><div class = ""center-text"" >Amplitude</div></div><div class = lowerbox><div class = fixation>+</div></div>","none","900","test","Amplitude","orange","3","magnitude","switch","stay","70","","","",""
"713","89","poldrack-single-stim","302","339231","0.0-223.0","sub-09_ses-01_1","","2000","0","stim","","<div class = upperbox><div class = ""center-text"" >Amplitude</div></div><div class = lowerbox><div class = ""stim-text"" style=color:orange;>3</div>","89,71","1000","test","Amplitude","orange","3","magnitude","switch","stay","70","true","89","",""
"","","call-function","303","339232","0.0-224.0","sub-09_ses-01_1","","","","set_stims","","","","","","","","","","","","","","","",""
"-1","-1","poldrack-single-stim","304","340151","0.0-225.0","sub-09_ses-01_1","","900","0","cue","","<div class = upperbox><div class = ""center-text"" >Amplitude</div></div><div class = lowerbox><div class = fixation>+</div></div>","none","900","test","Amplitude","orange","1","magnitude","stay","stay","71","","","",""
"555","89","poldrack-single-stim","305","342171","0.0-226.0","sub-09_ses-01_1","","2000","0","stim","","<div class = upperbox><div class = ""center-text"" >Amplitude</div></div><div class = lowerbox><div class = ""stim-text"" style=color:orange;>1</div>","89,71","1000","test","Amplitude","orange","1","magnitude","stay","stay","71","true","89","",""
"","","call-function","306","342173","0.0-227.0","sub-09_ses-01_1","","","","set_stims","","","","","","","","","","","","","","","",""
"-1","-1","poldrack-single-stim","307","343081","0.0-228.0","sub-09_ses-01_1","","900","0","cue","","<div class = upperbox><div class = ""center-text"" >Haut-Bas</div></div><div class = lowerbox><div class = fixation>+</div></div>","none","900","test","Haut-Bas","orange","3","magnitude","stay","switch","72","","","",""
"641","89","poldrack-single-stim","308","345222","0.0-229.0","sub-09_ses-01_1","","2136","0","stim","","<div class = upperbox><div class = ""center-text"" >Haut-Bas</div></div><div class = lowerbox><div class = ""stim-text"" style=color:orange;>3</div>","89,71","1000","test","Haut-Bas","orange","3","magnitude","stay","switch","72","true","89","",""
"","","call-function","309","345223","0.0-230.0","sub-09_ses-01_1","","","","set_stims","","","","","","","","","","","","","","","",""
"-1","-1","poldrack-single-stim","310","345330","0.0-231.0","sub-09_ses-01_1","","100","0","cue","","<div class = upperbox><div class = ""center-text"" >Haut-Bas</div></div><div class = lowerbox><div class = fixation>+</div></div>","none","100","test","Haut-Bas","orange","6","magnitude","stay","stay","73","","","",""
"712","71","poldrack-single-stim","311","347470","0.0-232.0","sub-09_ses-01_1","","2136","0","stim","","<div class = upperbox><div class = ""center-text"" >Haut-Bas</div></div><div class = lowerbox><div class = ""stim-text"" style=color:orange;>6</div>","89,71","1000","test","Haut-Bas","orange","6","magnitude","stay","stay","73","true","71","",""
"","","call-function","312","347470","0.0-233.0","sub-09_ses-01_1","","","","set_stims","","","","","","","","","","","","","","","",""
"-1","-1","poldrack-single-stim","313","347591","0.0-234.0","sub-09_ses-01_1","","100","0","cue","","<div class = upperbox><div class = ""center-text"" >Couleur</div></div><div class = lowerbox><div class = fixation>+</div></div>","none","100","test","Couleur","#1F45FC","7","color","switch","switch","74","","","",""
"599","71","poldrack-single-stim","314","349871","0.0-235.0","sub-09_ses-01_1","","2272","0","stim","","<div class = upperbox><div class = ""center-text"" >Couleur</div></div><div class = lowerbox><div class = ""stim-text"" style=color:#1F45FC;>7</div>","89,71","1000","test","Couleur","#1F45FC","7","color","switch","switch","74","true","71","",""
"","","call-function","315","349872","0.0-236.0","sub-09_ses-01_1","","","","set_stims","","","","","","","","","","","","","","","",""
"-1","-1","poldrack-single-stim","316","349991","0.0-237.0","sub-09_ses-01_1","","100","0","cue","","<div class = upperbox><div class = ""center-text"" >Orange-Bleu</div></div><div class = lowerbox><div class = fixation>+</div></div>","none","100","test","Orange-Bleu","#1F45FC","6","color","stay","switch","75","","","",""
"788","71","poldrack-single-stim","317","353222","0.0-238.0","sub-09_ses-01_1","","3224","0","stim","","<div class = upperbox><div class = ""center-text"" >Orange-Bleu</div></div><div class = lowerbox><div class = ""stim-text"" style=color:#1F45FC;>6</div>","89,71","1000","test","Orange-Bleu","#1F45FC","6","color","stay","switch","75","true","71","",""
"","","call-function","318","353223","0.0-239.0","sub-09_ses-01_1","","","","set_stims","","","","","","","","","","","","","","","",""
"-1","-1","poldrack-single-stim","319","354142","0.0-240.0","sub-09_ses-01_1","","900","0","cue","","<div class = upperbox><div class = ""center-text"" >Couleur</div></div><div class = lowerbox><div class = fixation>+</div></div>","none","900","test","Couleur","#1F45FC","9","color","stay","switch","76","","","",""
"474","71","poldrack-single-stim","320","356161","0.0-241.0","sub-09_ses-01_1","","2000","0","stim","","<div class = upperbox><div class = ""center-text"" >Couleur</div></div><div class = lowerbox><div class = ""stim-text"" style=color:#1F45FC;>9</div>","89,71","1000","test","Couleur","#1F45FC","9","color","stay","switch","76","true","71","",""
"","","call-function","321","356162","0.0-242.0","sub-09_ses-01_1","","","","set_stims","","","","","","","","","","","","","","","",""
"-1","-1","poldrack-single-stim","322","356282","0.0-243.0","sub-09_ses-01_1","","100","0","cue","","<div class = upperbox><div class = ""center-text"" >Haut-Bas</div></div><div class = lowerbox><div class = fixation>+</div></div>","none","100","test","Haut-Bas","#1F45FC","1","magnitude","switch","stay","77","","","",""
"743","89","poldrack-single-stim","323","358299","0.0-244.0","sub-09_ses-01_1","","2000","0","stim","","<div class = upperbox><div class = ""center-text"" >Haut-Bas</div></div><div class = lowerbox><div class = ""stim-text"" style=color:#1F45FC;>1</div>","89,71","1000","test","Haut-Bas","#1F45FC","1","magnitude","switch","stay","77","true","89","",""
"","","call-function","324","358301","0.0-245.0","sub-09_ses-01_1","","","","set_stims","","","","","","","","","","","","","","","",""
"-1","-1","poldrack-single-stim","325","359221","0.0-246.0","sub-09_ses-01_1","","900","0","cue","","<div class = upperbox><div class = ""center-text"" >Couleur</div></div><div class = lowerbox><div class = fixation>+</div></div>","none","900","test","Couleur","#1F45FC","8","color","switch","switch","78","","","",""
"458","71","poldrack-single-stim","326","361501","0.0-247.0","sub-09_ses-01_1","","2272","0","stim","","<div class = upperbox><div class = ""center-text"" >Couleur</div></div><div class = lowerbox><div class = ""stim-text"" style=color:#1F45FC;>8</div>","89,71","1000","test","Couleur","#1F45FC","8","color","switch","switch","78","true","71","",""
"","","call-function","327","361502","0.0-248.0","sub-09_ses-01_1","","","","set_stims","","","","","","","","","","","","","","","",""
"-1","-1","poldrack-single-stim","328","361622","0.0-249.0","sub-09_ses-01_1","","100","0","cue","","<div class = upperbox><div class = ""center-text"" >Haut-Bas</div></div><div class = lowerbox><div class = fixation>+</div></div>","none","100","test","Haut-Bas","#1F45FC","1","magnitude","switch","stay","79","","","",""
"688","89","poldrack-single-stim","329","363771","0.0-250.0","sub-09_ses-01_1","","2136","0","stim","","<div class = upperbox><div class = ""center-text"" >Haut-Bas</div></div><div class = lowerbox><div class = ""stim-text"" style=color:#1F45FC;>1</div>","89,71","1000","test","Haut-Bas","#1F45FC","1","magnitude","switch","stay","79","true","89","",""
"-1","-1","poldrack-single-stim","330","373786","0.0-251.0","sub-09_ses-01_1","","10000","1000","rest_block","","<div class = centerbox><div class = center-text>+</div></div>","none","10000","","","","","","","","","","","",""
"-1","-1","poldrack-single-stim","331","376311","0.0-252.0","sub-09_ses-01_1","","1500","500","test_start_block","","<div class = centerbox><div class = center-text>Preparez-vous!</p></div>","none","1500","","","","","","","","","","","",""
"-1","-1","poldrack-single-stim","332","377340","0.0-253.0","sub-09_ses-01_1","","500","0","fixation","","<div class = upperbox><div class = fixation>+</div></div><div class = lowerbox><div class = fixation>+</div></div>","none","500","test","","","","","","","","","","",""
"","","call-function","333","377341","0.0-254.0","sub-09_ses-01_1","","","","set_stims","","","","","","","","","","","","","","","",""
"-1","-1","poldrack-single-stim","334","377463","0.0-255.0","sub-09_ses-01_1","","100","0","cue","","<div class = upperbox><div class = ""center-text"" >Haut-Bas</div></div><div class = lowerbox><div class = fixation>+</div></div>","none","100","test","Haut-Bas","#1F45FC","1","magnitude","stay","stay","0","","","",""
"716","89","poldrack-single-stim","335","379481","0.0-256.0","sub-09_ses-01_1","","2000","0","stim","","<div class = upperbox><div class = ""center-text"" >Haut-Bas</div></div><div class = lowerbox><div class = ""stim-text"" style=color:#1F45FC;>1</div>","89,71","1000","test","Haut-Bas","#1F45FC","1","magnitude","stay","stay","0","true","89","",""
"","","call-function","336","379483","0.0-257.0","sub-09_ses-01_1","","","","set_stims","","","","","","","","","","","","","","","",""
"-1","-1","poldrack-single-stim","337","379600","0.0-258.0","sub-09_ses-01_1","","100","0","cue","","<div class = upperbox><div class = ""center-text"" >Couleur</div></div><div class = lowerbox><div class = fixation>+</div></div>","none","100","test","Couleur","orange","6","color","switch","switch","1","","","",""
"691","89","poldrack-single-stim","338","381621","0.0-259.0","sub-09_ses-01_1","","2000","0","stim","","<div class = upperbox><div class = ""center-text"" >Couleur</div></div><div class = lowerbox><div class = ""stim-text"" style=color:orange;>6</div>","89,71","1000","test","Couleur","orange","6","color","switch","switch","1","true","89","",""
"","","call-function","339","381622","0.0-260.0","sub-09_ses-01_1","","","","set_stims","","","","","","","","","","","","","","","",""
"-1","-1","poldrack-single-stim","340","382531","0.0-261.0","sub-09_ses-01_1","","900","0","cue","","<div class = upperbox><div class = ""center-text"" >Haut-Bas</div></div><div class = lowerbox><div class = fixation>+</div></div>","none","900","test","Haut-Bas","#1F45FC","3","magnitude","switch","switch","2","","","",""
"563","89","poldrack-single-stim","341","384551","0.0-262.0","sub-09_ses-01_1","","2000","0","stim","","<div class = upperbox><div class = ""center-text"" >Haut-Bas</div></div><div class = lowerbox><div class = ""stim-text"" style=color:#1F45FC;>3</div>","89,71","1000","test","Haut-Bas","#1F45FC","3","magnitude","switch","switch","2","true","89","",""
"","","call-function","342","384552","0.0-263.0","sub-09_ses-01_1","","","","set_stims","","","","","","","","","","","","","","","",""
"-1","-1","poldrack-single-stim","343","385471","0.0-264.0","sub-09_ses-01_1","","900","0","cue","","<div class = upperbox><div class = ""center-text"" >Orange-Bleu</div></div><div class = lowerbox><div class = fixation>+</div></div>","none","900","test","Orange-Bleu","orange","4","color","switch","stay","3","","","",""
"746","89","poldrack-single-stim","344","388171","0.0-265.0","sub-09_ses-01_1","","2680","0","stim","","<div class = upperbox><div class = ""center-text"" >Orange-Bleu</div></div><div class = lowerbox><div class = ""stim-text"" style=color:orange;>4</div>","89,71","1000","test","Orange-Bleu","orange","4","color","switch","stay","3","true","89","",""
"","","call-function","345","388173","0.0-266.0","sub-09_ses-01_1","","","","set_stims","","","","","","","","","","","","","","","",""
"-1","-1","poldrack-single-stim","346","389092","0.0-267.0","sub-09_ses-01_1","","900","0","cue","","<div class = upperbox><div class = ""center-text"" >Amplitude</div></div><div class = lowerbox><div class = fixation>+</div></div>","none","900","test","Amplitude","orange","9","magnitude","switch","stay","4","","","",""
"456","71","poldrack-single-stim","347","391101","0.0-268.0","sub-09_ses-01_1","","2000","0","stim","","<div class = upperbox><div class = ""center-text"" >Amplitude</div></div><div class = lowerbox><div class = ""stim-text"" style=color:orange;>9</div>","89,71","1000","test","Amplitude","orange","9","magnitude","switch","stay","4","true","71","",""
"","","call-function","348","391102","0.0-269.0","sub-09_ses-01_1","","","","set_stims","","","","","","","","","","","","","","","",""
"-1","-1","poldrack-single-stim","349","392021","0.0-270.0","sub-09_ses-01_1","","900","0","cue","","<div class = upperbox><div class = ""center-text"" >Amplitude</div></div><div class = lowerbox><div class = fixation>+</div></div>","none","900","test","Amplitude","orange","2","magnitude","stay","stay","5","","","",""
"524","89","poldrack-single-stim","350","394301","0.0-271.0","sub-09_ses-01_1","","2272","0","stim","","<div class = upperbox><div class = ""center-text"" >Amplitude</div></div><div class = lowerbox><div class = ""stim-text"" style=color:orange;>2</div>","89,71","1000","test","Amplitude","orange","2","magnitude","stay","stay","5","true","89","",""
"","","call-function","351","394303","0.0-272.0","sub-09_ses-01_1","","","","set_stims","","","","","","","","","","","","","","","",""
"-1","-1","poldrack-single-stim","352","395211","0.0-273.0","sub-09_ses-01_1","","900","0","cue","","<div class = upperbox><div class = ""center-text"" >Haut-Bas</div></div><div class = lowerbox><div class = fixation>+</div></div>","none","900","test","Haut-Bas","orange","9","magnitude","stay","switch","6","","","",""
"667","71","poldrack-single-stim","353","397230","0.0-274.0","sub-09_ses-01_1","","2000","0","stim","","<div class = upperbox><div class = ""center-text"" >Haut-Bas</div></div><div class = lowerbox><div class = ""stim-text"" style=color:orange;>9</div>","89,71","1000","test","Haut-Bas","orange","9","magnitude","stay","switch","6","true","71","",""
"","","call-function","354","397230","0.0-275.0","sub-09_ses-01_1","","","","set_stims","","","","","","","","","","","","","","","",""
"-1","-1","poldrack-single-stim","355","398151","0.0-276.0","sub-09_ses-01_1","","900","0","cue","","<div class = upperbox><div class = ""center-text"" >Amplitude</div></div><div class = lowerbox><div class = fixation>+</div></div>","none","900","test","Amplitude","orange","4","magnitude","stay","switch","7","","","",""
"589","89","poldrack-single-stim","356","400431","0.0-277.0","sub-09_ses-01_1","","2272","0","stim","","<div class = upperbox><div class = ""center-text"" >Amplitude</div></div><div class = lowerbox><div class = ""stim-text"" style=color:orange;>4</div>","89,71","1000","test","Amplitude","orange","4","magnitude","stay","switch","7","true","89","",""
"","","call-function","357","400432","0.0-278.0","sub-09_ses-01_1","","","","set_stims","","","","","","","","","","","","","","","",""
"-1","-1","poldrack-single-stim","358","400550","0.0-279.0","sub-09_ses-01_1","","100","0","cue","","<div class = upperbox><div class = ""center-text"" >Couleur</div></div><div class = lowerbox><div class = fixation>+</div></div>","none","100","test","Couleur","#1F45FC","2","color","switch","switch","8","","","",""
"1067","71","poldrack-single-stim","359","403521","0.0-280.0","sub-09_ses-01_1","","2952","0","stim","","<div class = upperbox><div class = ""center-text"" >Couleur</div></div><div class = lowerbox><div class = ""stim-text"" style=color:#1F45FC;>2</div>","89,71","1000","test","Couleur","#1F45FC","2","color","switch","switch","8","true","71","",""
"","","call-function","360","403522","0.0-281.0","sub-09_ses-01_1","","","","set_stims","","","","","","","","","","","","","","","",""
"-1","-1","poldrack-single-stim","361","403642","0.0-282.0","sub-09_ses-01_1","","100","0","cue","","<div class = upperbox><div class = ""center-text"" >Haut-Bas</div></div><div class = lowerbox><div class = fixation>+</div></div>","none","100","test","Haut-Bas","orange","8","magnitude","switch","stay","9","","","",""
"835","71","poldrack-single-stim","362","405651","0.0-283.0","sub-09_ses-01_1","","2000","0","stim","","<div class = upperbox><div class = ""center-text"" >Haut-Bas</div></div><div class = lowerbox><div class = ""stim-text"" style=color:orange;>8</div>","89,71","1000","test","Haut-Bas","orange","8","magnitude","switch","stay","9","true","71","",""
"","","call-function","363","405652","0.0-284.0","sub-09_ses-01_1","","","","set_stims","","","","","","","","","","","","","","","",""
"-1","-1","poldrack-single-stim","364","405772","0.0-285.0","sub-09_ses-01_1","","100","0","cue","","<div class = upperbox><div class = ""center-text"" >Couleur</div></div><div class = lowerbox><div class = fixation>+</div></div>","none","100","test","Couleur","orange","4","color","switch","stay","10","","","",""
"690","89","poldrack-single-stim","365","407790","0.0-286.0","sub-09_ses-01_1","","2000","0","stim","","<div class = upperbox><div class = ""center-text"" >Couleur</div></div><div class = lowerbox><div class = ""stim-text"" style=color:orange;>4</div>","89,71","1000","test","Couleur","orange","4","color","switch","stay","10","true","89","",""
"","","call-function","366","407791","0.0-287.0","sub-09_ses-01_1","","","","set_stims","","","","","","","","","","","","","","","",""
"-1","-1","poldrack-single-stim","367","407912","0.0-288.0","sub-09_ses-01_1","","100","0","cue","","<div class = upperbox><div class = ""center-text"" >Orange-Bleu</div></div><div class = lowerbox><div class = fixation>+</div></div>","none","100","test","Orange-Bleu","orange","2","color","stay","switch","11","","","",""
"904","89","poldrack-single-stim","368","409921","0.0-289.0","sub-09_ses-01_1","","2000","0","stim","","<div class = upperbox><div class = ""center-text"" >Orange-Bleu</div></div><div class = lowerbox><div class = ""stim-text"" style=color:orange;>2</div>","89,71","1000","test","Orange-Bleu","orange","2","color","stay","switch","11","true","89","",""
"","","call-function","369","409922","0.0-290.0","sub-09_ses-01_1","","","","set_stims","","","","","","","","","","","","","","","",""
"-1","-1","poldrack-single-stim","370","410842","0.0-291.0","sub-09_ses-01_1","","900","0","cue","","<div class = upperbox><div class = ""center-text"" >Haut-Bas</div></div><div class = lowerbox><div class = fixation>+</div></div>","none","900","test","Haut-Bas","#1F45FC","8","magnitude","switch","stay","12","","","",""
"673","71","poldrack-single-stim","371","412850","0.0-292.0","sub-09_ses-01_1","","2000","0","stim","","<div class = upperbox><div class = ""center-text"" >Haut-Bas</div></div><div class = lowerbox><div class = ""stim-text"" style=color:#1F45FC;>8</div>","89,71","1000","test","Haut-Bas","#1F45FC","8","magnitude","switch","stay","12","true","71","",""
"","","call-function","372","412850","0.0-293.0","sub-09_ses-01_1","","","","set_stims","","","","","","","","","","","","","","","",""
"-1","-1","poldrack-single-stim","373","413761","0.0-294.0","sub-09_ses-01_1","","900","0","cue","","<div class = upperbox><div class = ""center-text"" >Couleur</div></div><div class = lowerbox><div class = fixation>+</div></div>","none","900","test","Couleur","orange","6","color","switch","stay","13","","","",""
"903","89","poldrack-single-stim","374","415901","0.0-295.0","sub-09_ses-01_1","","2136","0","stim","","<div class = upperbox><div class = ""center-text"" >Couleur</div></div><div class = lowerbox><div class = ""stim-text"" style=color:orange;>6</div>","89,71","1000","test","Couleur","orange","6","color","switch","stay","13","true","89","",""
"","","call-function","375","415902","0.0-296.0","sub-09_ses-01_1","","","","set_stims","","","","","","","","","","","","","","","",""
"-1","-1","poldrack-single-stim","376","416022","0.0-297.0","sub-09_ses-01_1","","100","0","cue","","<div class = upperbox><div class = ""center-text"" >Orange-Bleu</div></div><div class = lowerbox><div class = fixation>+</div></div>","none","100","test","Orange-Bleu","orange","8","color","stay","switch","14","","","",""
