"rt","key_press","trial_type","trial_index","time_elapsed","internal_node_id","subject","text","block_duration","timing_post_trial","trial_id","responses","stimulus","possible_responses","stim_duration","condition","exp_stage","trial_num","correct_response","correct","exp_id"
"1824","13","text","0","1826","0.0-0.0","sub-11_ses-03_2","","","","","","","","","","","","","",""
"5626","89","poldrack-text","1","8459","0.0-1.0","sub-11_ses-03_2","<div class = centerbox><div style = 'font-size: 50px' class = center-text>Veuillez appuyer avec votre index</p></div>","5626","500","fmri_response_test","","","","","","","","","",""
"395","71","poldrack-text","2","9373","0.0-2.0","sub-11_ses-03_2","<div class = centerbox><div style = 'font-size: 50px' class = center-text>Veuillez appuyer avec votre majeur</p></div>","395","500","fmri_response_test","","","","","","","","","",""
"5831","","survey-text","3","15745","0.0-3.0","sub-11_ses-03_2","","","","task_setup","{""Q0"":""4"",""Q1"":""6""}","","","","","","","","",""
"2891","32","poldrack-single-stim","4","19649","0.0-4.0","sub-11_ses-03_2","","2891","500","instructions","","<div class = centerbox><p style = ""font-size:40px"" class = center-block-text>Paire cible (appuyez sur l'index):</p><p class = center-block-text><img src = ""/static/experiments/dot_pattern_expectancy/images/cue4.png"" ></img>&nbsp&nbsp&nbsp...suivi par...&nbsp&nbsp&nbsp<img src = ""/static/experiments/dot_pattern_expectancy/images/probe6.png"" ></img><br></br></p><p style = ""font-size:40px"" class = center-block-text>Sinon appuyez sur le majeur</div>","32","2891","","","","","",""
"-1","-1","poldrack-single-stim","5","20673","0.0-5.0-0.0","sub-11_ses-03_2","","500","0","cue","","<div class = centerbox><div class = img-container><img src = ""/static/experiments/dot_pattern_expectancy/images/cue4.png""</img></div></div>","none","500","AY","practice","0","","",""
"-1","-1","poldrack-single-stim","6","22694","0.0-5.0-1.0","sub-11_ses-03_2","","2000","0","fixation","","<div class = centerbox><div class = fixation>+</div></div>","none","2000","","practice","","","",""
"853","71","poldrack-single-stim","7","24213","0.0-5.0-2.0","sub-11_ses-03_2","","1500","0","probe","","<div class = centerbox><div class = img-container><img src = ""/static/experiments/dot_pattern_expectancy/images/probe2.png""</img></div></div>","89,71","500","AY","practice","0","71","true",""
"-1","-1","poldrack-single-stim","8","24723","0.0-5.0-3.0","sub-11_ses-03_2","","500","0","feedback","","<div class = centerbox><div style=""color:#4FE829""; class = center-text>Correct!</div></div>","none","500","","practice","1","","",""
"-1","-1","poldrack-single-stim","9","25243","0.0-5.0-4.0","sub-11_ses-03_2","","500","0","cue","","<div class = centerbox><div class = img-container><img src = ""/static/experiments/dot_pattern_expectancy/images/cue4.png""</img></div></div>","none","500","AX","practice","1","","",""
"-1","-1","poldrack-single-stim","10","27262","0.0-5.0-5.0","sub-11_ses-03_2","","2000","0","fixation","","<div class = centerbox><div class = fixation>+</div></div>","none","2000","","practice","","","",""
"705","89","poldrack-single-stim","11","28972","0.0-5.0-6.0","sub-11_ses-03_2","","1700","0","probe","","<div class = centerbox><div class = img-container><img src = ""/static/experiments/dot_pattern_expectancy/images/probe6.png""</img></div></div>","89,71","500","AX","practice","1","89","true",""
"-1","-1","poldrack-single-stim","12","29493","0.0-5.0-7.0","sub-11_ses-03_2","","500","0","feedback","","<div class = centerbox><div style=""color:#4FE829""; class = center-text>Correct!</div></div>","none","500","","practice","2","","",""
"-1","-1","poldrack-single-stim","13","30013","0.0-5.0-8.0","sub-11_ses-03_2","","500","0","cue","","<div class = centerbox><div class = img-container><img src = ""/static/experiments/dot_pattern_expectancy/images/cue4.png""</img></div></div>","none","500","AX","practice","2","","",""
"-1","-1","poldrack-single-stim","14","32033","0.0-5.0-9.0","sub-11_ses-03_2","","2000","0","fixation","","<div class = centerbox><div class = fixation>+</div></div>","none","2000","","practice","","","",""
"851","89","poldrack-single-stim","15","33552","0.0-5.0-10.0","sub-11_ses-03_2","","1500","0","probe","","<div class = centerbox><div class = img-container><img src = ""/static/experiments/dot_pattern_expectancy/images/probe6.png""</img></div></div>","89,71","500","AX","practice","2","89","true",""
"-1","-1","poldrack-single-stim","16","34073","0.0-5.0-11.0","sub-11_ses-03_2","","500","0","feedback","","<div class = centerbox><div style=""color:#4FE829""; class = center-text>Correct!</div></div>","none","500","","practice","3","","",""
"-1","-1","poldrack-single-stim","17","34593","0.0-5.0-12.0","sub-11_ses-03_2","","500","0","cue","","<div class = centerbox><div class = img-container><img src = ""/static/experiments/dot_pattern_expectancy/images/cue2.png""</img></div></div>","none","500","BY","practice","3","","",""
"-1","-1","poldrack-single-stim","18","36603","0.0-5.0-13.0","sub-11_ses-03_2","","2000","0","fixation","","<div class = centerbox><div class = fixation>+</div></div>","none","2000","","practice","","","",""
"485","71","poldrack-single-stim","19","38122","0.0-5.0-14.0","sub-11_ses-03_2","","1500","0","probe","","<div class = centerbox><div class = img-container><img src = ""/static/experiments/dot_pattern_expectancy/images/probe5.png""</img></div></div>","89,71","500","BY","practice","3","71","true",""
"-1","-1","poldrack-single-stim","20","38643","0.0-5.0-15.0","sub-11_ses-03_2","","500","0","feedback","","<div class = centerbox><div style=""color:#4FE829""; class = center-text>Correct!</div></div>","none","500","","practice","4","","",""
"-1","-1","poldrack-single-stim","21","39163","0.0-5.0-16.0","sub-11_ses-03_2","","500","0","cue","","<div class = centerbox><div class = img-container><img src = ""/static/experiments/dot_pattern_expectancy/images/cue3.png""</img></div></div>","none","500","BX","practice","4","","",""
"-1","-1","poldrack-single-stim","22","41183","0.0-5.0-17.0","sub-11_ses-03_2","","2000","0","fixation","","<div class = centerbox><div class = fixation>+</div></div>","none","2000","","practice","","","",""
"1007","71","poldrack-single-stim","23","43502","0.0-5.0-18.0","sub-11_ses-03_2","","2300","0","probe","","<div class = centerbox><div class = img-container><img src = ""/static/experiments/dot_pattern_expectancy/images/probe6.png""</img></div></div>","89,71","500","BX","practice","4","71","true",""
"-1","-1","poldrack-single-stim","24","44023","0.0-5.0-19.0","sub-11_ses-03_2","","500","0","feedback","","<div class = centerbox><div style=""color:#4FE829""; class = center-text>Correct!</div></div>","none","500","","practice","5","","",""
"-1","-1","poldrack-single-stim","25","44543","0.0-5.0-20.0","sub-11_ses-03_2","","500","0","cue","","<div class = centerbox><div class = img-container><img src = ""/static/experiments/dot_pattern_expectancy/images/cue1.png""</img></div></div>","none","500","BX","practice","5","","",""
"-1","-1","poldrack-single-stim","26","46562","0.0-5.0-21.0","sub-11_ses-03_2","","2000","0","fixation","","<div class = centerbox><div class = fixation>+</div></div>","none","2000","","practice","","","",""
"1134","71","poldrack-single-stim","27","48672","0.0-5.0-22.0","sub-11_ses-03_2","","2100","0","probe","","<div class = centerbox><div class = img-container><img src = ""/static/experiments/dot_pattern_expectancy/images/probe6.png""</img></div></div>","89,71","500","BX","practice","5","71","true",""
"-1","-1","poldrack-single-stim","28","49192","0.0-5.0-23.0","sub-11_ses-03_2","","500","0","feedback","","<div class = centerbox><div style=""color:#4FE829""; class = center-text>Correct!</div></div>","none","500","","practice","6","","",""
"-1","-1","poldrack-single-stim","29","49703","0.0-5.0-24.0","sub-11_ses-03_2","","500","0","cue","","<div class = centerbox><div class = img-container><img src = ""/static/experiments/dot_pattern_expectancy/images/cue4.png""</img></div></div>","none","500","AX","practice","6","","",""
"-1","-1","poldrack-single-stim","30","51712","0.0-5.0-25.0","sub-11_ses-03_2","","2000","0","fixation","","<div class = centerbox><div class = fixation>+</div></div>","none","2000","","practice","","","",""
"711","89","poldrack-single-stim","31","53633","0.0-5.0-26.0","sub-11_ses-03_2","","1900","0","probe","","<div class = centerbox><div class = img-container><img src = ""/static/experiments/dot_pattern_expectancy/images/probe6.png""</img></div></div>","89,71","500","AX","practice","6","89","true",""
"-1","-1","poldrack-single-stim","32","54153","0.0-5.0-27.0","sub-11_ses-03_2","","500","0","feedback","","<div class = centerbox><div style=""color:#4FE829""; class = center-text>Correct!</div></div>","none","500","","practice","7","","",""
"-1","-1","poldrack-single-stim","33","54673","0.0-5.0-28.0","sub-11_ses-03_2","","500","0","cue","","<div class = centerbox><div class = img-container><img src = ""/static/experiments/dot_pattern_expectancy/images/cue5.png""</img></div></div>","none","500","BY","practice","7","","",""
"-1","-1","poldrack-single-stim","34","56694","0.0-5.0-29.0","sub-11_ses-03_2","","2000","0","fixation","","<div class = centerbox><div class = fixation>+</div></div>","none","2000","","practice","","","",""
"577","71","poldrack-single-stim","35","58212","0.0-5.0-30.0","sub-11_ses-03_2","","1500","0","probe","","<div class = centerbox><div class = img-container><img src = ""/static/experiments/dot_pattern_expectancy/images/probe3.png""</img></div></div>","89,71","500","BY","practice","7","71","true",""
"-1","-1","poldrack-single-stim","36","58733","0.0-5.0-31.0","sub-11_ses-03_2","","500","0","feedback","","<div class = centerbox><div style=""color:#4FE829""; class = center-text>Correct!</div></div>","none","500","","practice","8","","",""
"-1","-1","poldrack-single-stim","37","59253","0.0-5.0-32.0","sub-11_ses-03_2","","500","0","cue","","<div class = centerbox><div class = img-container><img src = ""/static/experiments/dot_pattern_expectancy/images/cue4.png""</img></div></div>","none","500","AX","practice","8","","",""
"-1","-1","poldrack-single-stim","38","61274","0.0-5.0-33.0","sub-11_ses-03_2","","2000","0","fixation","","<div class = centerbox><div class = fixation>+</div></div>","none","2000","","practice","","","",""
"767","89","poldrack-single-stim","39","63792","0.0-5.0-34.0","sub-11_ses-03_2","","2500","0","probe","","<div class = centerbox><div class = img-container><img src = ""/static/experiments/dot_pattern_expectancy/images/probe6.png""</img></div></div>","89,71","500","AX","practice","8","89","true",""
"-1","-1","poldrack-single-stim","40","64313","0.0-5.0-35.0","sub-11_ses-03_2","","500","0","feedback","","<div class = centerbox><div style=""color:#4FE829""; class = center-text>Correct!</div></div>","none","500","","practice","9","","",""
"-1","-1","poldrack-single-stim","41","64823","0.0-5.0-36.0","sub-11_ses-03_2","","500","0","cue","","<div class = centerbox><div class = img-container><img src = ""/static/experiments/dot_pattern_expectancy/images/cue4.png""</img></div></div>","none","500","AY","practice","9","","",""
"-1","-1","poldrack-single-stim","42","66842","0.0-5.0-37.0","sub-11_ses-03_2","","2000","0","fixation","","<div class = centerbox><div class = fixation>+</div></div>","none","2000","","practice","","","",""
"944","71","poldrack-single-stim","43","68364","0.0-5.0-38.0","sub-11_ses-03_2","","1500","0","probe","","<div class = centerbox><div class = img-container><img src = ""/static/experiments/dot_pattern_expectancy/images/probe1.png""</img></div></div>","89,71","500","AY","practice","9","71","true",""
"-1","-1","poldrack-single-stim","44","68885","0.0-5.0-39.0","sub-11_ses-03_2","","500","0","feedback","","<div class = centerbox><div style=""color:#4FE829""; class = center-text>Correct!</div></div>","none","500","","practice","10","","",""
"37301","32","poldrack-text","45","106199","0.0-6.0","sub-11_ses-03_2","<div class = centerbox><div  class = center-text>Scanner Setup</div></div>","37301","0","fmri_scanner_wait","","","","","","","","","",""
"53842","84","poldrack-text","46","160046","0.0-7.0","sub-11_ses-03_2","<div class = centerbox><div style='color:red'; class = center-text>+</div></div>","53842","0","fmri_trigger_wait","","","","","","","","","",""
"-1","-1","poldrack-single-stim","47","161064","0.0-8.0","sub-11_ses-03_2","","1000","0","fmri_buffer","","","none","1000","","","","","",""
"-1","-1","poldrack-single-stim","48","162584","0.0-9.0","sub-11_ses-03_2","","1500","500","test_start_block","","<div class = centerbox><div class = center-text>Preparez-vous!</p></div>","none","1500","","","","","",""
"-1","-1","poldrack-single-stim","49","163624","0.0-10.0","sub-11_ses-03_2","","500","0","cue","","<div class = centerbox><div class = img-container><img src = ""/static/experiments/dot_pattern_expectancy/images/cue3.png""</img></div></div>","none","500","BY","test","0","","",""
"-1","-1","poldrack-single-stim","50","165642","0.0-11.0","sub-11_ses-03_2","","2000","0","fixation","","<div class = centerbox><div class = fixation>+</div></div>","none","2000","","test","","","",""
"509","71","poldrack-single-stim","51","167302","0.0-12.0","sub-11_ses-03_2","","1636","0","probe","","<div class = centerbox><div class = img-container><img src = ""/static/experiments/dot_pattern_expectancy/images/probe5.png""</img></div></div>","89,71","500","BY","test","0","71","true",""
"-1","-1","poldrack-single-stim","52","167823","0.0-13.0","sub-11_ses-03_2","","500","0","cue","","<div class = centerbox><div class = img-container><img src = ""/static/experiments/dot_pattern_expectancy/images/cue4.png""</img></div></div>","none","500","AY","test","1","","",""
"-1","-1","poldrack-single-stim","53","169833","0.0-14.0","sub-11_ses-03_2","","2000","0","fixation","","<div class = centerbox><div class = fixation>+</div></div>","none","2000","","test","","","",""
"843","71","poldrack-single-stim","54","171342","0.0-15.0","sub-11_ses-03_2","","1500","0","probe","","<div class = centerbox><div class = img-container><img src = ""/static/experiments/dot_pattern_expectancy/images/probe2.png""</img></div></div>","89,71","500","AY","test","1","71","true",""
"-1","-1","poldrack-single-stim","55","171864","0.0-16.0","sub-11_ses-03_2","","500","0","cue","","<div class = centerbox><div class = img-container><img src = ""/static/experiments/dot_pattern_expectancy/images/cue4.png""</img></div></div>","none","500","AX","test","2","","",""
"-1","-1","poldrack-single-stim","56","173873","0.0-17.0","sub-11_ses-03_2","","2000","0","fixation","","<div class = centerbox><div class = fixation>+</div></div>","none","2000","","test","","","",""
"826","89","poldrack-single-stim","57","175922","0.0-18.0","sub-11_ses-03_2","","2044","0","probe","","<div class = centerbox><div class = img-container><img src = ""/static/experiments/dot_pattern_expectancy/images/probe6.png""</img></div></div>","89,71","500","AX","test","2","89","true",""
"-1","-1","poldrack-single-stim","58","176433","0.0-19.0","sub-11_ses-03_2","","500","0","cue","","<div class = centerbox><div class = img-container><img src = ""/static/experiments/dot_pattern_expectancy/images/cue2.png""</img></div></div>","none","500","BY","test","3","","",""
"-1","-1","poldrack-single-stim","59","178442","0.0-20.0","sub-11_ses-03_2","","2000","0","fixation","","<div class = centerbox><div class = fixation>+</div></div>","none","2000","","test","","","",""
"530","71","poldrack-single-stim","60","180232","0.0-21.0","sub-11_ses-03_2","","1772","0","probe","","<div class = centerbox><div class = img-container><img src = ""/static/experiments/dot_pattern_expectancy/images/probe4.png""</img></div></div>","89,71","500","BY","test","3","71","true",""
"-1","-1","poldrack-single-stim","61","180752","0.0-22.0","sub-11_ses-03_2","","500","0","cue","","<div class = centerbox><div class = img-container><img src = ""/static/experiments/dot_pattern_expectancy/images/cue1.png""</img></div></div>","none","500","BX","test","4","","",""
"-1","-1","poldrack-single-stim","62","182763","0.0-23.0","sub-11_ses-03_2","","2000","0","fixation","","<div class = centerbox><div class = fixation>+</div></div>","none","2000","","test","","","",""
"840","71","poldrack-single-stim","63","184401","0.0-24.0","sub-11_ses-03_2","","1636","0","probe","","<div class = centerbox><div class = img-container><img src = ""/static/experiments/dot_pattern_expectancy/images/probe6.png""</img></div></div>","89,71","500","BX","test","4","71","true",""
"-1","-1","poldrack-single-stim","64","184923","0.0-25.0","sub-11_ses-03_2","","500","0","cue","","<div class = centerbox><div class = img-container><img src = ""/static/experiments/dot_pattern_expectancy/images/cue4.png""</img></div></div>","none","500","AX","test","5","","",""
"-1","-1","poldrack-single-stim","65","186943","0.0-26.0","sub-11_ses-03_2","","2000","0","fixation","","<div class = centerbox><div class = fixation>+</div></div>","none","2000","","test","","","",""
"618","89","poldrack-single-stim","66","188592","0.0-27.0","sub-11_ses-03_2","","1636","0","probe","","<div class = centerbox><div class = img-container><img src = ""/static/experiments/dot_pattern_expectancy/images/probe6.png""</img></div></div>","89,71","500","AX","test","5","89","true",""
"-1","-1","poldrack-single-stim","67","189113","0.0-28.0","sub-11_ses-03_2","","500","0","cue","","<div class = centerbox><div class = img-container><img src = ""/static/experiments/dot_pattern_expectancy/images/cue4.png""</img></div></div>","none","500","AX","test","6","","",""
"-1","-1","poldrack-single-stim","68","191133","0.0-29.0","sub-11_ses-03_2","","2000","0","fixation","","<div class = centerbox><div class = fixation>+</div></div>","none","2000","","test","","","",""
"884","89","poldrack-single-stim","69","192652","0.0-30.0","sub-11_ses-03_2","","1500","0","probe","","<div class = centerbox><div class = img-container><img src = ""/static/experiments/dot_pattern_expectancy/images/probe6.png""</img></div></div>","89,71","500","AX","test","6","89","true",""
"-1","-1","poldrack-single-stim","70","193172","0.0-31.0","sub-11_ses-03_2","","500","0","cue","","<div class = centerbox><div class = img-container><img src = ""/static/experiments/dot_pattern_expectancy/images/cue4.png""</img></div></div>","none","500","AX","test","7","","",""
"-1","-1","poldrack-single-stim","71","195192","0.0-32.0","sub-11_ses-03_2","","2000","0","fixation","","<div class = centerbox><div class = fixation>+</div></div>","none","2000","","test","","","",""
"806","89","poldrack-single-stim","72","196712","0.0-33.0","sub-11_ses-03_2","","1500","0","probe","","<div class = centerbox><div class = img-container><img src = ""/static/experiments/dot_pattern_expectancy/images/probe6.png""</img></div></div>","89,71","500","AX","test","7","89","true",""
"-1","-1","poldrack-single-stim","73","197232","0.0-34.0","sub-11_ses-03_2","","500","0","cue","","<div class = centerbox><div class = img-container><img src = ""/static/experiments/dot_pattern_expectancy/images/cue4.png""</img></div></div>","none","500","AY","test","8","","",""
"-1","-1","poldrack-single-stim","74","199243","0.0-35.0","sub-11_ses-03_2","","2000","0","fixation","","<div class = centerbox><div class = fixation>+</div></div>","none","2000","","test","","","",""
"863","71","poldrack-single-stim","75","201292","0.0-36.0","sub-11_ses-03_2","","2044","0","probe","","<div class = centerbox><div class = img-container><img src = ""/static/experiments/dot_pattern_expectancy/images/probe4.png""</img></div></div>","89,71","500","AY","test","8","71","true",""
"-1","-1","poldrack-single-stim","76","201812","0.0-37.0","sub-11_ses-03_2","","500","0","cue","","<div class = centerbox><div class = img-container><img src = ""/static/experiments/dot_pattern_expectancy/images/cue4.png""</img></div></div>","none","500","AX","test","9","","",""
"-1","-1","poldrack-single-stim","77","203823","0.0-38.0","sub-11_ses-03_2","","2000","0","fixation","","<div class = centerbox><div class = fixation>+</div></div>","none","2000","","test","","","",""
"832","89","poldrack-single-stim","78","206281","0.0-39.0","sub-11_ses-03_2","","2452","0","probe","","<div class = centerbox><div class = img-container><img src = ""/static/experiments/dot_pattern_expectancy/images/probe6.png""</img></div></div>","89,71","500","AX","test","9","89","true",""
"-1","-1","poldrack-single-stim","79","206802","0.0-40.0","sub-11_ses-03_2","","500","0","cue","","<div class = centerbox><div class = img-container><img src = ""/static/experiments/dot_pattern_expectancy/images/cue4.png""</img></div></div>","none","500","AX","test","10","","",""
"-1","-1","poldrack-single-stim","80","208823","0.0-41.0","sub-11_ses-03_2","","2000","0","fixation","","<div class = centerbox><div class = fixation>+</div></div>","none","2000","","test","","","",""
"744","89","poldrack-single-stim","81","210742","0.0-42.0","sub-11_ses-03_2","","1908","0","probe","","<div class = centerbox><div class = img-container><img src = ""/static/experiments/dot_pattern_expectancy/images/probe6.png""</img></div></div>","89,71","500","AX","test","10","89","true",""
"-1","-1","poldrack-single-stim","82","211263","0.0-43.0","sub-11_ses-03_2","","500","0","cue","","<div class = centerbox><div class = img-container><img src = ""/static/experiments/dot_pattern_expectancy/images/cue4.png""</img></div></div>","none","500","AX","test","11","","",""
"-1","-1","poldrack-single-stim","83","213282","0.0-44.0","sub-11_ses-03_2","","2000","0","fixation","","<div class = centerbox><div class = fixation>+</div></div>","none","2000","","test","","","",""
"870","89","poldrack-single-stim","84","214802","0.0-45.0","sub-11_ses-03_2","","1500","0","probe","","<div class = centerbox><div class = img-container><img src = ""/static/experiments/dot_pattern_expectancy/images/probe6.png""</img></div></div>","89,71","500","AX","test","11","89","true",""
"-1","-1","poldrack-single-stim","85","215323","0.0-46.0","sub-11_ses-03_2","","500","0","cue","","<div class = centerbox><div class = img-container><img src = ""/static/experiments/dot_pattern_expectancy/images/cue4.png""</img></div></div>","none","500","AX","test","12","","",""
"-1","-1","poldrack-single-stim","86","217343","0.0-47.0","sub-11_ses-03_2","","2000","0","fixation","","<div class = centerbox><div class = fixation>+</div></div>","none","2000","","test","","","",""
"795","89","poldrack-single-stim","87","219273","0.0-48.0","sub-11_ses-03_2","","1908","0","probe","","<div class = centerbox><div class = img-container><img src = ""/static/experiments/dot_pattern_expectancy/images/probe6.png""</img></div></div>","89,71","500","AX","test","12","89","true",""
"-1","-1","poldrack-single-stim","88","219782","0.0-49.0","sub-11_ses-03_2","","500","0","cue","","<div class = centerbox><div class = img-container><img src = ""/static/experiments/dot_pattern_expectancy/images/cue2.png""</img></div></div>","none","500","BX","test","13","","",""
"-1","-1","poldrack-single-stim","89","221793","0.0-50.0","sub-11_ses-03_2","","2000","0","fixation","","<div class = centerbox><div class = fixation>+</div></div>","none","2000","","test","","","",""
"581","71","poldrack-single-stim","90","223982","0.0-51.0","sub-11_ses-03_2","","2180","0","probe","","<div class = centerbox><div class = img-container><img src = ""/static/experiments/dot_pattern_expectancy/images/probe6.png""</img></div></div>","89,71","500","BX","test","13","71","true",""
"-1","-1","poldrack-single-stim","91","224503","0.0-52.0","sub-11_ses-03_2","","500","0","cue","","<div class = centerbox><div class = img-container><img src = ""/static/experiments/dot_pattern_expectancy/images/cue4.png""</img></div></div>","none","500","AX","test","14","","",""
"-1","-1","poldrack-single-stim","92","226523","0.0-53.0","sub-11_ses-03_2","","2000","0","fixation","","<div class = centerbox><div class = fixation>+</div></div>","none","2000","","test","","","",""
"880","89","poldrack-single-stim","93","228032","0.0-54.0","sub-11_ses-03_2","","1500","0","probe","","<div class = centerbox><div class = img-container><img src = ""/static/experiments/dot_pattern_expectancy/images/probe6.png""</img></div></div>","89,71","500","AX","test","14","89","true",""
"-1","-1","poldrack-single-stim","94","228554","0.0-55.0","sub-11_ses-03_2","","500","0","cue","","<div class = centerbox><div class = img-container><img src = ""/static/experiments/dot_pattern_expectancy/images/cue6.png""</img></div></div>","none","500","BY","test","15","","",""
"-1","-1","poldrack-single-stim","95","230573","0.0-56.0","sub-11_ses-03_2","","2000","0","fixation","","<div class = centerbox><div class = fixation>+</div></div>","none","2000","","test","","","",""
"902","71","poldrack-single-stim","96","232490","0.0-57.0","sub-11_ses-03_2","","1908","0","probe","","<div class = centerbox><div class = img-container><img src = ""/static/experiments/dot_pattern_expectancy/images/probe2.png""</img></div></div>","89,71","500","BY","test","15","71","true",""
"-1","-1","poldrack-single-stim","97","233012","0.0-58.0","sub-11_ses-03_2","","500","0","cue","","<div class = centerbox><div class = img-container><img src = ""/static/experiments/dot_pattern_expectancy/images/cue1.png""</img></div></div>","none","500","BX","test","16","","",""
"-1","-1","poldrack-single-stim","98","235023","0.0-59.0","sub-11_ses-03_2","","2000","0","fixation","","<div class = centerbox><div class = fixation>+</div></div>","none","2000","","test","","","",""
"923","71","poldrack-single-stim","99","237362","0.0-60.0","sub-11_ses-03_2","","2316","0","probe","","<div class = centerbox><div class = img-container><img src = ""/static/experiments/dot_pattern_expectancy/images/probe6.png""</img></div></div>","89,71","500","BX","test","16","71","true",""
"-1","-1","poldrack-single-stim","100","237882","0.0-61.0","sub-11_ses-03_2","","500","0","cue","","<div class = centerbox><div class = img-container><img src = ""/static/experiments/dot_pattern_expectancy/images/cue4.png""</img></div></div>","none","500","AY","test","17","","",""
"-1","-1","poldrack-single-stim","101","239903","0.0-62.0","sub-11_ses-03_2","","2000","0","fixation","","<div class = centerbox><div class = fixation>+</div></div>","none","2000","","test","","","",""
"810","71","poldrack-single-stim","102","242221","0.0-63.0","sub-11_ses-03_2","","2316","0","probe","","<div class = centerbox><div class = img-container><img src = ""/static/experiments/dot_pattern_expectancy/images/probe1.png""</img></div></div>","89,71","500","AY","test","17","71","true",""
"-1","-1","poldrack-single-stim","103","242742","0.0-64.0","sub-11_ses-03_2","","500","0","cue","","<div class = centerbox><div class = img-container><img src = ""/static/experiments/dot_pattern_expectancy/images/cue2.png""</img></div></div>","none","500","BX","test","18","","",""
"-1","-1","poldrack-single-stim","104","244763","0.0-65.0","sub-11_ses-03_2","","2000","0","fixation","","<div class = centerbox><div class = fixation>+</div></div>","none","2000","","test","","","",""
"849","89","poldrack-single-stim","105","246402","0.0-66.0","sub-11_ses-03_2","","1636","0","probe","","<div class = centerbox><div class = img-container><img src = ""/static/experiments/dot_pattern_expectancy/images/probe6.png""</img></div></div>","89,71","500","BX","test","18","71","false",""
"-1","-1","poldrack-single-stim","106","246923","0.0-67.0","sub-11_ses-03_2","","500","0","cue","","<div class = centerbox><div class = img-container><img src = ""/static/experiments/dot_pattern_expectancy/images/cue4.png""</img></div></div>","none","500","AY","test","19","","",""
"-1","-1","poldrack-single-stim","107","248931","0.0-68.0","sub-11_ses-03_2","","2000","0","fixation","","<div class = centerbox><div class = fixation>+</div></div>","none","2000","","test","","","",""
"979","71","poldrack-single-stim","108","250453","0.0-69.0","sub-11_ses-03_2","","1500","0","probe","","<div class = centerbox><div class = img-container><img src = ""/static/experiments/dot_pattern_expectancy/images/probe3.png""</img></div></div>","89,71","500","AY","test","19","71","true",""
"-1","-1","poldrack-single-stim","109","250973","0.0-70.0","sub-11_ses-03_2","","500","0","cue","","<div class = centerbox><div class = img-container><img src = ""/static/experiments/dot_pattern_expectancy/images/cue1.png""</img></div></div>","none","500","BY","test","20","","",""
"-1","-1","poldrack-single-stim","110","252993","0.0-71.0","sub-11_ses-03_2","","2000","0","fixation","","<div class = centerbox><div class = fixation>+</div></div>","none","2000","","test","","","",""
"772","71","poldrack-single-stim","111","254911","0.0-72.0","sub-11_ses-03_2","","1908","0","probe","","<div class = centerbox><div class = img-container><img src = ""/static/experiments/dot_pattern_expectancy/images/probe1.png""</img></div></div>","89,71","500","BY","test","20","71","true",""
"-1","-1","poldrack-single-stim","112","255433","0.0-73.0","sub-11_ses-03_2","","500","0","cue","","<div class = centerbox><div class = img-container><img src = ""/static/experiments/dot_pattern_expectancy/images/cue4.png""</img></div></div>","none","500","AX","test","21","","",""
"-1","-1","poldrack-single-stim","113","257442","0.0-74.0","sub-11_ses-03_2","","2000","0","fixation","","<div class = centerbox><div class = fixation>+</div></div>","none","2000","","test","","","",""
"561","89","poldrack-single-stim","114","258961","0.0-75.0","sub-11_ses-03_2","","1500","0","probe","","<div class = centerbox><div class = img-container><img src = ""/static/experiments/dot_pattern_expectancy/images/probe6.png""</img></div></div>","89,71","500","AX","test","21","89","true",""
"-1","-1","poldrack-single-stim","115","259472","0.0-76.0","sub-11_ses-03_2","","500","0","cue","","<div class = centerbox><div class = img-container><img src = ""/static/experiments/dot_pattern_expectancy/images/cue4.png""</img></div></div>","none","500","AY","test","22","","",""
"-1","-1","poldrack-single-stim","116","261492","0.0-77.0","sub-11_ses-03_2","","2000","0","fixation","","<div class = centerbox><div class = fixation>+</div></div>","none","2000","","test","","","",""
"728","71","poldrack-single-stim","117","263812","0.0-78.0","sub-11_ses-03_2","","2316","0","probe","","<div class = centerbox><div class = img-container><img src = ""/static/experiments/dot_pattern_expectancy/images/probe2.png""</img></div></div>","89,71","500","AY","test","22","71","true",""
"-1","-1","poldrack-single-stim","118","264332","0.0-79.0","sub-11_ses-03_2","","500","0","cue","","<div class = centerbox><div class = img-container><img src = ""/static/experiments/dot_pattern_expectancy/images/cue4.png""</img></div></div>","none","500","AX","test","23","","",""
"-1","-1","poldrack-single-stim","119","266353","0.0-80.0","sub-11_ses-03_2","","2000","0","fixation","","<div class = centerbox><div class = fixation>+</div></div>","none","2000","","test","","","",""
"556","89","poldrack-single-stim","120","267872","0.0-81.0","sub-11_ses-03_2","","1500","0","probe","","<div class = centerbox><div class = img-container><img src = ""/static/experiments/dot_pattern_expectancy/images/probe6.png""</img></div></div>","89,71","500","AX","test","23","89","true",""
"-1","-1","poldrack-single-stim","121","268393","0.0-82.0","sub-11_ses-03_2","","500","0","cue","","<div class = centerbox><div class = img-container><img src = ""/static/experiments/dot_pattern_expectancy/images/cue4.png""</img></div></div>","none","500","AY","test","24","","",""
"-1","-1","poldrack-single-stim","122","270413","0.0-83.0","sub-11_ses-03_2","","2000","0","fixation","","<div class = centerbox><div class = fixation>+</div></div>","none","2000","","test","","","",""
"909","71","poldrack-single-stim","123","273143","0.0-84.0","sub-11_ses-03_2","","2724","0","probe","","<div class = centerbox><div class = img-container><img src = ""/static/experiments/dot_pattern_expectancy/images/probe3.png""</img></div></div>","89,71","500","AY","test","24","71","true",""
"-1","-1","poldrack-single-stim","124","273662","0.0-85.0","sub-11_ses-03_2","","500","0","cue","","<div class = centerbox><div class = img-container><img src = ""/static/experiments/dot_pattern_expectancy/images/cue4.png""</img></div></div>","none","500","AX","test","25","","",""
"-1","-1","poldrack-single-stim","125","275673","0.0-86.0","sub-11_ses-03_2","","2000","0","fixation","","<div class = centerbox><div class = fixation>+</div></div>","none","2000","","test","","","",""
"506","89","poldrack-single-stim","126","277192","0.0-87.0","sub-11_ses-03_2","","1500","0","probe","","<div class = centerbox><div class = img-container><img src = ""/static/experiments/dot_pattern_expectancy/images/probe6.png""</img></div></div>","89,71","500","AX","test","25","89","true",""
"-1","-1","poldrack-single-stim","127","277711","0.0-88.0","sub-11_ses-03_2","","500","0","cue","","<div class = centerbox><div class = img-container><img src = ""/static/experiments/dot_pattern_expectancy/images/cue4.png""</img></div></div>","none","500","AX","test","26","","",""
"-1","-1","poldrack-single-stim","128","279732","0.0-89.0","sub-11_ses-03_2","","2000","0","fixation","","<div class = centerbox><div class = fixation>+</div></div>","none","2000","","test","","","",""
"446","89","poldrack-single-stim","129","281372","0.0-90.0","sub-11_ses-03_2","","1636","0","probe","","<div class = centerbox><div class = img-container><img src = ""/static/experiments/dot_pattern_expectancy/images/probe6.png""</img></div></div>","89,71","500","AX","test","26","89","true",""
"-1","-1","poldrack-single-stim","130","281927","0.0-91.0","sub-11_ses-03_2","","500","0","cue","","<div class = centerbox><div class = img-container><img src = ""/static/experiments/dot_pattern_expectancy/images/cue4.png""</img></div></div>","none","500","AX","test","27","","",""
"-1","-1","poldrack-single-stim","131","283943","0.0-92.0","sub-11_ses-03_2","","2000","0","fixation","","<div class = centerbox><div class = fixation>+</div></div>","none","2000","","test","","","",""
"877","89","poldrack-single-stim","132","285603","0.0-93.0","sub-11_ses-03_2","","1636","0","probe","","<div class = centerbox><div class = img-container><img src = ""/static/experiments/dot_pattern_expectancy/images/probe6.png""</img></div></div>","89,71","500","AX","test","27","89","true",""
"-1","-1","poldrack-single-stim","133","286113","0.0-94.0","sub-11_ses-03_2","","500","0","cue","","<div class = centerbox><div class = img-container><img src = ""/static/experiments/dot_pattern_expectancy/images/cue4.png""</img></div></div>","none","500","AX","test","28","","",""
"-1","-1","poldrack-single-stim","134","288123","0.0-95.0","sub-11_ses-03_2","","2000","0","fixation","","<div class = centerbox><div class = fixation>+</div></div>","none","2000","","test","","","",""
"622","89","poldrack-single-stim","135","289902","0.0-96.0","sub-11_ses-03_2","","1772","0","probe","","<div class = centerbox><div class = img-container><img src = ""/static/experiments/dot_pattern_expectancy/images/probe6.png""</img></div></div>","89,71","500","AX","test","28","89","true",""
"-1","-1","poldrack-single-stim","136","290423","0.0-97.0","sub-11_ses-03_2","","500","0","cue","","<div class = centerbox><div class = img-container><img src = ""/static/experiments/dot_pattern_expectancy/images/cue3.png""</img></div></div>","none","500","BY","test","29","","",""
"-1","-1","poldrack-single-stim","137","292433","0.0-98.0","sub-11_ses-03_2","","2000","0","fixation","","<div class = centerbox><div class = fixation>+</div></div>","none","2000","","test","","","",""
"439","71","poldrack-single-stim","138","294211","0.0-99.0","sub-11_ses-03_2","","1772","0","probe","","<div class = centerbox><div class = img-container><img src = ""/static/experiments/dot_pattern_expectancy/images/probe1.png""</img></div></div>","89,71","500","BY","test","29","71","true",""
"-1","-1","poldrack-single-stim","139","294733","0.0-100.0","sub-11_ses-03_2","","500","0","cue","","<div class = centerbox><div class = img-container><img src = ""/static/experiments/dot_pattern_expectancy/images/cue4.png""</img></div></div>","none","500","AX","test","30","","",""
"-1","-1","poldrack-single-stim","140","296753","0.0-101.0","sub-11_ses-03_2","","2000","0","fixation","","<div class = centerbox><div class = fixation>+</div></div>","none","2000","","test","","","",""
"809","89","poldrack-single-stim","141","298262","0.0-102.0","sub-11_ses-03_2","","1500","0","probe","","<div class = centerbox><div class = img-container><img src = ""/static/experiments/dot_pattern_expectancy/images/probe6.png""</img></div></div>","89,71","500","AX","test","30","89","true",""
"-1","-1","poldrack-single-stim","142","298781","0.0-103.0","sub-11_ses-03_2","","500","0","cue","","<div class = centerbox><div class = img-container><img src = ""/static/experiments/dot_pattern_expectancy/images/cue6.png""</img></div></div>","none","500","BY","test","31","","",""
"-1","-1","poldrack-single-stim","143","300802","0.0-104.0","sub-11_ses-03_2","","2000","0","fixation","","<div class = centerbox><div class = fixation>+</div></div>","none","2000","","test","","","",""
"1382","89","poldrack-single-stim","144","303261","0.0-105.0","sub-11_ses-03_2","","2452","0","probe","","<div class = centerbox><div class = img-container><img src = ""/static/experiments/dot_pattern_expectancy/images/probe5.png""</img></div></div>","89,71","500","BY","test","31","71","false",""
"-1","-1","poldrack-single-stim","145","303782","0.0-106.0","sub-11_ses-03_2","","500","0","cue","","<div class = centerbox><div class = img-container><img src = ""/static/experiments/dot_pattern_expectancy/images/cue4.png""</img></div></div>","none","500","AX","test","32","","",""
"-1","-1","poldrack-single-stim","146","305803","0.0-107.0","sub-11_ses-03_2","","2000","0","fixation","","<div class = centerbox><div class = fixation>+</div></div>","none","2000","","test","","","",""
"889","89","poldrack-single-stim","147","307442","0.0-108.0","sub-11_ses-03_2","","1636","0","probe","","<div class = centerbox><div class = img-container><img src = ""/static/experiments/dot_pattern_expectancy/images/probe6.png""</img></div></div>","89,71","500","AX","test","32","89","true",""
"-1","-1","poldrack-single-stim","148","307963","0.0-109.0","sub-11_ses-03_2","","500","0","cue","","<div class = centerbox><div class = img-container><img src = ""/static/experiments/dot_pattern_expectancy/images/cue4.png""</img></div></div>","none","500","AX","test","33","","",""
"-1","-1","poldrack-single-stim","149","309982","0.0-110.0","sub-11_ses-03_2","","2000","0","fixation","","<div class = centerbox><div class = fixation>+</div></div>","none","2000","","test","","","",""
"809","89","poldrack-single-stim","150","311632","0.0-111.0","sub-11_ses-03_2","","1636","0","probe","","<div class = centerbox><div class = img-container><img src = ""/static/experiments/dot_pattern_expectancy/images/probe6.png""</img></div></div>","89,71","500","AX","test","33","89","true",""
"-1","-1","poldrack-single-stim","151","312153","0.0-112.0","sub-11_ses-03_2","","500","0","cue","","<div class = centerbox><div class = img-container><img src = ""/static/experiments/dot_pattern_expectancy/images/cue3.png""</img></div></div>","none","500","BX","test","34","","",""
"-1","-1","poldrack-single-stim","152","314173","0.0-113.0","sub-11_ses-03_2","","2000","0","fixation","","<div class = centerbox><div class = fixation>+</div></div>","none","2000","","test","","","",""
"897","71","poldrack-single-stim","153","315692","0.0-114.0","sub-11_ses-03_2","","1500","0","probe","","<div class = centerbox><div class = img-container><img src = ""/static/experiments/dot_pattern_expectancy/images/probe6.png""</img></div></div>","89,71","500","BX","test","34","71","true",""
"-1","-1","poldrack-single-stim","154","316212","0.0-115.0","sub-11_ses-03_2","","500","0","cue","","<div class = centerbox><div class = img-container><img src = ""/static/experiments/dot_pattern_expectancy/images/cue2.png""</img></div></div>","none","500","BX","test","35","","",""
"-1","-1","poldrack-single-stim","155","318223","0.0-116.0","sub-11_ses-03_2","","2000","0","fixation","","<div class = centerbox><div class = fixation>+</div></div>","none","2000","","test","","","",""
"696","71","poldrack-single-stim","156","319742","0.0-117.0","sub-11_ses-03_2","","1500","0","probe","","<div class = centerbox><div class = img-container><img src = ""/static/experiments/dot_pattern_expectancy/images/probe6.png""</img></div></div>","89,71","500","BX","test","35","71","true",""
"-1","-1","poldrack-single-stim","157","320262","0.0-118.0","sub-11_ses-03_2","","500","0","cue","","<div class = centerbox><div class = img-container><img src = ""/static/experiments/dot_pattern_expectancy/images/cue4.png""</img></div></div>","none","500","AX","test","36","","",""
"-1","-1","poldrack-single-stim","158","322283","0.0-119.0","sub-11_ses-03_2","","2000","0","fixation","","<div class = centerbox><div class = fixation>+</div></div>","none","2000","","test","","","",""
"843","89","poldrack-single-stim","159","324602","0.0-120.0","sub-11_ses-03_2","","2316","0","probe","","<div class = centerbox><div class = img-container><img src = ""/static/experiments/dot_pattern_expectancy/images/probe6.png""</img></div></div>","89,71","500","AX","test","36","89","true",""
"-1","-1","poldrack-single-stim","160","325121","0.0-121.0","sub-11_ses-03_2","","500","0","cue","","<div class = centerbox><div class = img-container><img src = ""/static/experiments/dot_pattern_expectancy/images/cue4.png""</img></div></div>","none","500","AY","test","37","","",""
"-1","-1","poldrack-single-stim","161","327143","0.0-122.0","sub-11_ses-03_2","","2000","0","fixation","","<div class = centerbox><div class = fixation>+</div></div>","none","2000","","test","","","",""
"802","71","poldrack-single-stim","162","329203","0.0-123.0","sub-11_ses-03_2","","2044","0","probe","","<div class = centerbox><div class = img-container><img src = ""/static/experiments/dot_pattern_expectancy/images/probe3.png""</img></div></div>","89,71","500","AY","test","37","71","true",""
"-1","-1","poldrack-single-stim","163","329722","0.0-124.0","sub-11_ses-03_2","","500","0","cue","","<div class = centerbox><div class = img-container><img src = ""/static/experiments/dot_pattern_expectancy/images/cue4.png""</img></div></div>","none","500","AX","test","38","","",""
"-1","-1","poldrack-single-stim","164","331732","0.0-125.0","sub-11_ses-03_2","","2000","0","fixation","","<div class = centerbox><div class = fixation>+</div></div>","none","2000","","test","","","",""
"421","89","poldrack-single-stim","165","335702","0.0-126.0","sub-11_ses-03_2","","3948","0","probe","","<div class = centerbox><div class = img-container><img src = ""/static/experiments/dot_pattern_expectancy/images/probe6.png""</img></div></div>","89,71","500","AX","test","38","89","true",""
"-1","-1","poldrack-single-stim","166","336222","0.0-127.0","sub-11_ses-03_2","","500","0","cue","","<div class = centerbox><div class = img-container><img src = ""/static/experiments/dot_pattern_expectancy/images/cue4.png""</img></div></div>","none","500","AX","test","39","","",""
"-1","-1","poldrack-single-stim","167","338232","0.0-128.0","sub-11_ses-03_2","","2000","0","fixation","","<div class = centerbox><div class = fixation>+</div></div>","none","2000","","test","","","",""
"843","89","poldrack-single-stim","168","339871","0.0-129.0","sub-11_ses-03_2","","1636","0","probe","","<div class = centerbox><div class = img-container><img src = ""/static/experiments/dot_pattern_expectancy/images/probe6.png""</img></div></div>","89,71","500","AX","test","39","89","true",""
"-1","-1","poldrack-single-stim","169","347392","0.0-130.0","sub-11_ses-03_2","","7500","1000","rest_block","","<div class = centerbox><div class = center-text>+</div></div>","none","7500","","","","","",""
"-1","-1","poldrack-single-stim","170","349932","0.0-131.0","sub-11_ses-03_2","","1500","500","test_start_block","","<div class = centerbox><div class = center-text>Preparez-vous!</p></div>","none","1500","","","","","",""
"-1","-1","poldrack-single-stim","171","350972","0.0-132.0","sub-11_ses-03_2","","500","0","cue","","<div class = centerbox><div class = img-container><img src = ""/static/experiments/dot_pattern_expectancy/images/cue4.png""</img></div></div>","none","500","AY","test","0","","",""
"-1","-1","poldrack-single-stim","172","352982","0.0-133.0","sub-11_ses-03_2","","2000","0","fixation","","<div class = centerbox><div class = fixation>+</div></div>","none","2000","","test","","","",""
"756","71","poldrack-single-stim","173","354622","0.0-134.0","sub-11_ses-03_2","","1636","0","probe","","<div class = centerbox><div class = img-container><img src = ""/static/experiments/dot_pattern_expectancy/images/probe5.png""</img></div></div>","89,71","500","AY","test","0","71","true",""
"-1","-1","poldrack-single-stim","174","355143","0.0-135.0","sub-11_ses-03_2","","500","0","cue","","<div class = centerbox><div class = img-container><img src = ""/static/experiments/dot_pattern_expectancy/images/cue4.png""</img></div></div>","none","500","AX","test","1","","",""
"-1","-1","poldrack-single-stim","175","357163","0.0-136.0","sub-11_ses-03_2","","2000","0","fixation","","<div class = centerbox><div class = fixation>+</div></div>","none","2000","","test","","","",""
"843","89","poldrack-single-stim","176","358802","0.0-137.0","sub-11_ses-03_2","","1636","0","probe","","<div class = centerbox><div class = img-container><img src = ""/static/experiments/dot_pattern_expectancy/images/probe6.png""</img></div></div>","89,71","500","AX","test","1","89","true",""
"-1","-1","poldrack-single-stim","177","359322","0.0-138.0","sub-11_ses-03_2","","500","0","cue","","<div class = centerbox><div class = img-container><img src = ""/static/experiments/dot_pattern_expectancy/images/cue4.png""</img></div></div>","none","500","AX","test","2","","",""
"-1","-1","poldrack-single-stim","178","361333","0.0-139.0","sub-11_ses-03_2","","2000","0","fixation","","<div class = centerbox><div class = fixation>+</div></div>","none","2000","","test","","","",""
"626","89","poldrack-single-stim","179","362853","0.0-140.0","sub-11_ses-03_2","","1500","0","probe","","<div class = centerbox><div class = img-container><img src = ""/static/experiments/dot_pattern_expectancy/images/probe6.png""</img></div></div>","89,71","500","AX","test","2","89","true",""
"-1","-1","poldrack-single-stim","180","363372","0.0-141.0","sub-11_ses-03_2","","500","0","cue","","<div class = centerbox><div class = img-container><img src = ""/static/experiments/dot_pattern_expectancy/images/cue4.png""</img></div></div>","none","500","AX","test","3","","",""
"-1","-1","poldrack-single-stim","181","365393","0.0-142.0","sub-11_ses-03_2","","2000","0","fixation","","<div class = centerbox><div class = fixation>+</div></div>","none","2000","","test","","","",""
"798","89","poldrack-single-stim","182","366912","0.0-143.0","sub-11_ses-03_2","","1500","0","probe","","<div class = centerbox><div class = img-container><img src = ""/static/experiments/dot_pattern_expectancy/images/probe6.png""</img></div></div>","89,71","500","AX","test","3","89","true",""
"-1","-1","poldrack-single-stim","183","367432","0.0-144.0","sub-11_ses-03_2","","500","0","cue","","<div class = centerbox><div class = img-container><img src = ""/static/experiments/dot_pattern_expectancy/images/cue4.png""</img></div></div>","none","500","AX","test","4","","",""
"-1","-1","poldrack-single-stim","184","369452","0.0-145.0","sub-11_ses-03_2","","2000","0","fixation","","<div class = centerbox><div class = fixation>+</div></div>","none","2000","","test","","","",""
"866","89","poldrack-single-stim","185","371371","0.0-146.0","sub-11_ses-03_2","","1908","0","probe","","<div class = centerbox><div class = img-container><img src = ""/static/experiments/dot_pattern_expectancy/images/probe6.png""</img></div></div>","89,71","500","AX","test","4","89","true",""
"-1","-1","poldrack-single-stim","186","371888","0.0-147.0","sub-11_ses-03_2","","500","0","cue","","<div class = centerbox><div class = img-container><img src = ""/static/experiments/dot_pattern_expectancy/images/cue1.png""</img></div></div>","none","500","BX","test","5","","",""
"-1","-1","poldrack-single-stim","187","373901","0.0-148.0","sub-11_ses-03_2","","2000","0","fixation","","<div class = centerbox><div class = fixation>+</div></div>","none","2000","","test","","","",""
"1022","71","poldrack-single-stim","188","375543","0.0-149.0","sub-11_ses-03_2","","1636","0","probe","","<div class = centerbox><div class = img-container><img src = ""/static/experiments/dot_pattern_expectancy/images/probe6.png""</img></div></div>","89,71","500","BX","test","5","71","true",""
"-1","-1","poldrack-single-stim","189","376062","0.0-150.0","sub-11_ses-03_2","","500","0","cue","","<div class = centerbox><div class = img-container><img src = ""/static/experiments/dot_pattern_expectancy/images/cue4.png""</img></div></div>","none","500","AX","test","6","","",""
"-1","-1","poldrack-single-stim","190","378083","0.0-151.0","sub-11_ses-03_2","","2000","0","fixation","","<div class = centerbox><div class = fixation>+</div></div>","none","2000","","test","","","",""
"656","89","poldrack-single-stim","191","380131","0.0-152.0","sub-11_ses-03_2","","2044","0","probe","","<div class = centerbox><div class = img-container><img src = ""/static/experiments/dot_pattern_expectancy/images/probe6.png""</img></div></div>","89,71","500","AX","test","6","89","true",""
"-1","-1","poldrack-single-stim","192","380652","0.0-153.0","sub-11_ses-03_2","","500","0","cue","","<div class = centerbox><div class = img-container><img src = ""/static/experiments/dot_pattern_expectancy/images/cue4.png""</img></div></div>","none","500","AX","test","7","","",""
"-1","-1","poldrack-single-stim","193","382671","0.0-154.0","sub-11_ses-03_2","","2000","0","fixation","","<div class = centerbox><div class = fixation>+</div></div>","none","2000","","test","","","",""
"692","89","poldrack-single-stim","194","384463","0.0-155.0","sub-11_ses-03_2","","1772","0","probe","","<div class = centerbox><div class = img-container><img src = ""/static/experiments/dot_pattern_expectancy/images/probe6.png""</img></div></div>","89,71","500","AX","test","7","89","true",""
"-1","-1","poldrack-single-stim","195","384972","0.0-156.0","sub-11_ses-03_2","","500","0","cue","","<div class = centerbox><div class = img-container><img src = ""/static/experiments/dot_pattern_expectancy/images/cue4.png""</img></div></div>","none","500","AX","test","8","","",""
"-1","-1","poldrack-single-stim","196","386982","0.0-157.0","sub-11_ses-03_2","","2000","0","fixation","","<div class = centerbox><div class = fixation>+</div></div>","none","2000","","test","","","",""
"625","89","poldrack-single-stim","197","388502","0.0-158.0","sub-11_ses-03_2","","1500","0","probe","","<div class = centerbox><div class = img-container><img src = ""/static/experiments/dot_pattern_expectancy/images/probe6.png""</img></div></div>","89,71","500","AX","test","8","89","true",""
"-1","-1","poldrack-single-stim","198","389022","0.0-159.0","sub-11_ses-03_2","","500","0","cue","","<div class = centerbox><div class = img-container><img src = ""/static/experiments/dot_pattern_expectancy/images/cue4.png""</img></div></div>","none","500","AX","test","9","","",""
"-1","-1","poldrack-single-stim","199","391042","0.0-160.0","sub-11_ses-03_2","","2000","0","fixation","","<div class = centerbox><div class = fixation>+</div></div>","none","2000","","test","","","",""
"805","89","poldrack-single-stim","200","393232","0.0-161.0","sub-11_ses-03_2","","2180","0","probe","","<div class = centerbox><div class = img-container><img src = ""/static/experiments/dot_pattern_expectancy/images/probe6.png""</img></div></div>","89,71","500","AX","test","9","89","true",""
"-1","-1","poldrack-single-stim","201","393753","0.0-162.0","sub-11_ses-03_2","","500","0","cue","","<div class = centerbox><div class = img-container><img src = ""/static/experiments/dot_pattern_expectancy/images/cue4.png""</img></div></div>","none","500","AX","test","10","","",""
"-1","-1","poldrack-single-stim","202","395772","0.0-163.0","sub-11_ses-03_2","","2000","0","fixation","","<div class = centerbox><div class = fixation>+</div></div>","none","2000","","test","","","",""
"591","89","poldrack-single-stim","203","397283","0.0-164.0","sub-11_ses-03_2","","1500","0","probe","","<div class = centerbox><div class = img-container><img src = ""/static/experiments/dot_pattern_expectancy/images/probe6.png""</img></div></div>","89,71","500","AX","test","10","89","true",""
"-1","-1","poldrack-single-stim","204","397802","0.0-165.0","sub-11_ses-03_2","","500","0","cue","","<div class = centerbox><div class = img-container><img src = ""/static/experiments/dot_pattern_expectancy/images/cue1.png""</img></div></div>","none","500","BX","test","11","","",""
"-1","-1","poldrack-single-stim","205","399822","0.0-166.0","sub-11_ses-03_2","","2000","0","fixation","","<div class = centerbox><div class = fixation>+</div></div>","none","2000","","test","","","",""
"871","71","poldrack-single-stim","206","403502","0.0-167.0","sub-11_ses-03_2","","3676","0","probe","","<div class = centerbox><div class = img-container><img src = ""/static/experiments/dot_pattern_expectancy/images/probe6.png""</img></div></div>","89,71","500","BX","test","11","71","true",""
"-1","-1","poldrack-single-stim","207","404022","0.0-168.0","sub-11_ses-03_2","","500","0","cue","","<div class = centerbox><div class = img-container><img src = ""/static/experiments/dot_pattern_expectancy/images/cue6.png""</img></div></div>","none","500","BY","test","12","","",""
"-1","-1","poldrack-single-stim","208","406050","0.0-169.0","sub-11_ses-03_2","","2000","0","fixation","","<div class = centerbox><div class = fixation>+</div></div>","none","2000","","test","","","",""
"808","71","poldrack-single-stim","209","407691","0.0-170.0","sub-11_ses-03_2","","1636","0","probe","","<div class = centerbox><div class = img-container><img src = ""/static/experiments/dot_pattern_expectancy/images/probe4.png""</img></div></div>","89,71","500","BY","test","12","71","true",""
"-1","-1","poldrack-single-stim","210","408214","0.0-171.0","sub-11_ses-03_2","","500","0","cue","","<div class = centerbox><div class = img-container><img src = ""/static/experiments/dot_pattern_expectancy/images/cue5.png""</img></div></div>","none","500","BY","test","13","","",""
"-1","-1","poldrack-single-stim","211","410222","0.0-172.0","sub-11_ses-03_2","","2000","0","fixation","","<div class = centerbox><div class = fixation>+</div></div>","none","2000","","test","","","",""
"862","71","poldrack-single-stim","212","411872","0.0-173.0","sub-11_ses-03_2","","1636","0","probe","","<div class = centerbox><div class = img-container><img src = ""/static/experiments/dot_pattern_expectancy/images/probe4.png""</img></div></div>","89,71","500","BY","test","13","71","true",""
"-1","-1","poldrack-single-stim","213","412393","0.0-174.0","sub-11_ses-03_2","","500","0","cue","","<div class = centerbox><div class = img-container><img src = ""/static/experiments/dot_pattern_expectancy/images/cue1.png""</img></div></div>","none","500","BX","test","14","","",""
"-1","-1","poldrack-single-stim","214","414403","0.0-175.0","sub-11_ses-03_2","","2000","0","fixation","","<div class = centerbox><div class = fixation>+</div></div>","none","2000","","test","","","",""
"803","71","poldrack-single-stim","215","415922","0.0-176.0","sub-11_ses-03_2","","1500","0","probe","","<div class = centerbox><div class = img-container><img src = ""/static/experiments/dot_pattern_expectancy/images/probe6.png""</img></div></div>","89,71","500","BX","test","14","71","true",""
"-1","-1","poldrack-single-stim","216","416443","0.0-177.0","sub-11_ses-03_2","","500","0","cue","","<div class = centerbox><div class = img-container><img src = ""/static/experiments/dot_pattern_expectancy/images/cue4.png""</img></div></div>","none","500","AX","test","15","","",""
"-1","-1","poldrack-single-stim","217","418465","0.0-178.0","sub-11_ses-03_2","","2000","0","fixation","","<div class = centerbox><div class = fixation>+</div></div>","none","2000","","test","","","",""
"605","89","poldrack-single-stim","218","420383","0.0-179.0","sub-11_ses-03_2","","1908","0","probe","","<div class = centerbox><div class = img-container><img src = ""/static/experiments/dot_pattern_expectancy/images/probe6.png""</img></div></div>","89,71","500","AX","test","15","89","true",""
"-1","-1","poldrack-single-stim","219","420902","0.0-180.0","sub-11_ses-03_2","","500","0","cue","","<div class = centerbox><div class = img-container><img src = ""/static/experiments/dot_pattern_expectancy/images/cue4.png""</img></div></div>","none","500","AX","test","16","","",""
"-1","-1","poldrack-single-stim","220","422912","0.0-181.0","sub-11_ses-03_2","","2000","0","fixation","","<div class = centerbox><div class = fixation>+</div></div>","none","2000","","test","","","",""
"580","89","poldrack-single-stim","221","424552","0.0-182.0","sub-11_ses-03_2","","1636","0","probe","","<div class = centerbox><div class = img-container><img src = ""/static/experiments/dot_pattern_expectancy/images/probe6.png""</img></div></div>","89,71","500","AX","test","16","89","true",""
"-1","-1","poldrack-single-stim","222","425072","0.0-183.0","sub-11_ses-03_2","","500","0","cue","","<div class = centerbox><div class = img-container><img src = ""/static/experiments/dot_pattern_expectancy/images/cue5.png""</img></div></div>","none","500","BX","test","17","","",""
"-1","-1","poldrack-single-stim","223","427092","0.0-184.0","sub-11_ses-03_2","","2000","0","fixation","","<div class = centerbox><div class = fixation>+</div></div>","none","2000","","test","","","",""
"510","71","poldrack-single-stim","224","428602","0.0-185.0","sub-11_ses-03_2","","1500","0","probe","","<div class = centerbox><div class = img-container><img src = ""/static/experiments/dot_pattern_expectancy/images/probe6.png""</img></div></div>","89,71","500","BX","test","17","71","true",""
"-1","-1","poldrack-single-stim","225","429122","0.0-186.0","sub-11_ses-03_2","","500","0","cue","","<div class = centerbox><div class = img-container><img src = ""/static/experiments/dot_pattern_expectancy/images/cue4.png""</img></div></div>","none","500","AX","test","18","","",""
"-1","-1","poldrack-single-stim","226","431145","0.0-187.0","sub-11_ses-03_2","","2000","0","fixation","","<div class = centerbox><div class = fixation>+</div></div>","none","2000","","test","","","",""
"494","89","poldrack-single-stim","227","433062","0.0-188.0","sub-11_ses-03_2","","1908","0","probe","","<div class = centerbox><div class = img-container><img src = ""/static/experiments/dot_pattern_expectancy/images/probe6.png""</img></div></div>","89,71","500","AX","test","18","89","true",""
"-1","-1","poldrack-single-stim","228","433582","0.0-189.0","sub-11_ses-03_2","","500","0","cue","","<div class = centerbox><div class = img-container><img src = ""/static/experiments/dot_pattern_expectancy/images/cue6.png""</img></div></div>","none","500","BY","test","19","","",""
"-1","-1","poldrack-single-stim","229","435593","0.0-190.0","sub-11_ses-03_2","","2000","0","fixation","","<div class = centerbox><div class = fixation>+</div></div>","none","2000","","test","","","",""
"464","71","poldrack-single-stim","230","437792","0.0-191.0","sub-11_ses-03_2","","2180","0","probe","","<div class = centerbox><div class = img-container><img src = ""/static/experiments/dot_pattern_expectancy/images/probe4.png""</img></div></div>","89,71","500","BY","test","19","71","true",""
"-1","-1","poldrack-single-stim","231","438313","0.0-192.0","sub-11_ses-03_2","","500","0","cue","","<div class = centerbox><div class = img-container><img src = ""/static/experiments/dot_pattern_expectancy/images/cue4.png""</img></div></div>","none","500","AX","test","20","","",""
"-1","-1","poldrack-single-stim","232","440334","0.0-193.0","sub-11_ses-03_2","","2000","0","fixation","","<div class = centerbox><div class = fixation>+</div></div>","none","2000","","test","","","",""
"389","89","poldrack-single-stim","233","442112","0.0-194.0","sub-11_ses-03_2","","1772","0","probe","","<div class = centerbox><div class = img-container><img src = ""/static/experiments/dot_pattern_expectancy/images/probe6.png""</img></div></div>","89,71","500","AX","test","20","89","true",""
"-1","-1","poldrack-single-stim","234","442622","0.0-195.0","sub-11_ses-03_2","","500","0","cue","","<div class = centerbox><div class = img-container><img src = ""/static/experiments/dot_pattern_expectancy/images/cue4.png""</img></div></div>","none","500","AX","test","21","","",""
"-1","-1","poldrack-single-stim","235","444643","0.0-196.0","sub-11_ses-03_2","","2000","0","fixation","","<div class = centerbox><div class = fixation>+</div></div>","none","2000","","test","","","",""
"392","89","poldrack-single-stim","236","446162","0.0-197.0","sub-11_ses-03_2","","1500","0","probe","","<div class = centerbox><div class = img-container><img src = ""/static/experiments/dot_pattern_expectancy/images/probe6.png""</img></div></div>","89,71","500","AX","test","21","89","true",""
"-1","-1","poldrack-single-stim","237","446682","0.0-198.0","sub-11_ses-03_2","","500","0","cue","","<div class = centerbox><div class = img-container><img src = ""/static/experiments/dot_pattern_expectancy/images/cue4.png""</img></div></div>","none","500","AX","test","22","","",""
"-1","-1","poldrack-single-stim","238","448694","0.0-199.0","sub-11_ses-03_2","","2000","0","fixation","","<div class = centerbox><div class = fixation>+</div></div>","none","2000","","test","","","",""
"434","89","poldrack-single-stim","239","450211","0.0-200.0","sub-11_ses-03_2","","1500","0","probe","","<div class = centerbox><div class = img-container><img src = ""/static/experiments/dot_pattern_expectancy/images/probe6.png""</img></div></div>","89,71","500","AX","test","22","89","true",""
"-1","-1","poldrack-single-stim","240","450733","0.0-201.0","sub-11_ses-03_2","","500","0","cue","","<div class = centerbox><div class = img-container><img src = ""/static/experiments/dot_pattern_expectancy/images/cue4.png""</img></div></div>","none","500","AX","test","23","","",""
"-1","-1","poldrack-single-stim","241","452743","0.0-202.0","sub-11_ses-03_2","","2000","0","fixation","","<div class = centerbox><div class = fixation>+</div></div>","none","2000","","test","","","",""
"1036","89","poldrack-single-stim","242","454801","0.0-203.0","sub-11_ses-03_2","","2044","0","probe","","<div class = centerbox><div class = img-container><img src = ""/static/experiments/dot_pattern_expectancy/images/probe6.png""</img></div></div>","89,71","500","AX","test","23","89","true",""
"-1","-1","poldrack-single-stim","243","455321","0.0-204.0","sub-11_ses-03_2","","500","0","cue","","<div class = centerbox><div class = img-container><img src = ""/static/experiments/dot_pattern_expectancy/images/cue4.png""</img></div></div>","none","500","AX","test","24","","",""
"-1","-1","poldrack-single-stim","244","457333","0.0-205.0","sub-11_ses-03_2","","2000","0","fixation","","<div class = centerbox><div class = fixation>+</div></div>","none","2000","","test","","","",""
"789","89","poldrack-single-stim","245","460212","0.0-206.0","sub-11_ses-03_2","","2860","0","probe","","<div class = centerbox><div class = img-container><img src = ""/static/experiments/dot_pattern_expectancy/images/probe6.png""</img></div></div>","89,71","500","AX","test","24","89","true",""
"-1","-1","poldrack-single-stim","246","460732","0.0-207.0","sub-11_ses-03_2","","500","0","cue","","<div class = centerbox><div class = img-container><img src = ""/static/experiments/dot_pattern_expectancy/images/cue1.png""</img></div></div>","none","500","BX","test","25","","",""
"-1","-1","poldrack-single-stim","247","462751","0.0-208.0","sub-11_ses-03_2","","2000","0","fixation","","<div class = centerbox><div class = fixation>+</div></div>","none","2000","","test","","","",""
"747","71","poldrack-single-stim","248","464273","0.0-209.0","sub-11_ses-03_2","","1500","0","probe","","<div class = centerbox><div class = img-container><img src = ""/static/experiments/dot_pattern_expectancy/images/probe6.png""</img></div></div>","89,71","500","BX","test","25","71","true",""
"-1","-1","poldrack-single-stim","249","464783","0.0-210.0","sub-11_ses-03_2","","500","0","cue","","<div class = centerbox><div class = img-container><img src = ""/static/experiments/dot_pattern_expectancy/images/cue5.png""</img></div></div>","none","500","BY","test","26","","",""
"-1","-1","poldrack-single-stim","250","466803","0.0-211.0","sub-11_ses-03_2","","2000","0","fixation","","<div class = centerbox><div class = fixation>+</div></div>","none","2000","","test","","","",""
"446","71","poldrack-single-stim","251","468592","0.0-212.0","sub-11_ses-03_2","","1772","0","probe","","<div class = centerbox><div class = img-container><img src = ""/static/experiments/dot_pattern_expectancy/images/probe5.png""</img></div></div>","89,71","500","BY","test","26","71","true",""
"-1","-1","poldrack-single-stim","252","469113","0.0-213.0","sub-11_ses-03_2","","500","0","cue","","<div class = centerbox><div class = img-container><img src = ""/static/experiments/dot_pattern_expectancy/images/cue4.png""</img></div></div>","none","500","AX","test","27","","",""
"-1","-1","poldrack-single-stim","253","471123","0.0-214.0","sub-11_ses-03_2","","2000","0","fixation","","<div class = centerbox><div class = fixation>+</div></div>","none","2000","","test","","","",""
"759","89","poldrack-single-stim","254","472902","0.0-215.0","sub-11_ses-03_2","","1772","0","probe","","<div class = centerbox><div class = img-container><img src = ""/static/experiments/dot_pattern_expectancy/images/probe6.png""</img></div></div>","89,71","500","AX","test","27","89","true",""
"-1","-1","poldrack-single-stim","255","473422","0.0-216.0","sub-11_ses-03_2","","500","0","cue","","<div class = centerbox><div class = img-container><img src = ""/static/experiments/dot_pattern_expectancy/images/cue4.png""</img></div></div>","none","500","AX","test","28","","",""
"-1","-1","poldrack-single-stim","256","475442","0.0-217.0","sub-11_ses-03_2","","2000","0","fixation","","<div class = centerbox><div class = fixation>+</div></div>","none","2000","","test","","","",""
"563","89","poldrack-single-stim","257","478312","0.0-218.0","sub-11_ses-03_2","","2860","0","probe","","<div class = centerbox><div class = img-container><img src = ""/static/experiments/dot_pattern_expectancy/images/probe6.png""</img></div></div>","89,71","500","AX","test","28","89","true",""
"-1","-1","poldrack-single-stim","258","478833","0.0-219.0","sub-11_ses-03_2","","500","0","cue","","<div class = centerbox><div class = img-container><img src = ""/static/experiments/dot_pattern_expectancy/images/cue4.png""</img></div></div>","none","500","AX","test","29","","",""
"-1","-1","poldrack-single-stim","259","480852","0.0-220.0","sub-11_ses-03_2","","2000","0","fixation","","<div class = centerbox><div class = fixation>+</div></div>","none","2000","","test","","","",""
"682","89","poldrack-single-stim","260","482632","0.0-221.0","sub-11_ses-03_2","","1772","0","probe","","<div class = centerbox><div class = img-container><img src = ""/static/experiments/dot_pattern_expectancy/images/probe6.png""</img></div></div>","89,71","500","AX","test","29","89","true",""
"-1","-1","poldrack-single-stim","261","483153","0.0-222.0","sub-11_ses-03_2","","500","0","cue","","<div class = centerbox><div class = img-container><img src = ""/static/experiments/dot_pattern_expectancy/images/cue3.png""</img></div></div>","none","500","BX","test","30","","",""
"-1","-1","poldrack-single-stim","262","485173","0.0-223.0","sub-11_ses-03_2","","2000","0","fixation","","<div class = centerbox><div class = fixation>+</div></div>","none","2000","","test","","","",""
"722","89","poldrack-single-stim","263","486822","0.0-224.0","sub-11_ses-03_2","","1636","0","probe","","<div class = centerbox><div class = img-container><img src = ""/static/experiments/dot_pattern_expectancy/images/probe6.png""</img></div></div>","89,71","500","BX","test","30","71","false",""
"-1","-1","poldrack-single-stim","264","487342","0.0-225.0","sub-11_ses-03_2","","500","0","cue","","<div class = centerbox><div class = img-container><img src = ""/static/experiments/dot_pattern_expectancy/images/cue3.png""</img></div></div>","none","500","BX","test","31","","",""
"-1","-1","poldrack-single-stim","265","489362","0.0-226.0","sub-11_ses-03_2","","2000","0","fixation","","<div class = centerbox><div class = fixation>+</div></div>","none","2000","","test","","","",""
"701","89","poldrack-single-stim","266","491822","0.0-227.0","sub-11_ses-03_2","","2452","0","probe","","<div class = centerbox><div class = img-container><img src = ""/static/experiments/dot_pattern_expectancy/images/probe6.png""</img></div></div>","89,71","500","BX","test","31","71","false",""
"-1","-1","poldrack-single-stim","267","492344","0.0-228.0","sub-11_ses-03_2","","500","0","cue","","<div class = centerbox><div class = img-container><img src = ""/static/experiments/dot_pattern_expectancy/images/cue4.png""</img></div></div>","none","500","AX","test","32","","",""
"-1","-1","poldrack-single-stim","268","494362","0.0-229.0","sub-11_ses-03_2","","2000","0","fixation","","<div class = centerbox><div class = fixation>+</div></div>","none","2000","","test","","","",""
"628","89","poldrack-single-stim","269","496002","0.0-230.0","sub-11_ses-03_2","","1636","0","probe","","<div class = centerbox><div class = img-container><img src = ""/static/experiments/dot_pattern_expectancy/images/probe6.png""</img></div></div>","89,71","500","AX","test","32","89","true",""
"-1","-1","poldrack-single-stim","270","496521","0.0-231.0","sub-11_ses-03_2","","500","0","cue","","<div class = centerbox><div class = img-container><img src = ""/static/experiments/dot_pattern_expectancy/images/cue3.png""</img></div></div>","none","500","BX","test","33","","",""
"-1","-1","poldrack-single-stim","271","498531","0.0-232.0","sub-11_ses-03_2","","2000","0","fixation","","<div class = centerbox><div class = fixation>+</div></div>","none","2000","","test","","","",""
"830","89","poldrack-single-stim","272","500051","0.0-233.0","sub-11_ses-03_2","","1500","0","probe","","<div class = centerbox><div class = img-container><img src = ""/static/experiments/dot_pattern_expectancy/images/probe6.png""</img></div></div>","89,71","500","BX","test","33","71","false",""
"-1","-1","poldrack-single-stim","273","500572","0.0-234.0","sub-11_ses-03_2","","500","0","cue","","<div class = centerbox><div class = img-container><img src = ""/static/experiments/dot_pattern_expectancy/images/cue4.png""</img></div></div>","none","500","AX","test","34","","",""
"-1","-1","poldrack-single-stim","274","502592","0.0-235.0","sub-11_ses-03_2","","2000","0","fixation","","<div class = centerbox><div class = fixation>+</div></div>","none","2000","","test","","","",""
"479","89","poldrack-single-stim","275","504232","0.0-236.0","sub-11_ses-03_2","","1636","0","probe","","<div class = centerbox><div class = img-container><img src = ""/static/experiments/dot_pattern_expectancy/images/probe6.png""</img></div></div>","89,71","500","AX","test","34","89","true",""
"-1","-1","poldrack-single-stim","276","504753","0.0-237.0","sub-11_ses-03_2","","500","0","cue","","<div class = centerbox><div class = img-container><img src = ""/static/experiments/dot_pattern_expectancy/images/cue4.png""</img></div></div>","none","500","AX","test","35","","",""
"-1","-1","poldrack-single-stim","277","506773","0.0-238.0","sub-11_ses-03_2","","2000","0","fixation","","<div class = centerbox><div class = fixation>+</div></div>","none","2000","","test","","","",""
"707","89","poldrack-single-stim","278","508411","0.0-239.0","sub-11_ses-03_2","","1636","0","probe","","<div class = centerbox><div class = img-container><img src = ""/static/experiments/dot_pattern_expectancy/images/probe6.png""</img></div></div>","89,71","500","AX","test","35","89","true",""
"-1","-1","poldrack-single-stim","279","508932","0.0-240.0","sub-11_ses-03_2","","500","0","cue","","<div class = centerbox><div class = img-container><img src = ""/static/experiments/dot_pattern_expectancy/images/cue1.png""</img></div></div>","none","500","BY","test","36","","",""
"-1","-1","poldrack-single-stim","280","510954","0.0-241.0","sub-11_ses-03_2","","2000","0","fixation","","<div class = centerbox><div class = fixation>+</div></div>","none","2000","","test","","","",""
"849","71","poldrack-single-stim","281","513152","0.0-242.0","sub-11_ses-03_2","","2180","0","probe","","<div class = centerbox><div class = img-container><img src = ""/static/experiments/dot_pattern_expectancy/images/probe2.png""</img></div></div>","89,71","500","BY","test","36","71","true",""
"-1","-1","poldrack-single-stim","282","513673","0.0-243.0","sub-11_ses-03_2","","500","0","cue","","<div class = centerbox><div class = img-container><img src = ""/static/experiments/dot_pattern_expectancy/images/cue4.png""</img></div></div>","none","500","AX","test","37","","",""
"-1","-1","poldrack-single-stim","283","515682","0.0-244.0","sub-11_ses-03_2","","2000","0","fixation","","<div class = centerbox><div class = fixation>+</div></div>","none","2000","","test","","","",""
"522","89","poldrack-single-stim","284","517201","0.0-245.0","sub-11_ses-03_2","","1500","0","probe","","<div class = centerbox><div class = img-container><img src = ""/static/experiments/dot_pattern_expectancy/images/probe6.png""</img></div></div>","89,71","500","AX","test","37","89","true",""
"-1","-1","poldrack-single-stim","285","517725","0.0-246.0","sub-11_ses-03_2","","500","0","cue","","<div class = centerbox><div class = img-container><img src = ""/static/experiments/dot_pattern_expectancy/images/cue4.png""</img></div></div>","none","500","AY","test","38","","",""
"-1","-1","poldrack-single-stim","286","519742","0.0-247.0","sub-11_ses-03_2","","2000","0","fixation","","<div class = centerbox><div class = fixation>+</div></div>","none","2000","","test","","","",""
"781","71","poldrack-single-stim","287","521391","0.0-248.0","sub-11_ses-03_2","","1636","0","probe","","<div class = centerbox><div class = img-container><img src = ""/static/experiments/dot_pattern_expectancy/images/probe3.png""</img></div></div>","89,71","500","AY","test","38","71","true",""
"-1","-1","poldrack-single-stim","288","521913","0.0-249.0","sub-11_ses-03_2","","500","0","cue","","<div class = centerbox><div class = img-container><img src = ""/static/experiments/dot_pattern_expectancy/images/cue4.png""</img></div></div>","none","500","AX","test","39","","",""
"-1","-1","poldrack-single-stim","289","523933","0.0-250.0","sub-11_ses-03_2","","2000","0","fixation","","<div class = centerbox><div class = fixation>+</div></div>","none","2000","","test","","","",""
"596","89","poldrack-single-stim","290","525592","0.0-251.0","sub-11_ses-03_2","","1636","0","probe","","<div class = centerbox><div class = img-container><img src = ""/static/experiments/dot_pattern_expectancy/images/probe6.png""</img></div></div>","89,71","500","AX","test","39","89","true",""
"-1","-1","poldrack-single-stim","291","533113","0.0-252.0","sub-11_ses-03_2","","7500","1000","rest_block","","<div class = centerbox><div class = center-text>+</div></div>","none","7500","","","","","",""
"-1","-1","poldrack-single-stim","292","535651","0.0-253.0","sub-11_ses-03_2","","1500","500","test_start_block","","<div class = centerbox><div class = center-text>Preparez-vous!</p></div>","none","1500","","","","","",""
"-1","-1","poldrack-single-stim","293","536693","0.0-254.0","sub-11_ses-03_2","","500","0","cue","","<div class = centerbox><div class = img-container><img src = ""/static/experiments/dot_pattern_expectancy/images/cue4.png""</img></div></div>","none","500","AX","test","0","","",""
"-1","-1","poldrack-single-stim","294","538712","0.0-255.0","sub-11_ses-03_2","","2000","0","fixation","","<div class = centerbox><div class = fixation>+</div></div>","none","2000","","test","","","",""
"584","89","poldrack-single-stim","295","540915","0.0-256.0","sub-11_ses-03_2","","2180","0","probe","","<div class = centerbox><div class = img-container><img src = ""/static/experiments/dot_pattern_expectancy/images/probe6.png""</img></div></div>","89,71","500","AX","test","0","89","true",""
"-1","-1","poldrack-single-stim","296","541436","0.0-257.0","sub-11_ses-03_2","","500","0","cue","","<div class = centerbox><div class = img-container><img src = ""/static/experiments/dot_pattern_expectancy/images/cue4.png""</img></div></div>","none","500","AY","test","1","","",""
"-1","-1","poldrack-single-stim","297","543455","0.0-258.0","sub-11_ses-03_2","","2000","0","fixation","","<div class = centerbox><div class = fixation>+</div></div>","none","2000","","test","","","",""
"773","71","poldrack-single-stim","298","545791","0.0-259.0","sub-11_ses-03_2","","2316","0","probe","","<div class = centerbox><div class = img-container><img src = ""/static/experiments/dot_pattern_expectancy/images/probe5.png""</img></div></div>","89,71","500","AY","test","1","71","true",""
"-1","-1","poldrack-single-stim","299","546312","0.0-260.0","sub-11_ses-03_2","","500","0","cue","","<div class = centerbox><div class = img-container><img src = ""/static/experiments/dot_pattern_expectancy/images/cue4.png""</img></div></div>","none","500","AY","test","2","","",""
"-1","-1","poldrack-single-stim","300","548323","0.0-261.0","sub-11_ses-03_2","","2000","0","fixation","","<div class = centerbox><div class = fixation>+</div></div>","none","2000","","test","","","",""
"720","71","poldrack-single-stim","301","549972","0.0-262.0","sub-11_ses-03_2","","1636","0","probe","","<div class = centerbox><div class = img-container><img src = ""/static/experiments/dot_pattern_expectancy/images/probe5.png""</img></div></div>","89,71","500","AY","test","2","71","true",""
"-1","-1","poldrack-single-stim","302","550499","0.0-263.0","sub-11_ses-03_2","","500","0","cue","","<div class = centerbox><div class = img-container><img src = ""/static/experiments/dot_pattern_expectancy/images/cue6.png""</img></div></div>","none","500","BX","test","3","","",""
"-1","-1","poldrack-single-stim","303","552512","0.0-264.0","sub-11_ses-03_2","","2000","0","fixation","","<div class = centerbox><div class = fixation>+</div></div>","none","2000","","test","","","",""
"712","71","poldrack-single-stim","304","554432","0.0-265.0","sub-11_ses-03_2","","1908","0","probe","","<div class = centerbox><div class = img-container><img src = ""/static/experiments/dot_pattern_expectancy/images/probe6.png""</img></div></div>","89,71","500","BX","test","3","71","true",""
"-1","-1","poldrack-single-stim","305","554952","0.0-266.0","sub-11_ses-03_2","","500","0","cue","","<div class = centerbox><div class = img-container><img src = ""/static/experiments/dot_pattern_expectancy/images/cue4.png""</img></div></div>","none","500","AX","test","4","","",""
"-1","-1","poldrack-single-stim","306","556973","0.0-267.0","sub-11_ses-03_2","","2000","0","fixation","","<div class = centerbox><div class = fixation>+</div></div>","none","2000","","test","","","",""
"340","89","poldrack-single-stim","307","560532","0.0-268.0","sub-11_ses-03_2","","3540","0","probe","","<div class = centerbox><div class = img-container><img src = ""/static/experiments/dot_pattern_expectancy/images/probe6.png""</img></div></div>","89,71","500","AX","test","4","89","true",""
"-1","-1","poldrack-single-stim","308","561052","0.0-269.0","sub-11_ses-03_2","","500","0","cue","","<div class = centerbox><div class = img-container><img src = ""/static/experiments/dot_pattern_expectancy/images/cue6.png""</img></div></div>","none","500","BX","test","5","","",""
"-1","-1","poldrack-single-stim","309","563063","0.0-270.0","sub-11_ses-03_2","","2000","0","fixation","","<div class = centerbox><div class = fixation>+</div></div>","none","2000","","test","","","",""
"611","71","poldrack-single-stim","310","564702","0.0-271.0","sub-11_ses-03_2","","1636","0","probe","","<div class = centerbox><div class = img-container><img src = ""/static/experiments/dot_pattern_expectancy/images/probe6.png""</img></div></div>","89,71","500","BX","test","5","71","true",""
"-1","-1","poldrack-single-stim","311","565222","0.0-272.0","sub-11_ses-03_2","","500","0","cue","","<div class = centerbox><div class = img-container><img src = ""/static/experiments/dot_pattern_expectancy/images/cue5.png""</img></div></div>","none","500","BY","test","6","","",""
"-1","-1","poldrack-single-stim","312","567242","0.0-273.0","sub-11_ses-03_2","","2000","0","fixation","","<div class = centerbox><div class = fixation>+</div></div>","none","2000","","test","","","",""
"727","71","poldrack-single-stim","313","568752","0.0-274.0","sub-11_ses-03_2","","1500","0","probe","","<div class = centerbox><div class = img-container><img src = ""/static/experiments/dot_pattern_expectancy/images/probe4.png""</img></div></div>","89,71","500","BY","test","6","71","true",""
"-1","-1","poldrack-single-stim","314","569272","0.0-275.0","sub-11_ses-03_2","","500","0","cue","","<div class = centerbox><div class = img-container><img src = ""/static/experiments/dot_pattern_expectancy/images/cue4.png""</img></div></div>","none","500","AX","test","7","","",""
"-1","-1","poldrack-single-stim","315","571292","0.0-276.0","sub-11_ses-03_2","","2000","0","fixation","","<div class = centerbox><div class = fixation>+</div></div>","none","2000","","test","","","",""
"613","89","poldrack-single-stim","316","572802","0.0-277.0","sub-11_ses-03_2","","1500","0","probe","","<div class = centerbox><div class = img-container><img src = ""/static/experiments/dot_pattern_expectancy/images/probe6.png""</img></div></div>","89,71","500","AX","test","7","89","true",""
"-1","-1","poldrack-single-stim","317","573313","0.0-278.0","sub-11_ses-03_2","","500","0","cue","","<div class = centerbox><div class = img-container><img src = ""/static/experiments/dot_pattern_expectancy/images/cue4.png""</img></div></div>","none","500","AX","test","8","","",""
"-1","-1","poldrack-single-stim","318","575333","0.0-279.0","sub-11_ses-03_2","","2000","0","fixation","","<div class = centerbox><div class = fixation>+</div></div>","none","2000","","test","","","",""
"433","89","poldrack-single-stim","319","577122","0.0-280.0","sub-11_ses-03_2","","1772","0","probe","","<div class = centerbox><div class = img-container><img src = ""/static/experiments/dot_pattern_expectancy/images/probe6.png""</img></div></div>","89,71","500","AX","test","8","89","true",""
"-1","-1","poldrack-single-stim","320","577642","0.0-281.0","sub-11_ses-03_2","","500","0","cue","","<div class = centerbox><div class = img-container><img src = ""/static/experiments/dot_pattern_expectancy/images/cue6.png""</img></div></div>","none","500","BY","test","9","","",""
"-1","-1","poldrack-single-stim","321","579663","0.0-282.0","sub-11_ses-03_2","","2000","0","fixation","","<div class = centerbox><div class = fixation>+</div></div>","none","2000","","test","","","",""
"649","71","poldrack-single-stim","322","582132","0.0-283.0","sub-11_ses-03_2","","2452","0","probe","","<div class = centerbox><div class = img-container><img src = ""/static/experiments/dot_pattern_expectancy/images/probe4.png""</img></div></div>","89,71","500","BY","test","9","71","true",""
"-1","-1","poldrack-single-stim","323","582641","0.0-284.0","sub-11_ses-03_2","","500","0","cue","","<div class = centerbox><div class = img-container><img src = ""/static/experiments/dot_pattern_expectancy/images/cue4.png""</img></div></div>","none","500","AX","test","10","","",""
"-1","-1","poldrack-single-stim","324","584651","0.0-285.0","sub-11_ses-03_2","","2000","0","fixation","","<div class = centerbox><div class = fixation>+</div></div>","none","2000","","test","","","",""
"572","89","poldrack-single-stim","325","586571","0.0-286.0","sub-11_ses-03_2","","1908","0","probe","","<div class = centerbox><div class = img-container><img src = ""/static/experiments/dot_pattern_expectancy/images/probe6.png""</img></div></div>","89,71","500","AX","test","10","89","true",""
"-1","-1","poldrack-single-stim","326","587092","0.0-287.0","sub-11_ses-03_2","","500","0","cue","","<div class = centerbox><div class = img-container><img src = ""/static/experiments/dot_pattern_expectancy/images/cue1.png""</img></div></div>","none","500","BX","test","11","","",""
"-1","-1","poldrack-single-stim","327","589101","0.0-288.0","sub-11_ses-03_2","","2000","0","fixation","","<div class = centerbox><div class = fixation>+</div></div>","none","2000","","test","","","",""
"776","71","poldrack-single-stim","328","590742","0.0-289.0","sub-11_ses-03_2","","1636","0","probe","","<div class = centerbox><div class = img-container><img src = ""/static/experiments/dot_pattern_expectancy/images/probe6.png""</img></div></div>","89,71","500","BX","test","11","71","true",""
"-1","-1","poldrack-single-stim","329","591262","0.0-290.0","sub-11_ses-03_2","","500","0","cue","","<div class = centerbox><div class = img-container><img src = ""/static/experiments/dot_pattern_expectancy/images/cue4.png""</img></div></div>","none","500","AX","test","12","","",""
"-1","-1","poldrack-single-stim","330","593282","0.0-291.0","sub-11_ses-03_2","","2000","0","fixation","","<div class = centerbox><div class = fixation>+</div></div>","none","2000","","test","","","",""
"852","89","poldrack-single-stim","331","594801","0.0-292.0","sub-11_ses-03_2","","1500","0","probe","","<div class = centerbox><div class = img-container><img src = ""/static/experiments/dot_pattern_expectancy/images/probe6.png""</img></div></div>","89,71","500","AX","test","12","89","true",""
"-1","-1","poldrack-single-stim","332","595322","0.0-293.0","sub-11_ses-03_2","","500","0","cue","","<div class = centerbox><div class = img-container><img src = ""/static/experiments/dot_pattern_expectancy/images/cue4.png""</img></div></div>","none","500","AX","test","13","","",""
"-1","-1","poldrack-single-stim","333","597347","0.0-294.0","sub-11_ses-03_2","","2000","0","fixation","","<div class = centerbox><div class = fixation>+</div></div>","none","2000","","test","","","",""
"635","89","poldrack-single-stim","334","599003","0.0-295.0","sub-11_ses-03_2","","1636","0","probe","","<div class = centerbox><div class = img-container><img src = ""/static/experiments/dot_pattern_expectancy/images/probe6.png""</img></div></div>","89,71","500","AX","test","13","89","true",""
"-1","-1","poldrack-single-stim","335","599522","0.0-296.0","sub-11_ses-03_2","","500","0","cue","","<div class = centerbox><div class = img-container><img src = ""/static/experiments/dot_pattern_expectancy/images/cue4.png""</img></div></div>","none","500","AX","test","14","","",""
"-1","-1","poldrack-single-stim","336","601543","0.0-297.0","sub-11_ses-03_2","","2000","0","fixation","","<div class = centerbox><div class = fixation>+</div></div>","none","2000","","test","","","",""
"640","89","poldrack-single-stim","337","603201","0.0-298.0","sub-11_ses-03_2","","1636","0","probe","","<div class = centerbox><div class = img-container><img src = ""/static/experiments/dot_pattern_expectancy/images/probe6.png""</img></div></div>","89,71","500","AX","test","14","89","true",""
"-1","-1","poldrack-single-stim","338","603722","0.0-299.0","sub-11_ses-03_2","","500","0","cue","","<div class = centerbox><div class = img-container><img src = ""/static/experiments/dot_pattern_expectancy/images/cue2.png""</img></div></div>","none","500","BY","test","15","","",""
"-1","-1","poldrack-single-stim","339","605742","0.0-300.0","sub-11_ses-03_2","","2000","0","fixation","","<div class = centerbox><div class = fixation>+</div></div>","none","2000","","test","","","",""
"603","71","poldrack-single-stim","340","608211","0.0-301.0","sub-11_ses-03_2","","2452","0","probe","","<div class = centerbox><div class = img-container><img src = ""/static/experiments/dot_pattern_expectancy/images/probe3.png""</img></div></div>","89,71","500","BY","test","15","71","true",""
"-1","-1","poldrack-single-stim","341","608732","0.0-302.0","sub-11_ses-03_2","","500","0","cue","","<div class = centerbox><div class = img-container><img src = ""/static/experiments/dot_pattern_expectancy/images/cue4.png""</img></div></div>","none","500","AX","test","16","","",""
"-1","-1","poldrack-single-stim","342","610754","0.0-303.0","sub-11_ses-03_2","","2000","0","fixation","","<div class = centerbox><div class = fixation>+</div></div>","none","2000","","test","","","",""
"498","89","poldrack-single-stim","343","612272","0.0-304.0","sub-11_ses-03_2","","1500","0","probe","","<div class = centerbox><div class = img-container><img src = ""/static/experiments/dot_pattern_expectancy/images/probe6.png""</img></div></div>","89,71","500","AX","test","16","89","true",""
"-1","-1","poldrack-single-stim","344","612792","0.0-305.0","sub-11_ses-03_2","","500","0","cue","","<div class = centerbox><div class = img-container><img src = ""/static/experiments/dot_pattern_expectancy/images/cue6.png""</img></div></div>","none","500","BY","test","17","","",""
"-1","-1","poldrack-single-stim","345","614812","0.0-306.0","sub-11_ses-03_2","","2000","0","fixation","","<div class = centerbox><div class = fixation>+</div></div>","none","2000","","test","","","",""
"504","71","poldrack-single-stim","346","616332","0.0-307.0","sub-11_ses-03_2","","1500","0","probe","","<div class = centerbox><div class = img-container><img src = ""/static/experiments/dot_pattern_expectancy/images/probe5.png""</img></div></div>","89,71","500","BY","test","17","71","true",""
"-1","-1","poldrack-single-stim","347","616851","0.0-308.0","sub-11_ses-03_2","","500","0","cue","","<div class = centerbox><div class = img-container><img src = ""/static/experiments/dot_pattern_expectancy/images/cue4.png""</img></div></div>","none","500","AX","test","18","","",""
"-1","-1","poldrack-single-stim","348","618862","0.0-309.0","sub-11_ses-03_2","","2000","0","fixation","","<div class = centerbox><div class = fixation>+</div></div>","none","2000","","test","","","",""
"462","89","poldrack-single-stim","349","620511","0.0-310.0","sub-11_ses-03_2","","1636","0","probe","","<div class = centerbox><div class = img-container><img src = ""/static/experiments/dot_pattern_expectancy/images/probe6.png""</img></div></div>","89,71","500","AX","test","18","89","true",""
"-1","-1","poldrack-single-stim","350","621032","0.0-311.0","sub-11_ses-03_2","","500","0","cue","","<div class = centerbox><div class = img-container><img src = ""/static/experiments/dot_pattern_expectancy/images/cue4.png""</img></div></div>","none","500","AX","test","19","","",""
"-1","-1","poldrack-single-stim","351","623052","0.0-312.0","sub-11_ses-03_2","","2000","0","fixation","","<div class = centerbox><div class = fixation>+</div></div>","none","2000","","test","","","",""
"787","89","poldrack-single-stim","352","624701","0.0-313.0","sub-11_ses-03_2","","1636","0","probe","","<div class = centerbox><div class = img-container><img src = ""/static/experiments/dot_pattern_expectancy/images/probe6.png""</img></div></div>","89,71","500","AX","test","19","89","true",""
"-1","-1","poldrack-single-stim","353","625223","0.0-314.0","sub-11_ses-03_2","","500","0","cue","","<div class = centerbox><div class = img-container><img src = ""/static/experiments/dot_pattern_expectancy/images/cue4.png""</img></div></div>","none","500","AY","test","20","","",""
"-1","-1","poldrack-single-stim","354","627242","0.0-315.0","sub-11_ses-03_2","","2000","0","fixation","","<div class = centerbox><div class = fixation>+</div></div>","none","2000","","test","","","",""
"691","71","poldrack-single-stim","355","628881","0.0-316.0","sub-11_ses-03_2","","1636","0","probe","","<div class = centerbox><div class = img-container><img src = ""/static/experiments/dot_pattern_expectancy/images/probe4.png""</img></div></div>","89,71","500","AY","test","20","71","true",""
"-1","-1","poldrack-single-stim","356","629402","0.0-317.0","sub-11_ses-03_2","","500","0","cue","","<div class = centerbox><div class = img-container><img src = ""/static/experiments/dot_pattern_expectancy/images/cue4.png""</img></div></div>","none","500","AX","test","21","","",""
"-1","-1","poldrack-single-stim","357","631413","0.0-318.0","sub-11_ses-03_2","","2000","0","fixation","","<div class = centerbox><div class = fixation>+</div></div>","none","2000","","test","","","",""
"620","89","poldrack-single-stim","358","632931","0.0-319.0","sub-11_ses-03_2","","1500","0","probe","","<div class = centerbox><div class = img-container><img src = ""/static/experiments/dot_pattern_expectancy/images/probe6.png""</img></div></div>","89,71","500","AX","test","21","89","true",""
"-1","-1","poldrack-single-stim","359","633453","0.0-320.0","sub-11_ses-03_2","","500","0","cue","","<div class = centerbox><div class = img-container><img src = ""/static/experiments/dot_pattern_expectancy/images/cue4.png""</img></div></div>","none","500","AX","test","22","","",""
"-1","-1","poldrack-single-stim","360","635473","0.0-321.0","sub-11_ses-03_2","","2000","0","fixation","","<div class = centerbox><div class = fixation>+</div></div>","none","2000","","test","","","",""
"700","89","poldrack-single-stim","361","636991","0.0-322.0","sub-11_ses-03_2","","1500","0","probe","","<div class = centerbox><div class = img-container><img src = ""/static/experiments/dot_pattern_expectancy/images/probe6.png""</img></div></div>","89,71","500","AX","test","22","89","true",""
"-1","-1","poldrack-single-stim","362","637513","0.0-323.0","sub-11_ses-03_2","","500","0","cue","","<div class = centerbox><div class = img-container><img src = ""/static/experiments/dot_pattern_expectancy/images/cue4.png""</img></div></div>","none","500","AX","test","23","","",""
"-1","-1","poldrack-single-stim","363","639522","0.0-324.0","sub-11_ses-03_2","","2000","0","fixation","","<div class = centerbox><div class = fixation>+</div></div>","none","2000","","test","","","",""
"578","89","poldrack-single-stim","364","641312","0.0-325.0","sub-11_ses-03_2","","1772","0","probe","","<div class = centerbox><div class = img-container><img src = ""/static/experiments/dot_pattern_expectancy/images/probe6.png""</img></div></div>","89,71","500","AX","test","23","89","true",""
"-1","-1","poldrack-single-stim","365","641833","0.0-326.0","sub-11_ses-03_2","","500","0","cue","","<div class = centerbox><div class = img-container><img src = ""/static/experiments/dot_pattern_expectancy/images/cue4.png""</img></div></div>","none","500","AX","test","24","","",""
"-1","-1","poldrack-single-stim","366","643843","0.0-327.0","sub-11_ses-03_2","","2000","0","fixation","","<div class = centerbox><div class = fixation>+</div></div>","none","2000","","test","","","",""
"662","89","poldrack-single-stim","367","646041","0.0-328.0","sub-11_ses-03_2","","2180","0","probe","","<div class = centerbox><div class = img-container><img src = ""/static/experiments/dot_pattern_expectancy/images/probe6.png""</img></div></div>","89,71","500","AX","test","24","89","true",""
"-1","-1","poldrack-single-stim","368","646562","0.0-329.0","sub-11_ses-03_2","","500","0","cue","","<div class = centerbox><div class = img-container><img src = ""/static/experiments/dot_pattern_expectancy/images/cue5.png""</img></div></div>","none","500","BX","test","25","","",""
"-1","-1","poldrack-single-stim","369","648581","0.0-330.0","sub-11_ses-03_2","","2000","0","fixation","","<div class = centerbox><div class = fixation>+</div></div>","none","2000","","test","","","",""
"487","71","poldrack-single-stim","370","650362","0.0-331.0","sub-11_ses-03_2","","1772","0","probe","","<div class = centerbox><div class = img-container><img src = ""/static/experiments/dot_pattern_expectancy/images/probe6.png""</img></div></div>","89,71","500","BX","test","25","71","true",""
"-1","-1","poldrack-single-stim","371","650882","0.0-332.0","sub-11_ses-03_2","","500","0","cue","","<div class = centerbox><div class = img-container><img src = ""/static/experiments/dot_pattern_expectancy/images/cue5.png""</img></div></div>","none","500","BY","test","26","","",""
"-1","-1","poldrack-single-stim","372","652893","0.0-333.0","sub-11_ses-03_2","","2000","0","fixation","","<div class = centerbox><div class = fixation>+</div></div>","none","2000","","test","","","",""
"554","71","poldrack-single-stim","373","654412","0.0-334.0","sub-11_ses-03_2","","1500","0","probe","","<div class = centerbox><div class = img-container><img src = ""/static/experiments/dot_pattern_expectancy/images/probe5.png""</img></div></div>","89,71","500","BY","test","26","71","true",""
"-1","-1","poldrack-single-stim","374","654933","0.0-335.0","sub-11_ses-03_2","","500","0","cue","","<div class = centerbox><div class = img-container><img src = ""/static/experiments/dot_pattern_expectancy/images/cue4.png""</img></div></div>","none","500","AX","test","27","","",""
"-1","-1","poldrack-single-stim","375","656952","0.0-336.0","sub-11_ses-03_2","","2000","0","fixation","","<div class = centerbox><div class = fixation>+</div></div>","none","2000","","test","","","",""
"-1","-1","poldrack-single-stim","376","658472","0.0-337.0","sub-11_ses-03_2","","1500","0","probe","","<div class = centerbox><div class = img-container><img src = ""/static/experiments/dot_pattern_expectancy/images/probe6.png""</img></div></div>","89,71","500","AX","test","27","89","false",""
"-1","-1","poldrack-single-stim","377","658992","0.0-338.0","sub-11_ses-03_2","","500","0","cue","","<div class = centerbox><div class = img-container><img src = ""/static/experiments/dot_pattern_expectancy/images/cue4.png""</img></div></div>","none","500","AX","test","28","","",""
"-1","-1","poldrack-single-stim","378","661013","0.0-339.0","sub-11_ses-03_2","","2000","0","fixation","","<div class = centerbox><div class = fixation>+</div></div>","none","2000","","test","","","",""
"794","89","poldrack-single-stim","379","662672","0.0-340.0","sub-11_ses-03_2","","1636","0","probe","","<div class = centerbox><div class = img-container><img src = ""/static/experiments/dot_pattern_expectancy/images/probe6.png""</img></div></div>","89,71","500","AX","test","28","89","true",""
"-1","-1","poldrack-single-stim","380","663193","0.0-341.0","sub-11_ses-03_2","","500","0","cue","","<div class = centerbox><div class = img-container><img src = ""/static/experiments/dot_pattern_expectancy/images/cue4.png""</img></div></div>","none","500","AY","test","29","","",""
"-1","-1","poldrack-single-stim","381","665212","0.0-342.0","sub-11_ses-03_2","","2000","0","fixation","","<div class = centerbox><div class = fixation>+</div></div>","none","2000","","test","","","",""
"635","71","poldrack-single-stim","382","667401","0.0-343.0","sub-11_ses-03_2","","2180","0","probe","","<div class = centerbox><div class = img-container><img src = ""/static/experiments/dot_pattern_expectancy/images/probe1.png""</img></div></div>","89,71","500","AY","test","29","71","true",""
"-1","-1","poldrack-single-stim","383","667921","0.0-344.0","sub-11_ses-03_2","","500","0","cue","","<div class = centerbox><div class = img-container><img src = ""/static/experiments/dot_pattern_expectancy/images/cue4.png""</img></div></div>","none","500","AY","test","30","","",""
"-1","-1","poldrack-single-stim","384","669931","0.0-345.0","sub-11_ses-03_2","","2000","0","fixation","","<div class = centerbox><div class = fixation>+</div></div>","none","2000","","test","","","",""
