"rt","key_press","trial_type","trial_index","time_elapsed","internal_node_id","subject","text","block_duration","timing_post_trial","trial_id","stimulus","possible_responses","stim_duration","exp_stage","small_amount","large_amount","later_delay","choice","exp_id","bonus"
"5640","13","text","0","5644","0.0-0.0","sub-06_ses-02_2","","","","","","","","","","","","","",""
"795","89","poldrack-text","1","7459","0.0-1.0","sub-06_ses-02_2","<div class = centerbox><div style = 'font-size: 50px' class = center-text>Veuillez appuyer avec votre index</p></div>","795","500","fmri_response_test","","","","","","","","","",""
"356","71","poldrack-text","2","8337","0.0-2.0","sub-06_ses-02_2","<div class = centerbox><div style = 'font-size: 50px' class = center-text>Veuillez appuyer avec votre majeur</p></div>","356","500","fmri_response_test","","","","","","","","","",""
"4401","32","poldrack-single-stim","3","13265","0.0-3.0","sub-06_ses-02_2","","4401","500","instructions","<div class = centerbox><div class = center-text><font size=""+3"">Choisissez entre <strong>20€ aujourd'hui</strong> ou l'option presentee.<br><strong>Index:</strong> Accepter l'option a l'ecran (rejeter 20€ aujourd'hui). <br><strong>Majeur:</strong> Rejeter l'option a l'ecran (accept 20€ today)<br>Nous commencerons par un essai d'entrainement.</font></div></div>","32","4401","","","","","","",""
"1150","89","poldrack-single-stim","4","14928","0.0-4.0","sub-06_ses-02_2","","1150","1000","stim","<div class = dd-stim><div class = amtbox style = ""color:white"">53.75€</div><br><br><div class = delbox style = ""color:white"">34 days</div></div>","89,71","1150","practice","","","","","",""
"806","32","poldrack-text","5","16755","0.0-5.0","sub-06_ses-02_2","<div class = centerbox><div  class = center-text>Scanner Setup</div></div>","806","0","fmri_scanner_wait","","","","","","","","","",""
"58857","84","poldrack-text","6","75614","0.0-6.0","sub-06_ses-02_2","<div class = centerbox><div style='color:red'; class = center-text>+</div></div>","58857","0","fmri_trigger_wait","","","","","","","","","",""
"-1","-1","poldrack-single-stim","7","76631","0.0-7.0","sub-06_ses-02_2","","1000","0","fmri_buffer","","none","1000","","","","","","",""
"-1","-1","poldrack-single-stim","8","78140","0.0-8.0","sub-06_ses-02_2","","1500","500","test_start_block","<div class = centerbox><div class = center-text>Preparez-vous!</p></div>","none","1500","","","","","","",""
"1662","71","poldrack-single-stim","9","83979","0.0-9.0","sub-06_ses-02_2","","5316","0","","<div class = dd-stim><div class = amtbox style = ""color:white"">31€</div><br><br><div class = delbox style = ""color:white"">76 jours</div></div>","89,71","4000","","20","31","76","smaller_sooner","",""
"1433","89","poldrack-single-stim","10","88558","0.0-10.0","sub-06_ses-02_2","","4568","0","","<div class = dd-stim><div class = amtbox style = ""color:white"">43€</div><br><br><div class = delbox style = ""color:white"">19 jours</div></div>","89,71","4000","","20","43","19","larger_later","",""
"1789","71","poldrack-single-stim","11","93217","0.0-11.0","sub-06_ses-02_2","","4636","0","","<div class = dd-stim><div class = amtbox style = ""color:white"">60€</div><br><br><div class = delbox style = ""color:white"">124 jours</div></div>","89,71","4000","","20","60","124","smaller_sooner","",""
"916","71","poldrack-single-stim","12","98137","0.0-12.0","sub-06_ses-02_2","","4908","0","","<div class = dd-stim><div class = amtbox style = ""color:white"">27€</div><br><br><div class = delbox style = ""color:white"">142 jours</div></div>","89,71","4000","","20","27","142","smaller_sooner","",""
"2369","89","poldrack-single-stim","13","102647","0.0-13.0","sub-06_ses-02_2","","4500","0","","<div class = dd-stim><div class = amtbox style = ""color:white"">25€</div><br><br><div class = delbox style = ""color:white"">70 jours</div></div>","89,71","4000","","20","25","70","larger_later","",""
"1114","89","poldrack-single-stim","14","107626","0.0-14.0","sub-06_ses-02_2","","4976","0","","<div class = dd-stim><div class = amtbox style = ""color:white"">44€</div><br><br><div class = delbox style = ""color:white"">92 jours</div></div>","89,71","4000","","20","44","92","larger_later","",""
"1325","89","poldrack-single-stim","15","112547","0.0-15.0","sub-06_ses-02_2","","4908","0","","<div class = dd-stim><div class = amtbox style = ""color:white"">41€</div><br><br><div class = delbox style = ""color:white"">27 jours</div></div>","89,71","4000","","20","41","27","larger_later","",""
"1311","89","poldrack-single-stim","16","117127","0.0-16.0","sub-06_ses-02_2","","4568","0","","<div class = dd-stim><div class = amtbox style = ""color:white"">64€</div><br><br><div class = delbox style = ""color:white"">89 jours</div></div>","89,71","4000","","20","64","89","larger_later","",""
"1396","89","poldrack-single-stim","17","121638","0.0-17.0","sub-06_ses-02_2","","4500","0","","<div class = dd-stim><div class = amtbox style = ""color:white"">78€</div><br><br><div class = delbox style = ""color:white"">108 jours</div></div>","89,71","4000","","20","78","108","larger_later","",""
"1205","71","poldrack-single-stim","18","127858","0.0-18.0","sub-06_ses-02_2","","6200","0","","<div class = dd-stim><div class = amtbox style = ""color:white"">80€</div><br><br><div class = delbox style = ""color:white"">145 jours</div></div>","89,71","4000","","20","80","145","smaller_sooner","",""
"1343","71","poldrack-single-stim","19","132577","0.0-19.0","sub-06_ses-02_2","","4704","0","","<div class = dd-stim><div class = amtbox style = ""color:white"">41€</div><br><br><div class = delbox style = ""color:white"">174 jours</div></div>","89,71","4000","","20","41","174","smaller_sooner","",""
"1548","71","poldrack-single-stim","20","137639","0.0-20.0","sub-06_ses-02_2","","5044","0","","<div class = dd-stim><div class = amtbox style = ""color:white"">42€</div><br><br><div class = delbox style = ""color:white"">145 jours</div></div>","89,71","4000","","20","42","145","smaller_sooner","",""
"2154","89","poldrack-single-stim","21","142697","0.0-21.0","sub-06_ses-02_2","","5044","0","","<div class = dd-stim><div class = amtbox style = ""color:white"">36€</div><br><br><div class = delbox style = ""color:white"">114 jours</div></div>","89,71","4000","","20","36","114","larger_later","",""
"1240","89","poldrack-single-stim","22","147898","0.0-22.0","sub-06_ses-02_2","","5180","0","","<div class = dd-stim><div class = amtbox style = ""color:white"">58€</div><br><br><div class = delbox style = ""color:white"">55 jours</div></div>","89,71","4000","","20","58","55","larger_later","",""
"1105","89","poldrack-single-stim","23","152886","0.0-23.0","sub-06_ses-02_2","","4976","0","","<div class = dd-stim><div class = amtbox style = ""color:white"">81€</div><br><br><div class = delbox style = ""color:white"">58 jours</div></div>","89,71","4000","","20","81","58","larger_later","",""
"1206","71","poldrack-single-stim","24","157667","0.0-24.0","sub-06_ses-02_2","","4772","0","","<div class = dd-stim><div class = amtbox style = ""color:white"">32€</div><br><br><div class = delbox style = ""color:white"">111 jours</div></div>","89,71","4000","","20","32","111","smaller_sooner","",""
"1308","71","poldrack-single-stim","25","162447","0.0-25.0","sub-06_ses-02_2","","4772","0","","<div class = dd-stim><div class = amtbox style = ""color:white"">25€</div><br><br><div class = delbox style = ""color:white"">141 jours</div></div>","89,71","4000","","20","25","141","smaller_sooner","",""
"1222","89","poldrack-single-stim","26","167647","0.0-26.0","sub-06_ses-02_2","","5180","0","","<div class = dd-stim><div class = amtbox style = ""color:white"">67€</div><br><br><div class = delbox style = ""color:white"">23 jours</div></div>","89,71","4000","","20","67","23","larger_later","",""
"1385","71","poldrack-single-stim","27","172848","0.0-27.0","sub-06_ses-02_2","","5180","0","","<div class = dd-stim><div class = amtbox style = ""color:white"">77€</div><br><br><div class = delbox style = ""color:white"">161 jours</div></div>","89,71","4000","","20","77","161","smaller_sooner","",""
"1392","71","poldrack-single-stim","28","178107","0.0-28.0","sub-06_ses-02_2","","5248","0","","<div class = dd-stim><div class = amtbox style = ""color:white"">55€</div><br><br><div class = delbox style = ""color:white"">163 jours</div></div>","89,71","4000","","20","55","163","smaller_sooner","",""
"1454","71","poldrack-single-stim","29","182699","0.0-29.0","sub-06_ses-02_2","","4568","0","","<div class = dd-stim><div class = amtbox style = ""color:white"">40€</div><br><br><div class = delbox style = ""color:white"">159 jours</div></div>","89,71","4000","","20","40","159","smaller_sooner","",""
"1680","71","poldrack-single-stim","30","187207","0.0-30.0","sub-06_ses-02_2","","4500","0","","<div class = dd-stim><div class = amtbox style = ""color:white"">76€</div><br><br><div class = delbox style = ""color:white"">161 jours</div></div>","89,71","4000","","20","76","161","smaller_sooner","",""
"2000","71","poldrack-single-stim","31","192126","0.0-31.0","sub-06_ses-02_2","","4908","0","","<div class = dd-stim><div class = amtbox style = ""color:white"">48€</div><br><br><div class = delbox style = ""color:white"">128 jours</div></div>","89,71","4000","","20","48","128","smaller_sooner","",""
"931","89","poldrack-single-stim","32","196717","0.0-32.0","sub-06_ses-02_2","","4568","0","","<div class = dd-stim><div class = amtbox style = ""color:white"">39€</div><br><br><div class = delbox style = ""color:white"">95 jours</div></div>","89,71","4000","","20","39","95","larger_later","",""
"2269","71","poldrack-single-stim","33","202928","0.0-33.0","sub-06_ses-02_2","","6200","0","","<div class = dd-stim><div class = amtbox style = ""color:white"">83€</div><br><br><div class = delbox style = ""color:white"">105 jours</div></div>","89,71","4000","","20","83","105","smaller_sooner","",""
"1847","89","poldrack-single-stim","34","207847","0.0-34.0","sub-06_ses-02_2","","4908","0","","<div class = dd-stim><div class = amtbox style = ""color:white"">67€</div><br><br><div class = delbox style = ""color:white"">41 jours</div></div>","89,71","4000","","20","67","41","larger_later","",""
"1184","71","poldrack-single-stim","35","213117","0.0-35.0","sub-06_ses-02_2","","5248","0","","<div class = dd-stim><div class = amtbox style = ""color:white"">56€</div><br><br><div class = delbox style = ""color:white"">172 jours</div></div>","89,71","4000","","20","56","172","smaller_sooner","",""
"1966","71","poldrack-single-stim","36","218178","0.0-36.0","sub-06_ses-02_2","","5044","0","","<div class = dd-stim><div class = amtbox style = ""color:white"">28€</div><br><br><div class = delbox style = ""color:white"">123 jours</div></div>","89,71","4000","","20","28","123","smaller_sooner","",""
"1591","71","poldrack-single-stim","37","222828","0.0-37.0","sub-06_ses-02_2","","4636","0","","<div class = dd-stim><div class = amtbox style = ""color:white"">50€</div><br><br><div class = delbox style = ""color:white"">129 jours</div></div>","89,71","4000","","20","50","129","smaller_sooner","",""
"2594","71","poldrack-single-stim","38","227538","0.0-38.0","sub-06_ses-02_2","","4704","0","","<div class = dd-stim><div class = amtbox style = ""color:white"">23€</div><br><br><div class = delbox style = ""color:white"">61 jours</div></div>","89,71","4000","","20","23","61","smaller_sooner","",""
"1294","89","poldrack-single-stim","39","232198","0.0-39.0","sub-06_ses-02_2","","4636","0","","<div class = dd-stim><div class = amtbox style = ""color:white"">79€</div><br><br><div class = delbox style = ""color:white"">92 jours</div></div>","89,71","4000","","20","79","92","larger_later","",""
"1378","71","poldrack-single-stim","40","236777","0.0-40.0","sub-06_ses-02_2","","4568","0","","<div class = dd-stim><div class = amtbox style = ""color:white"">61€</div><br><br><div class = delbox style = ""color:white"">141 jours</div></div>","89,71","4000","","20","61","141","smaller_sooner","",""
"2198","89","poldrack-single-stim","41","241357","0.0-41.0","sub-06_ses-02_2","","4568","0","","<div class = dd-stim><div class = amtbox style = ""color:white"">43€</div><br><br><div class = delbox style = ""color:white"">38 jours</div></div>","89,71","4000","","20","43","38","larger_later","",""
"1376","71","poldrack-single-stim","42","246277","0.0-42.0","sub-06_ses-02_2","","4908","0","","<div class = dd-stim><div class = amtbox style = ""color:white"">66€</div><br><br><div class = delbox style = ""color:white"">145 jours</div></div>","89,71","4000","","20","66","145","smaller_sooner","",""
"1519","89","poldrack-single-stim","43","251138","0.0-43.0","sub-06_ses-02_2","","4840","0","","<div class = dd-stim><div class = amtbox style = ""color:white"">30€</div><br><br><div class = delbox style = ""color:white"">23 jours</div></div>","89,71","4000","","20","30","23","larger_later","",""
"2000","89","poldrack-single-stim","44","256408","0.0-44.0","sub-06_ses-02_2","","5248","0","","<div class = dd-stim><div class = amtbox style = ""color:white"">32€</div><br><br><div class = delbox style = ""color:white"">57 jours</div></div>","89,71","4000","","20","32","57","larger_later","",""
"2717","71","poldrack-single-stim","45","261186","0.0-45.0","sub-06_ses-02_2","","4772","0","","<div class = dd-stim><div class = amtbox style = ""color:white"">27€</div><br><br><div class = delbox style = ""color:white"">91 jours</div></div>","89,71","4000","","20","27","91","smaller_sooner","",""
"1284","71","poldrack-single-stim","46","267197","0.0-46.0","sub-06_ses-02_2","","5996","0","","<div class = dd-stim><div class = amtbox style = ""color:white"">43€</div><br><br><div class = delbox style = ""color:white"">120 jours</div></div>","89,71","4000","","20","43","120","smaller_sooner","",""
"1138","89","poldrack-single-stim","47","272797","0.0-47.0","sub-06_ses-02_2","","5588","0","","<div class = dd-stim><div class = amtbox style = ""color:white"">75€</div><br><br><div class = delbox style = ""color:white"">60 jours</div></div>","89,71","4000","","20","75","60","larger_later","",""
"1773","71","poldrack-single-stim","48","277378","0.0-48.0","sub-06_ses-02_2","","4568","0","","<div class = dd-stim><div class = amtbox style = ""color:white"">34€</div><br><br><div class = delbox style = ""color:white"">176 jours</div></div>","89,71","4000","","20","34","176","smaller_sooner","",""
"3002","71","poldrack-single-stim","49","282498","0.0-49.0","sub-06_ses-02_2","","5112","0","","<div class = dd-stim><div class = amtbox style = ""color:white"">24€</div><br><br><div class = delbox style = ""color:white"">38 jours</div></div>","89,71","4000","","20","24","38","smaller_sooner","",""
"2476","89","poldrack-single-stim","50","288156","0.0-50.0","sub-06_ses-02_2","","5656","0","","<div class = dd-stim><div class = amtbox style = ""color:white"">82€</div><br><br><div class = delbox style = ""color:white"">74 jours</div></div>","89,71","4000","","20","82","74","larger_later","",""
"1806","89","poldrack-single-stim","51","292738","0.0-51.0","sub-06_ses-02_2","","4568","0","","<div class = dd-stim><div class = amtbox style = ""color:white"">58€</div><br><br><div class = delbox style = ""color:white"">53 jours</div></div>","89,71","4000","","20","58","53","larger_later","",""
"1310","89","poldrack-single-stim","52","297526","0.0-52.0","sub-06_ses-02_2","","4772","0","","<div class = dd-stim><div class = amtbox style = ""color:white"">54€</div><br><br><div class = delbox style = ""color:white"">23 jours</div></div>","89,71","4000","","20","54","23","larger_later","",""
"1827","89","poldrack-single-stim","53","302587","0.0-53.0","sub-06_ses-02_2","","5044","0","","<div class = dd-stim><div class = amtbox style = ""color:white"">41€</div><br><br><div class = delbox style = ""color:white"">55 jours</div></div>","89,71","4000","","20","41","55","larger_later","",""
"2327","71","poldrack-single-stim","54","307437","0.0-54.0","sub-06_ses-02_2","","4840","0","","<div class = dd-stim><div class = amtbox style = ""color:white"">77€</div><br><br><div class = delbox style = ""color:white"">142 jours</div></div>","89,71","4000","","20","77","142","smaller_sooner","",""
"1372","71","poldrack-single-stim","55","312638","0.0-55.0","sub-06_ses-02_2","","5180","0","","<div class = dd-stim><div class = amtbox style = ""color:white"">25€</div><br><br><div class = delbox style = ""color:white"">108 jours</div></div>","89,71","4000","","20","25","108","smaller_sooner","",""
"1237","71","poldrack-single-stim","56","317686","0.0-56.0","sub-06_ses-02_2","","5044","0","","<div class = dd-stim><div class = amtbox style = ""color:white"">33€</div><br><br><div class = delbox style = ""color:white"">163 jours</div></div>","89,71","4000","","20","33","163","smaller_sooner","",""
"2264","71","poldrack-single-stim","57","322666","0.0-57.0","sub-06_ses-02_2","","4976","0","","<div class = dd-stim><div class = amtbox style = ""color:white"">29€</div><br><br><div class = delbox style = ""color:white"">75 jours</div></div>","89,71","4000","","20","29","75","smaller_sooner","",""
"1730","71","poldrack-single-stim","58","327657","0.0-58.0","sub-06_ses-02_2","","4976","0","","<div class = dd-stim><div class = amtbox style = ""color:white"">45€</div><br><br><div class = delbox style = ""color:white"">157 jours</div></div>","89,71","4000","","20","45","157","smaller_sooner","",""
"3560","89","poldrack-single-stim","59","332987","0.0-59.0","sub-06_ses-02_2","","5316","0","","<div class = dd-stim><div class = amtbox style = ""color:white"">31€</div><br><br><div class = delbox style = ""color:white"">74 jours</div></div>","89,71","4000","","20","31","74","larger_later","",""
"1037","89","poldrack-single-stim","60","337507","0.0-60.0","sub-06_ses-02_2","","4500","0","","<div class = dd-stim><div class = amtbox style = ""color:white"">80€</div><br><br><div class = delbox style = ""color:white"">39 jours</div></div>","89,71","4000","","20","80","39","larger_later","",""
"1981","71","poldrack-single-stim","61","342557","0.0-61.0","sub-06_ses-02_2","","5044","0","","<div class = dd-stim><div class = amtbox style = ""color:white"">22€</div><br><br><div class = delbox style = ""color:white"">21 jours</div></div>","89,71","4000","","20","22","21","smaller_sooner","",""
"2345","71","poldrack-single-stim","62","347268","0.0-62.0","sub-06_ses-02_2","","4704","0","","<div class = dd-stim><div class = amtbox style = ""color:white"">52€</div><br><br><div class = delbox style = ""color:white"">139 jours</div></div>","89,71","4000","","20","52","139","smaller_sooner","",""
"1767","71","poldrack-single-stim","63","352127","0.0-63.0","sub-06_ses-02_2","","4840","0","","<div class = dd-stim><div class = amtbox style = ""color:white"">54€</div><br><br><div class = delbox style = ""color:white"">126 jours</div></div>","89,71","4000","","20","54","126","smaller_sooner","",""
"1916","71","poldrack-single-stim","64","358927","0.0-64.0","sub-06_ses-02_2","","6744","0","","<div class = dd-stim><div class = amtbox style = ""color:white"">23€</div><br><br><div class = delbox style = ""color:white"">176 jours</div></div>","89,71","4000","","20","23","176","smaller_sooner","",""
"2088","71","poldrack-single-stim","65","363437","0.0-65.0","sub-06_ses-02_2","","4500","0","","<div class = dd-stim><div class = amtbox style = ""color:white"">24€</div><br><br><div class = delbox style = ""color:white"">87 jours</div></div>","89,71","4000","","20","24","87","smaller_sooner","",""
"2751","71","poldrack-single-stim","66","368016","0.0-66.0","sub-06_ses-02_2","","4568","0","","<div class = dd-stim><div class = amtbox style = ""color:white"">36€</div><br><br><div class = delbox style = ""color:white"">140 jours</div></div>","89,71","4000","","20","36","140","smaller_sooner","",""
"1190","71","poldrack-single-stim","67","372727","0.0-67.0","sub-06_ses-02_2","","4704","0","","<div class = dd-stim><div class = amtbox style = ""color:white"">35€</div><br><br><div class = delbox style = ""color:white"">171 jours</div></div>","89,71","4000","","20","35","171","smaller_sooner","",""
"1558","89","poldrack-single-stim","68","377646","0.0-68.0","sub-06_ses-02_2","","4908","0","","<div class = dd-stim><div class = amtbox style = ""color:white"">34€</div><br><br><div class = delbox style = ""color:white"">43 jours</div></div>","89,71","4000","","20","34","43","larger_later","",""
"2272","71","poldrack-single-stim","69","382226","0.0-69.0","sub-06_ses-02_2","","4568","0","","<div class = dd-stim><div class = amtbox style = ""color:white"">74€</div><br><br><div class = delbox style = ""color:white"">121 jours</div></div>","89,71","4000","","20","74","121","smaller_sooner","",""
"-1","-1","poldrack-single-stim","70","389748","0.0-70.0","sub-06_ses-02_2","","7500","1000","rest_block","<div class = centerbox><div class = center-text>+</div></div>","none","7500","","","","","","",""
"1535","71","poldrack-single-stim","71","395557","0.0-71.0","sub-06_ses-02_2","","4772","0","","<div class = dd-stim><div class = amtbox style = ""color:white"">45€</div><br><br><div class = delbox style = ""color:white"">107 jours</div></div>","89,71","4000","","20","45","107","smaller_sooner","",""
"1191","89","poldrack-single-stim","72","400207","0.0-72.0","sub-06_ses-02_2","","4636","0","","<div class = dd-stim><div class = amtbox style = ""color:white"">77€</div><br><br><div class = delbox style = ""color:white"">24 jours</div></div>","89,71","4000","","20","77","24","larger_later","",""
"2972","71","poldrack-single-stim","73","404797","0.0-73.0","sub-06_ses-02_2","","4568","0","","<div class = dd-stim><div class = amtbox style = ""color:white"">39€</div><br><br><div class = delbox style = ""color:white"">161 jours</div></div>","89,71","4000","","20","39","161","smaller_sooner","",""
"2700","71","poldrack-single-stim","74","410267","0.0-74.0","sub-06_ses-02_2","","5452","0","","<div class = dd-stim><div class = amtbox style = ""color:white"">62€</div><br><br><div class = delbox style = ""color:white"">180 jours</div></div>","89,71","4000","","20","62","180","smaller_sooner","",""
"1617","71","poldrack-single-stim","75","415667","0.0-75.0","sub-06_ses-02_2","","5384","0","","<div class = dd-stim><div class = amtbox style = ""color:white"">24€</div><br><br><div class = delbox style = ""color:white"">139 jours</div></div>","89,71","4000","","20","24","139","smaller_sooner","",""
"1419","89","poldrack-single-stim","76","420257","0.0-76.0","sub-06_ses-02_2","","4568","0","","<div class = dd-stim><div class = amtbox style = ""color:white"">58€</div><br><br><div class = delbox style = ""color:white"">72 jours</div></div>","89,71","4000","","20","58","72","larger_later","",""
"2045","89","poldrack-single-stim","77","426548","0.0-77.0","sub-06_ses-02_2","","6268","0","","<div class = dd-stim><div class = amtbox style = ""color:white"">56€</div><br><br><div class = delbox style = ""color:white"">93 jours</div></div>","89,71","4000","","20","56","93","larger_later","",""
"1425","89","poldrack-single-stim","78","432086","0.0-78.0","sub-06_ses-02_2","","5520","0","","<div class = dd-stim><div class = amtbox style = ""color:white"">45€</div><br><br><div class = delbox style = ""color:white"">26 jours</div></div>","89,71","4000","","20","45","26","larger_later","",""
"2161","71","poldrack-single-stim","79","436657","0.0-79.0","sub-06_ses-02_2","","4568","0","","<div class = dd-stim><div class = amtbox style = ""color:white"">23€</div><br><br><div class = delbox style = ""color:white"">42 jours</div></div>","89,71","4000","","20","23","42","smaller_sooner","",""
"1198","89","poldrack-single-stim","80","441308","0.0-80.0","sub-06_ses-02_2","","4636","0","","<div class = dd-stim><div class = amtbox style = ""color:white"">50€</div><br><br><div class = delbox style = ""color:white"">41 jours</div></div>","89,71","4000","","20","50","41","larger_later","",""
"1688","71","poldrack-single-stim","81","445947","0.0-81.0","sub-06_ses-02_2","","4636","0","","<div class = dd-stim><div class = amtbox style = ""color:white"">25€</div><br><br><div class = delbox style = ""color:white"">176 jours</div></div>","89,71","4000","","20","25","176","smaller_sooner","",""
"2069","89","poldrack-single-stim","82","451067","0.0-82.0","sub-06_ses-02_2","","5112","0","","<div class = dd-stim><div class = amtbox style = ""color:white"">54€</div><br><br><div class = delbox style = ""color:white"">22 jours</div></div>","89,71","4000","","20","54","22","larger_later","",""
"2762","71","poldrack-single-stim","83","456397","0.0-83.0","sub-06_ses-02_2","","5316","0","","<div class = dd-stim><div class = amtbox style = ""color:white"">29€</div><br><br><div class = delbox style = ""color:white"">44 jours</div></div>","89,71","4000","","20","29","44","smaller_sooner","",""
"1818","71","poldrack-single-stim","84","460978","0.0-84.0","sub-06_ses-02_2","","4568","0","","<div class = dd-stim><div class = amtbox style = ""color:white"">24€</div><br><br><div class = delbox style = ""color:white"">89 jours</div></div>","89,71","4000","","20","24","89","smaller_sooner","",""
"2516","71","poldrack-single-stim","85","465558","0.0-85.0","sub-06_ses-02_2","","4568","0","","<div class = dd-stim><div class = amtbox style = ""color:white"">23€</div><br><br><div class = delbox style = ""color:white"">77 jours</div></div>","89,71","4000","","20","23","77","smaller_sooner","",""
"2631","71","poldrack-single-stim","86","470137","0.0-86.0","sub-06_ses-02_2","","4568","0","","<div class = dd-stim><div class = amtbox style = ""color:white"">27€</div><br><br><div class = delbox style = ""color:white"">130 jours</div></div>","89,71","4000","","20","27","130","smaller_sooner","",""
"1524","71","poldrack-single-stim","87","474997","0.0-87.0","sub-06_ses-02_2","","4840","0","","<div class = dd-stim><div class = amtbox style = ""color:white"">23€</div><br><br><div class = delbox style = ""color:white"">134 jours</div></div>","89,71","4000","","20","23","134","smaller_sooner","",""
"2265","71","poldrack-single-stim","88","479507","0.0-88.0","sub-06_ses-02_2","","4500","0","","<div class = dd-stim><div class = amtbox style = ""color:white"">55€</div><br><br><div class = delbox style = ""color:white"">107 jours</div></div>","89,71","4000","","20","55","107","smaller_sooner","",""
"2968","71","poldrack-single-stim","89","485168","0.0-89.0","sub-06_ses-02_2","","5656","0","","<div class = dd-stim><div class = amtbox style = ""color:white"">44€</div><br><br><div class = delbox style = ""color:white"">143 jours</div></div>","89,71","4000","","20","44","143","smaller_sooner","",""
"1282","71","poldrack-single-stim","90","490088","0.0-90.0","sub-06_ses-02_2","","4908","0","","<div class = dd-stim><div class = amtbox style = ""color:white"">23€</div><br><br><div class = delbox style = ""color:white"">110 jours</div></div>","89,71","4000","","20","23","110","smaller_sooner","",""
"1636","71","poldrack-single-stim","91","494727","0.0-91.0","sub-06_ses-02_2","","4636","0","","<div class = dd-stim><div class = amtbox style = ""color:white"">65€</div><br><br><div class = delbox style = ""color:white"">156 jours</div></div>","89,71","4000","","20","65","156","smaller_sooner","",""
"1496","71","poldrack-single-stim","92","499251","0.0-92.0","sub-06_ses-02_2","","4500","0","","<div class = dd-stim><div class = amtbox style = ""color:white"">22€</div><br><br><div class = delbox style = ""color:white"">27 jours</div></div>","89,71","4000","","20","22","27","smaller_sooner","",""
"3002","89","poldrack-single-stim","93","503767","0.0-93.0","sub-06_ses-02_2","","4500","0","","<div class = dd-stim><div class = amtbox style = ""color:white"">50€</div><br><br><div class = delbox style = ""color:white"">59 jours</div></div>","89,71","4000","","20","50","59","larger_later","",""
"1184","71","poldrack-single-stim","94","508887","0.0-94.0","sub-06_ses-02_2","","5112","0","","<div class = dd-stim><div class = amtbox style = ""color:white"">85€</div><br><br><div class = delbox style = ""color:white"">129 jours</div></div>","89,71","4000","","20","85","129","smaller_sooner","",""
"1054","89","poldrack-single-stim","95","515037","0.0-95.0","sub-06_ses-02_2","","6132","0","","<div class = dd-stim><div class = amtbox style = ""color:white"">66€</div><br><br><div class = delbox style = ""color:white"">58 jours</div></div>","89,71","4000","","20","66","58","larger_later","",""
"1261","71","poldrack-single-stim","96","519897","0.0-96.0","sub-06_ses-02_2","","4840","0","","<div class = dd-stim><div class = amtbox style = ""color:white"">49€</div><br><br><div class = delbox style = ""color:white"">172 jours</div></div>","89,71","4000","","20","49","172","smaller_sooner","",""
"1480","89","poldrack-single-stim","97","524467","0.0-97.0","sub-06_ses-02_2","","4568","0","","<div class = dd-stim><div class = amtbox style = ""color:white"">73€</div><br><br><div class = delbox style = ""color:white"">44 jours</div></div>","89,71","4000","","20","73","44","larger_later","",""
"3029","89","poldrack-single-stim","98","529187","0.0-98.0","sub-06_ses-02_2","","4704","0","","<div class = dd-stim><div class = amtbox style = ""color:white"">58€</div><br><br><div class = delbox style = ""color:white"">73 jours</div></div>","89,71","4000","","20","58","73","larger_later","",""
"1493","89","poldrack-single-stim","99","535057","0.0-99.0","sub-06_ses-02_2","","5860","0","","<div class = dd-stim><div class = amtbox style = ""color:white"">71€</div><br><br><div class = delbox style = ""color:white"">76 jours</div></div>","89,71","4000","","20","71","76","larger_later","",""
"2582","89","poldrack-single-stim","100","539698","0.0-100.0","sub-06_ses-02_2","","4636","0","","<div class = dd-stim><div class = amtbox style = ""color:white"">67€</div><br><br><div class = delbox style = ""color:white"">74 jours</div></div>","89,71","4000","","20","67","74","larger_later","",""
"4076","89","poldrack-single-stim","101","545027","0.0-101.0","sub-06_ses-02_2","","5316","0","","<div class = dd-stim><div class = amtbox style = ""color:white"">29€</div><br><br><div class = delbox style = ""color:white"">58 jours</div></div>","89,71","4000","","20","29","58","larger_later","",""
"1729","71","poldrack-single-stim","102","550017","0.0-102.0","sub-06_ses-02_2","","4976","0","","<div class = dd-stim><div class = amtbox style = ""color:white"">39€</div><br><br><div class = delbox style = ""color:white"">104 jours</div></div>","89,71","4000","","20","39","104","smaller_sooner","",""
"2460","71","poldrack-single-stim","103","554597","0.0-103.0","sub-06_ses-02_2","","4568","0","","<div class = dd-stim><div class = amtbox style = ""color:white"">33€</div><br><br><div class = delbox style = ""color:white"">103 jours</div></div>","89,71","4000","","20","33","103","smaller_sooner","",""
"3153","89","poldrack-single-stim","104","560127","0.0-104.0","sub-06_ses-02_2","","5520","0","","<div class = dd-stim><div class = amtbox style = ""color:white"">33€</div><br><br><div class = delbox style = ""color:white"">78 jours</div></div>","89,71","4000","","20","33","78","larger_later","",""
"1550","89","poldrack-single-stim","105","565727","0.0-105.0","sub-06_ses-02_2","","5588","0","","<div class = dd-stim><div class = amtbox style = ""color:white"">74€</div><br><br><div class = delbox style = ""color:white"">52 jours</div></div>","89,71","4000","","20","74","52","larger_later","",""
"1086","71","poldrack-single-stim","106","571539","0.0-106.0","sub-06_ses-02_2","","5792","0","","<div class = dd-stim><div class = amtbox style = ""color:white"">28€</div><br><br><div class = delbox style = ""color:white"">132 jours</div></div>","89,71","4000","","20","28","132","smaller_sooner","",""
"2236","89","poldrack-single-stim","107","576117","0.0-107.0","sub-06_ses-02_2","","4568","0","","<div class = dd-stim><div class = amtbox style = ""color:white"">28€</div><br><br><div class = delbox style = ""color:white"">59 jours</div></div>","89,71","4000","","20","28","59","larger_later","",""
"2084","71","poldrack-single-stim","108","581238","0.0-108.0","sub-06_ses-02_2","","5112","0","","<div class = dd-stim><div class = amtbox style = ""color:white"">28€</div><br><br><div class = delbox style = ""color:white"">163 jours</div></div>","89,71","4000","","20","28","163","smaller_sooner","",""
"2182","89","poldrack-single-stim","109","585747","0.0-109.0","sub-06_ses-02_2","","4500","0","","<div class = dd-stim><div class = amtbox style = ""color:white"">32€</div><br><br><div class = delbox style = ""color:white"">74 jours</div></div>","89,71","4000","","20","32","74","larger_later","",""
"841","89","poldrack-single-stim","110","590607","0.0-110.0","sub-06_ses-02_2","","4840","0","","<div class = dd-stim><div class = amtbox style = ""color:white"">57€</div><br><br><div class = delbox style = ""color:white"">89 jours</div></div>","89,71","4000","","20","57","89","larger_later","",""
"976","71","poldrack-single-stim","111","595187","0.0-111.0","sub-06_ses-02_2","","4568","0","","<div class = dd-stim><div class = amtbox style = ""color:white"">70€</div><br><br><div class = delbox style = ""color:white"">108 jours</div></div>","89,71","4000","","20","70","108","smaller_sooner","",""
"2952","89","poldrack-single-stim","112","600587","0.0-112.0","sub-06_ses-02_2","","5384","0","","<div class = dd-stim><div class = amtbox style = ""color:white"">72€</div><br><br><div class = delbox style = ""color:white"">95 jours</div></div>","89,71","4000","","20","72","95","larger_later","",""
"1852","71","poldrack-single-stim","113","605637","0.0-113.0","sub-06_ses-02_2","","5044","0","","<div class = dd-stim><div class = amtbox style = ""color:white"">30€</div><br><br><div class = delbox style = ""color:white"">36 jours</div></div>","89,71","4000","","20","30","36","smaller_sooner","",""
"3454","71","poldrack-single-stim","114","610348","0.0-114.0","sub-06_ses-02_2","","4704","0","","<div class = dd-stim><div class = amtbox style = ""color:white"">41€</div><br><br><div class = delbox style = ""color:white"">129 jours</div></div>","89,71","4000","","20","41","129","smaller_sooner","",""
"1045","71","poldrack-single-stim","115","615277","0.0-115.0","sub-06_ses-02_2","","4908","0","","<div class = dd-stim><div class = amtbox style = ""color:white"">78€</div><br><br><div class = delbox style = ""color:white"">129 jours</div></div>","89,71","4000","","20","78","129","smaller_sooner","",""
"2135","89","poldrack-single-stim","116","620197","0.0-116.0","sub-06_ses-02_2","","4908","0","","<div class = dd-stim><div class = amtbox style = ""color:white"">71€</div><br><br><div class = delbox style = ""color:white"">88 jours</div></div>","89,71","4000","","20","71","88","larger_later","",""
"2461","71","poldrack-single-stim","117","625047","0.0-117.0","sub-06_ses-02_2","","4840","0","","<div class = dd-stim><div class = amtbox style = ""color:white"">65€</div><br><br><div class = delbox style = ""color:white"">159 jours</div></div>","89,71","4000","","20","65","159","smaller_sooner","",""
"2117","71","poldrack-single-stim","118","630168","0.0-118.0","sub-06_ses-02_2","","5112","0","","<div class = dd-stim><div class = amtbox style = ""color:white"">24€</div><br><br><div class = delbox style = ""color:white"">125 jours</div></div>","89,71","4000","","20","24","125","smaller_sooner","",""
"998","89","poldrack-single-stim","119","635288","0.0-119.0","sub-06_ses-02_2","","5112","0","","<div class = dd-stim><div class = amtbox style = ""color:white"">58€</div><br><br><div class = delbox style = ""color:white"">36 jours</div></div>","89,71","4000","","20","58","36","larger_later","",""
"1321","89","poldrack-single-stim","120","639997","0.0-120.0","sub-06_ses-02_2","","4704","0","","<div class = dd-stim><div class = amtbox style = ""color:white"">63€</div><br><br><div class = delbox style = ""color:white"">37 jours</div></div>","89,71","4000","","20","63","37","larger_later","",""
"2699","89","poldrack-single-stim","121","644856","0.0-121.0","sub-06_ses-02_2","","4840","0","","<div class = dd-stim><div class = amtbox style = ""color:white"">75€</div><br><br><div class = delbox style = ""color:white"">41 jours</div></div>","89,71","4000","","20","75","41","larger_later","",""
"3409","89","poldrack-single-stim","122","649717","0.0-122.0","sub-06_ses-02_2","","4840","0","","<div class = dd-stim><div class = amtbox style = ""color:white"">45€</div><br><br><div class = delbox style = ""color:white"">72 jours</div></div>","89,71","4000","","20","45","72","larger_later","",""
"1179","71","poldrack-single-stim","123","656618","0.0-123.0","sub-06_ses-02_2","","6880","0","","<div class = dd-stim><div class = amtbox style = ""color:white"">25€</div><br><br><div class = delbox style = ""color:white"">74 jours</div></div>","89,71","4000","","20","25","74","smaller_sooner","",""
"2317","71","poldrack-single-stim","124","661208","0.0-124.0","sub-06_ses-02_2","","4568","0","","<div class = dd-stim><div class = amtbox style = ""color:white"">65€</div><br><br><div class = delbox style = ""color:white"">137 jours</div></div>","89,71","4000","","20","65","137","smaller_sooner","",""
"1878","71","poldrack-single-stim","125","665997","0.0-125.0","sub-06_ses-02_2","","4772","0","","<div class = dd-stim><div class = amtbox style = ""color:white"">49€</div><br><br><div class = delbox style = ""color:white"">140 jours</div></div>","89,71","4000","","20","49","140","smaller_sooner","",""
"3082","71","poldrack-single-stim","126","673017","0.0-126.0","sub-06_ses-02_2","","7016","0","","<div class = dd-stim><div class = amtbox style = ""color:white"">67€</div><br><br><div class = delbox style = ""color:white"">103 jours</div></div>","89,71","4000","","20","67","103","smaller_sooner","",""
"1179","71","poldrack-single-stim","127","677728","0.0-127.0","sub-06_ses-02_2","","4704","0","","<div class = dd-stim><div class = amtbox style = ""color:white"">69€</div><br><br><div class = delbox style = ""color:white"">172 jours</div></div>","89,71","4000","","20","69","172","smaller_sooner","",""
"1509","89","poldrack-single-stim","128","682916","0.0-128.0","sub-06_ses-02_2","","5180","0","","<div class = dd-stim><div class = amtbox style = ""color:white"">66€</div><br><br><div class = delbox style = ""color:white"">71 jours</div></div>","89,71","4000","","20","66","71","larger_later","",""
"1060","71","poldrack-single-stim","129","687968","0.0-129.0","sub-06_ses-02_2","","5044","0","","<div class = dd-stim><div class = amtbox style = ""color:white"">71€</div><br><br><div class = delbox style = ""color:white"">176 jours</div></div>","89,71","4000","","20","71","176","smaller_sooner","",""
"21380","32","poldrack-single-stim","130","709350","0.0-130.0","sub-06_ses-02_2","","21380","0","end","<div class = centerbox><div class = center-text><i>Fin</i></div></div>","32","21380","","","","","","discount_fixed","[object Object]"
"585","13","text","131","709935","0.0-131.0","sub-06_ses-02_2","","","","","","","","","","","","","",""
