"rt","key_press","trial_type","trial_index","time_elapsed","internal_node_id","subject","text","block_duration","timing_post_trial","trial_id","stimulus","possible_responses","stim_duration","correct","correct_response","feedback_duration","condition","stim_color","stim_word","trial_num","exp_stage","exp_id"
"2358","13","text","0","2362","0.0-0.0","sub-09_sess-02_2","","","","","","","","","","","","","","","",""
"1844","89","poldrack-text","1","5227","0.0-1.0","sub-09_sess-02_2","<div class = centerbox><div style = 'font-size: 50px' class = center-text>Veuillez appuyer avec votre index</p></div>","1844","500","fmri_response_test","","","","","","","","","","","",""
"484","71","poldrack-text","2","6232","0.0-2.0","sub-09_sess-02_2","<div class = centerbox><div style = 'font-size: 50px' class = center-text>Veuillez appuyer avec votre majeur</p></div>","484","500","fmri_response_test","","","","","","","","","","","",""
"1342","82","poldrack-text","3","8084","0.0-3.0","sub-09_sess-02_2","<div class = centerbox><div style = 'font-size: 50px' class = center-text>Veuillez appuyer avec votre annulaire</p></div>","1342","500","fmri_response_test","","","","","","","","","","","",""
"4159","32","poldrack-single-stim","4","12765","0.0-4.0","sub-09_sess-02_2","","4159","500","instructions","<div class = centerbox><div class = center-text><font size = +4>Repondre a la <strong>coleur de l'encre</strong> du mot!<br><br><span style = ""color:red;padding-left:30px"">MOT</span>: Index<br><span style = ""color:#1F45FC;padding-left:65px"">MOT</span>: Majeur<br><span style = ""color:#4FE829;"">MOT</span>: Annulaire<br><br>Nous allons commencer par un peu de pratique</div></div>","32","4159","","","","","","","","",""
"989","71","poldrack-categorize","5","15300","0.0-5.0-0.0-0.0","sub-09_sess-02_2","","1500","0","stim","<div class = stroopbox><div class = stroop-stim style = ""color:#1F45FC"">BLEU</div></div>","89,71,82","1500","true","71","500","congruent","blue","blue","1","practice",""
"-1","-1","poldrack-single-stim","6","15560","0.0-5.0-1.0","sub-09_sess-02_2","","250","0","fixation","<div class = centerbox><div class = fixation>+</div></div>","none","250","","","","","","","","",""
"709","89","poldrack-categorize","7","17601","0.0-5.0-2.0-0.0","sub-09_sess-02_2","","1500","0","stim","<div class = stroopbox><div class = stroop-stim style = ""color:red"">ROUGE</div></div>","89,71,82","1500","true","89","500","congruent","red","red","2","practice",""
"-1","-1","poldrack-single-stim","8","17860","0.0-5.0-3.0","sub-09_sess-02_2","","250","0","fixation","<div class = centerbox><div class = fixation>+</div></div>","none","250","","","","","","","","",""
"1193","89","poldrack-categorize","9","19900","0.0-5.0-4.0-0.0","sub-09_sess-02_2","","1500","0","stim","<div class = stroopbox><div class = stroop-stim style = ""color:red"">BLEU</div></div>","89,71,82","1500","true","89","500","incongruent","red","blue","3","practice",""
"-1","-1","poldrack-single-stim","10","20161","0.0-5.0-5.0","sub-09_sess-02_2","","250","0","fixation","<div class = centerbox><div class = fixation>+</div></div>","none","250","","","","","","","","",""
"632","82","poldrack-categorize","11","22199","0.0-5.0-6.0-0.0","sub-09_sess-02_2","","1500","0","stim","<div class = stroopbox><div class = stroop-stim style = ""color:#4FE829"">VERT</div></div>","89,71,82","1500","true","82","500","congruent","green","green","4","practice",""
"-1","-1","poldrack-single-stim","12","22460","0.0-5.0-7.0","sub-09_sess-02_2","","250","0","fixation","<div class = centerbox><div class = fixation>+</div></div>","none","250","","","","","","","","",""
"750","71","poldrack-categorize","13","24501","0.0-5.0-8.0-0.0","sub-09_sess-02_2","","1500","0","stim","<div class = stroopbox><div class = stroop-stim style = ""color:#1F45FC"">VERT</div></div>","89,71,82","1500","true","71","500","incongruent","blue","green","5","practice",""
"-1","-1","poldrack-single-stim","14","24761","0.0-5.0-9.0","sub-09_sess-02_2","","250","0","fixation","<div class = centerbox><div class = fixation>+</div></div>","none","250","","","","","","","","",""
"1021","71","poldrack-categorize","15","26800","0.0-5.0-10.0-0.0","sub-09_sess-02_2","","1500","0","stim","<div class = stroopbox><div class = stroop-stim style = ""color:#1F45FC"">ROUGE</div></div>","89,71,82","1500","true","71","500","incongruent","blue","red","6","practice",""
"-1","-1","poldrack-single-stim","16","27060","0.0-5.0-11.0","sub-09_sess-02_2","","250","0","fixation","<div class = centerbox><div class = fixation>+</div></div>","none","250","","","","","","","","",""
"953","89","poldrack-categorize","17","29101","0.0-5.0-12.0-0.0","sub-09_sess-02_2","","1500","0","stim","<div class = stroopbox><div class = stroop-stim style = ""color:red"">VERT</div></div>","89,71,82","1500","true","89","500","incongruent","red","green","7","practice",""
"-1","-1","poldrack-single-stim","18","29360","0.0-5.0-13.0","sub-09_sess-02_2","","250","0","fixation","<div class = centerbox><div class = fixation>+</div></div>","none","250","","","","","","","","",""
"693","82","poldrack-categorize","19","31390","0.0-5.0-14.0-0.0","sub-09_sess-02_2","","1500","0","stim","<div class = stroopbox><div class = stroop-stim style = ""color:#4FE829"">BLEU</div></div>","89,71,82","1500","true","82","500","incongruent","green","blue","8","practice",""
"-1","-1","poldrack-single-stim","20","31650","0.0-5.0-15.0","sub-09_sess-02_2","","250","0","fixation","<div class = centerbox><div class = fixation>+</div></div>","none","250","","","","","","","","",""
"992","82","poldrack-categorize","21","33691","0.0-5.0-16.0-0.0","sub-09_sess-02_2","","1500","0","stim","<div class = stroopbox><div class = stroop-stim style = ""color:#4FE829"">ROUGE</div></div>","89,71,82","1500","true","82","500","incongruent","green","red","9","practice",""
"-1","-1","poldrack-single-stim","22","33950","0.0-5.0-17.0","sub-09_sess-02_2","","250","0","fixation","<div class = centerbox><div class = fixation>+</div></div>","none","250","","","","","","","","",""
"2304","32","poldrack-text","23","36259","0.0-6.0","sub-09_sess-02_2","<div class = centerbox><div  class = center-text>Scanner Setup</div></div>","2304","0","fmri_scanner_wait","","","","","","","","","","","",""
"55300","84","poldrack-text","24","91562","0.0-7.0","sub-09_sess-02_2","<div class = centerbox><div style='color:red'; class = center-text>+</div></div>","55300","0","fmri_trigger_wait","","","","","","","","","","","",""
"-1","-1","poldrack-single-stim","25","92581","0.0-8.0","sub-09_sess-02_2","","1000","0","fmri_buffer","","none","1000","","","","","","","","",""
"-1","-1","poldrack-single-stim","26","94100","0.0-9.0","sub-09_sess-02_2","","1500","500","test_start_block","<div class = centerbox><div class = center-text>Preparez-vous!</p></div>","none","1500","","","","","","","","",""
"-1","-1","poldrack-single-stim","27","95141","0.0-10.0","sub-09_sess-02_2","","500","0","fixation","<div class = centerbox><div class = fixation>+</div></div>","none","500","","","","","","","","",""
"710","71","poldrack-single-stim","28","97159","0.0-11.0-0.0","sub-09_sess-02_2","","2000","0","stim","<div class = stroopbox><div class = stroop-stim style = ""color:#1F45FC"">VERT</div></div>","89,71,82","1500","true","71","","incongruent","blue","green","0","test",""
"565","82","poldrack-single-stim","29","99179","0.0-11.0-1.0","sub-09_sess-02_2","","2000","0","stim","<div class = stroopbox><div class = stroop-stim style = ""color:#4FE829"">VERT</div></div>","89,71,82","1500","true","82","","congruent","green","green","1","test",""
"731","71","poldrack-single-stim","30","101460","0.0-11.0-2.0","sub-09_sess-02_2","","2272","0","stim","<div class = stroopbox><div class = stroop-stim style = ""color:#1F45FC"">ROUGE</div></div>","89,71,82","1500","true","71","","incongruent","blue","red","2","test",""
"603","82","poldrack-single-stim","31","103480","0.0-11.0-3.0","sub-09_sess-02_2","","2000","0","stim","<div class = stroopbox><div class = stroop-stim style = ""color:#4FE829"">BLEU</div></div>","89,71,82","1500","true","82","","incongruent","green","blue","3","test",""
"490","71","poldrack-single-stim","32","105620","0.0-11.0-4.0","sub-09_sess-02_2","","2136","0","stim","<div class = stroopbox><div class = stroop-stim style = ""color:#1F45FC"">BLEU</div></div>","89,71,82","1500","true","71","","congruent","blue","blue","4","test",""
"436","82","poldrack-single-stim","33","107641","0.0-11.0-5.0","sub-09_sess-02_2","","2000","0","stim","<div class = stroopbox><div class = stroop-stim style = ""color:#4FE829"">VERT</div></div>","89,71,82","1500","true","82","","congruent","green","green","5","test",""
"448","71","poldrack-single-stim","34","109781","0.0-11.0-6.0","sub-09_sess-02_2","","2136","0","stim","<div class = stroopbox><div class = stroop-stim style = ""color:#1F45FC"">BLEU</div></div>","89,71,82","1500","true","71","","congruent","blue","blue","6","test",""
"746","71","poldrack-single-stim","35","111800","0.0-11.0-7.0","sub-09_sess-02_2","","2000","0","stim","<div class = stroopbox><div class = stroop-stim style = ""color:#1F45FC"">BLEU</div></div>","89,71,82","1500","true","71","","congruent","blue","blue","7","test",""
"661","89","poldrack-single-stim","36","113820","0.0-11.0-8.0","sub-09_sess-02_2","","2000","0","stim","<div class = stroopbox><div class = stroop-stim style = ""color:red"">ROUGE</div></div>","89,71,82","1500","true","89","","congruent","red","red","8","test",""
"632","89","poldrack-single-stim","37","115839","0.0-11.0-9.0","sub-09_sess-02_2","","2000","0","stim","<div class = stroopbox><div class = stroop-stim style = ""color:red"">BLEU</div></div>","89,71,82","1500","true","89","","incongruent","red","blue","9","test",""
"988","71","poldrack-single-stim","38","118120","0.0-11.0-10.0","sub-09_sess-02_2","","2272","0","stim","<div class = stroopbox><div class = stroop-stim style = ""color:#1F45FC"">VERT</div></div>","89,71,82","1500","true","71","","incongruent","blue","green","10","test",""
"708","89","poldrack-single-stim","39","120140","0.0-11.0-11.0","sub-09_sess-02_2","","2000","0","stim","<div class = stroopbox><div class = stroop-stim style = ""color:red"">VERT</div></div>","89,71,82","1500","true","89","","incongruent","red","green","11","test",""
"773","89","poldrack-single-stim","40","122290","0.0-11.0-12.0","sub-09_sess-02_2","","2136","0","stim","<div class = stroopbox><div class = stroop-stim style = ""color:red"">VERT</div></div>","89,71,82","1500","true","89","","incongruent","red","green","12","test",""
"554","71","poldrack-single-stim","41","124709","0.0-11.0-13.0","sub-09_sess-02_2","","2408","0","stim","<div class = stroopbox><div class = stroop-stim style = ""color:#1F45FC"">BLEU</div></div>","89,71,82","1500","true","71","","congruent","blue","blue","13","test",""
"598","82","poldrack-single-stim","42","126989","0.0-11.0-14.0","sub-09_sess-02_2","","2272","0","stim","<div class = stroopbox><div class = stroop-stim style = ""color:#4FE829"">BLEU</div></div>","89,71,82","1500","true","82","","incongruent","green","blue","14","test",""
"651","82","poldrack-single-stim","43","129679","0.0-11.0-15.0","sub-09_sess-02_2","","2680","0","stim","<div class = stroopbox><div class = stroop-stim style = ""color:#4FE829"">VERT</div></div>","89,71,82","1500","true","82","","congruent","green","green","15","test",""
"701","89","poldrack-single-stim","44","131701","0.0-11.0-16.0","sub-09_sess-02_2","","2000","0","stim","<div class = stroopbox><div class = stroop-stim style = ""color:red"">ROUGE</div></div>","89,71,82","1500","true","89","","congruent","red","red","16","test",""
"624","82","poldrack-single-stim","45","134130","0.0-11.0-17.0","sub-09_sess-02_2","","2408","0","stim","<div class = stroopbox><div class = stroop-stim style = ""color:#4FE829"">VERT</div></div>","89,71,82","1500","true","82","","congruent","green","green","17","test",""
"504","71","poldrack-single-stim","46","136270","0.0-11.0-18.0","sub-09_sess-02_2","","2136","0","stim","<div class = stroopbox><div class = stroop-stim style = ""color:#1F45FC"">BLEU</div></div>","89,71,82","1500","true","71","","congruent","blue","blue","18","test",""
"841","89","poldrack-single-stim","47","138970","0.0-11.0-19.0","sub-09_sess-02_2","","2680","0","stim","<div class = stroopbox><div class = stroop-stim style = ""color:red"">VERT</div></div>","89,71,82","1500","true","89","","incongruent","red","green","19","test",""
"630","89","poldrack-single-stim","48","140980","0.0-11.0-20.0","sub-09_sess-02_2","","2000","0","stim","<div class = stroopbox><div class = stroop-stim style = ""color:red"">VERT</div></div>","89,71,82","1500","true","89","","incongruent","red","green","20","test",""
"691","82","poldrack-single-stim","49","143120","0.0-11.0-21.0","sub-09_sess-02_2","","2136","0","stim","<div class = stroopbox><div class = stroop-stim style = ""color:#4FE829"">BLEU</div></div>","89,71,82","1500","true","82","","incongruent","green","blue","21","test",""
"609","89","poldrack-single-stim","50","146091","0.0-11.0-22.0","sub-09_sess-02_2","","2952","0","stim","<div class = stroopbox><div class = stroop-stim style = ""color:red"">ROUGE</div></div>","89,71,82","1500","true","89","","congruent","red","red","22","test",""
"703","89","poldrack-single-stim","51","148111","0.0-11.0-23.0","sub-09_sess-02_2","","2000","0","stim","<div class = stroopbox><div class = stroop-stim style = ""color:red"">BLEU</div></div>","89,71,82","1500","true","89","","incongruent","red","blue","23","test",""
"826","71","poldrack-single-stim","52","150389","0.0-11.0-24.0","sub-09_sess-02_2","","2272","0","stim","<div class = stroopbox><div class = stroop-stim style = ""color:#1F45FC"">ROUGE</div></div>","89,71,82","1500","true","71","","incongruent","blue","red","24","test",""
"824","71","poldrack-single-stim","53","152400","0.0-11.0-25.0","sub-09_sess-02_2","","2000","0","stim","<div class = stroopbox><div class = stroop-stim style = ""color:#1F45FC"">ROUGE</div></div>","89,71,82","1500","true","71","","incongruent","blue","red","25","test",""
"633","89","poldrack-single-stim","54","154420","0.0-11.0-26.0","sub-09_sess-02_2","","2000","0","stim","<div class = stroopbox><div class = stroop-stim style = ""color:red"">ROUGE</div></div>","89,71,82","1500","true","89","","congruent","red","red","26","test",""
"630","89","poldrack-single-stim","55","156437","0.0-11.0-27.0","sub-09_sess-02_2","","2000","0","stim","<div class = stroopbox><div class = stroop-stim style = ""color:red"">ROUGE</div></div>","89,71,82","1500","true","89","","congruent","red","red","27","test",""
"700","89","poldrack-single-stim","56","158439","0.0-11.0-28.0","sub-09_sess-02_2","","2000","0","stim","<div class = stroopbox><div class = stroop-stim style = ""color:red"">VERT</div></div>","89,71,82","1500","true","89","","incongruent","red","green","28","test",""
"699","89","poldrack-single-stim","57","160581","0.0-11.0-29.0","sub-09_sess-02_2","","2136","0","stim","<div class = stroopbox><div class = stroop-stim style = ""color:red"">ROUGE</div></div>","89,71,82","1500","true","89","","congruent","red","red","29","test",""
"634","82","poldrack-single-stim","58","162589","0.0-11.0-30.0","sub-09_sess-02_2","","2000","0","stim","<div class = stroopbox><div class = stroop-stim style = ""color:#4FE829"">VERT</div></div>","89,71,82","1500","true","82","","congruent","green","green","30","test",""
"751","82","poldrack-single-stim","59","164599","0.0-11.0-31.0","sub-09_sess-02_2","","2000","0","stim","<div class = stroopbox><div class = stroop-stim style = ""color:#4FE829"">ROUGE</div></div>","89,71,82","1500","true","82","","incongruent","green","red","31","test",""
"699","71","poldrack-single-stim","60","166750","0.0-11.0-32.0","sub-09_sess-02_2","","2136","0","stim","<div class = stroopbox><div class = stroop-stim style = ""color:#1F45FC"">BLEU</div></div>","89,71,82","1500","true","71","","congruent","blue","blue","32","test",""
"617","89","poldrack-single-stim","61","168770","0.0-11.0-33.0","sub-09_sess-02_2","","2000","0","stim","<div class = stroopbox><div class = stroop-stim style = ""color:red"">BLEU</div></div>","89,71,82","1500","true","89","","incongruent","red","blue","33","test",""
"646","82","poldrack-single-stim","62","170794","0.0-11.0-34.0","sub-09_sess-02_2","","2000","0","stim","<div class = stroopbox><div class = stroop-stim style = ""color:#4FE829"">BLEU</div></div>","89,71,82","1500","true","82","","incongruent","green","blue","34","test",""
"563","82","poldrack-single-stim","63","172941","0.0-11.0-35.0","sub-09_sess-02_2","","2136","0","stim","<div class = stroopbox><div class = stroop-stim style = ""color:#4FE829"">BLEU</div></div>","89,71,82","1500","true","82","","incongruent","green","blue","35","test",""
"593","71","poldrack-single-stim","64","175101","0.0-11.0-36.0","sub-09_sess-02_2","","2136","0","stim","<div class = stroopbox><div class = stroop-stim style = ""color:#1F45FC"">BLEU</div></div>","89,71,82","1500","true","71","","congruent","blue","blue","36","test",""
"581","89","poldrack-single-stim","65","177389","0.0-11.0-37.0","sub-09_sess-02_2","","2272","0","stim","<div class = stroopbox><div class = stroop-stim style = ""color:red"">ROUGE</div></div>","89,71,82","1500","true","89","","congruent","red","red","37","test",""
"816","89","poldrack-single-stim","66","180090","0.0-11.0-38.0","sub-09_sess-02_2","","2680","0","stim","<div class = stroopbox><div class = stroop-stim style = ""color:red"">BLEU</div></div>","89,71,82","1500","true","89","","incongruent","red","blue","38","test",""
"653","82","poldrack-single-stim","67","182099","0.0-11.0-39.0","sub-09_sess-02_2","","2000","0","stim","<div class = stroopbox><div class = stroop-stim style = ""color:#4FE829"">VERT</div></div>","89,71,82","1500","true","82","","congruent","green","green","39","test",""
"594","71","poldrack-single-stim","68","184120","0.0-11.0-40.0","sub-09_sess-02_2","","2000","0","stim","<div class = stroopbox><div class = stroop-stim style = ""color:#1F45FC"">BLEU</div></div>","89,71,82","1500","true","71","","congruent","blue","blue","40","test",""
"590","71","poldrack-single-stim","69","186400","0.0-11.0-41.0","sub-09_sess-02_2","","2272","0","stim","<div class = stroopbox><div class = stroop-stim style = ""color:#1F45FC"">VERT</div></div>","89,71,82","1500","true","71","","incongruent","blue","green","41","test",""
"670","82","poldrack-single-stim","70","188420","0.0-11.0-42.0","sub-09_sess-02_2","","2000","0","stim","<div class = stroopbox><div class = stroop-stim style = ""color:#4FE829"">ROUGE</div></div>","89,71,82","1500","true","82","","incongruent","green","red","42","test",""
"711","82","poldrack-single-stim","71","190440","0.0-11.0-43.0","sub-09_sess-02_2","","2000","0","stim","<div class = stroopbox><div class = stroop-stim style = ""color:#4FE829"">VERT</div></div>","89,71,82","1500","true","82","","congruent","green","green","43","test",""
"813","82","poldrack-single-stim","72","192459","0.0-11.0-44.0","sub-09_sess-02_2","","2000","0","stim","<div class = stroopbox><div class = stroop-stim style = ""color:#4FE829"">BLEU</div></div>","89,71,82","1500","true","82","","incongruent","green","blue","44","test",""
"616","89","poldrack-single-stim","73","194471","0.0-11.0-45.0","sub-09_sess-02_2","","2000","0","stim","<div class = stroopbox><div class = stroop-stim style = ""color:red"">VERT</div></div>","89,71,82","1500","true","89","","incongruent","red","green","45","test",""
"734","82","poldrack-single-stim","74","196490","0.0-11.0-46.0","sub-09_sess-02_2","","2000","0","stim","<div class = stroopbox><div class = stroop-stim style = ""color:#4FE829"">ROUGE</div></div>","89,71,82","1500","true","82","","incongruent","green","red","46","test",""
"938","71","poldrack-single-stim","75","198499","0.0-11.0-47.0","sub-09_sess-02_2","","2000","0","stim","<div class = stroopbox><div class = stroop-stim style = ""color:#1F45FC"">ROUGE</div></div>","89,71,82","1500","true","71","","incongruent","blue","red","47","test",""
"692","82","poldrack-single-stim","76","200791","0.0-11.0-48.0","sub-09_sess-02_2","","2272","0","stim","<div class = stroopbox><div class = stroop-stim style = ""color:#4FE829"">VERT</div></div>","89,71,82","1500","true","82","","congruent","green","green","48","test",""
"603","82","poldrack-single-stim","77","202809","0.0-11.0-49.0","sub-09_sess-02_2","","2000","0","stim","<div class = stroopbox><div class = stroop-stim style = ""color:#4FE829"">ROUGE</div></div>","89,71,82","1500","true","82","","incongruent","green","red","49","test",""
"516","71","poldrack-single-stim","78","205230","0.0-11.0-50.0","sub-09_sess-02_2","","2408","0","stim","<div class = stroopbox><div class = stroop-stim style = ""color:#1F45FC"">BLEU</div></div>","89,71,82","1500","true","71","","congruent","blue","blue","50","test",""
"613","89","poldrack-single-stim","79","207248","0.0-11.0-51.0","sub-09_sess-02_2","","2000","0","stim","<div class = stroopbox><div class = stroop-stim style = ""color:red"">ROUGE</div></div>","89,71,82","1500","true","89","","congruent","red","red","51","test",""
"586","71","poldrack-single-stim","80","209400","0.0-11.0-52.0","sub-09_sess-02_2","","2136","0","stim","<div class = stroopbox><div class = stroop-stim style = ""color:#1F45FC"">BLEU</div></div>","89,71,82","1500","true","71","","congruent","blue","blue","52","test",""
"728","89","poldrack-single-stim","81","211421","0.0-11.0-53.0","sub-09_sess-02_2","","2000","0","stim","<div class = stroopbox><div class = stroop-stim style = ""color:red"">ROUGE</div></div>","89,71,82","1500","true","89","","congruent","red","red","53","test",""
"599","82","poldrack-single-stim","82","213439","0.0-11.0-54.0","sub-09_sess-02_2","","2000","0","stim","<div class = stroopbox><div class = stroop-stim style = ""color:#4FE829"">VERT</div></div>","89,71,82","1500","true","82","","congruent","green","green","54","test",""
"692","82","poldrack-single-stim","83","215461","0.0-11.0-55.0","sub-09_sess-02_2","","2000","0","stim","<div class = stroopbox><div class = stroop-stim style = ""color:#4FE829"">BLEU</div></div>","89,71,82","1500","true","82","","incongruent","green","blue","55","test",""
"646","89","poldrack-single-stim","84","217749","0.0-11.0-56.0","sub-09_sess-02_2","","2272","0","stim","<div class = stroopbox><div class = stroop-stim style = ""color:red"">ROUGE</div></div>","89,71,82","1500","true","89","","congruent","red","red","56","test",""
"705","89","poldrack-single-stim","85","219770","0.0-11.0-57.0","sub-09_sess-02_2","","2000","0","stim","<div class = stroopbox><div class = stroop-stim style = ""color:red"">BLEU</div></div>","89,71,82","1500","true","89","","incongruent","red","blue","57","test",""
"601","71","poldrack-single-stim","86","222061","0.0-11.0-58.0","sub-09_sess-02_2","","2272","0","stim","<div class = stroopbox><div class = stroop-stim style = ""color:#1F45FC"">ROUGE</div></div>","89,71,82","1500","true","71","","incongruent","blue","red","58","test",""
"603","82","poldrack-single-stim","87","224341","0.0-11.0-59.0","sub-09_sess-02_2","","2272","0","stim","<div class = stroopbox><div class = stroop-stim style = ""color:#4FE829"">ROUGE</div></div>","89,71,82","1500","true","82","","incongruent","green","red","59","test",""
"821","82","poldrack-single-stim","88","226361","0.0-11.0-60.0","sub-09_sess-02_2","","2000","0","stim","<div class = stroopbox><div class = stroop-stim style = ""color:#1F45FC"">VERT</div></div>","89,71,82","1500","false","71","","incongruent","blue","green","60","test",""
"694","89","poldrack-single-stim","89","229060","0.0-11.0-61.0","sub-09_sess-02_2","","2680","0","stim","<div class = stroopbox><div class = stroop-stim style = ""color:red"">ROUGE</div></div>","89,71,82","1500","true","89","","congruent","red","red","61","test",""
"774","89","poldrack-single-stim","90","231080","0.0-11.0-62.0","sub-09_sess-02_2","","2000","0","stim","<div class = stroopbox><div class = stroop-stim style = ""color:red"">BLEU</div></div>","89,71,82","1500","true","89","","incongruent","red","blue","62","test",""
"558","82","poldrack-single-stim","91","233361","0.0-11.0-63.0","sub-09_sess-02_2","","2272","0","stim","<div class = stroopbox><div class = stroop-stim style = ""color:#4FE829"">VERT</div></div>","89,71,82","1500","true","82","","congruent","green","green","63","test",""
"597","71","poldrack-single-stim","92","235370","0.0-11.0-64.0","sub-09_sess-02_2","","2000","0","stim","<div class = stroopbox><div class = stroop-stim style = ""color:#1F45FC"">BLEU</div></div>","89,71,82","1500","true","71","","congruent","blue","blue","64","test",""
"570","89","poldrack-single-stim","93","237390","0.0-11.0-65.0","sub-09_sess-02_2","","2000","0","stim","<div class = stroopbox><div class = stroop-stim style = ""color:red"">ROUGE</div></div>","89,71,82","1500","true","89","","congruent","red","red","65","test",""
"603","89","poldrack-single-stim","94","239680","0.0-11.0-66.0","sub-09_sess-02_2","","2272","0","stim","<div class = stroopbox><div class = stroop-stim style = ""color:red"">BLEU</div></div>","89,71,82","1500","true","89","","incongruent","red","blue","66","test",""
"688","71","poldrack-single-stim","95","241822","0.0-11.0-67.0","sub-09_sess-02_2","","2136","0","stim","<div class = stroopbox><div class = stroop-stim style = ""color:#1F45FC"">BLEU</div></div>","89,71,82","1500","true","71","","congruent","blue","blue","67","test",""
"552","71","poldrack-single-stim","96","244370","0.0-11.0-68.0","sub-09_sess-02_2","","2544","0","stim","<div class = stroopbox><div class = stroop-stim style = ""color:#1F45FC"">BLEU</div></div>","89,71,82","1500","true","71","","congruent","blue","blue","68","test",""
"665","82","poldrack-single-stim","97","246790","0.0-11.0-69.0","sub-09_sess-02_2","","2408","0","stim","<div class = stroopbox><div class = stroop-stim style = ""color:#4FE829"">ROUGE</div></div>","89,71,82","1500","true","82","","incongruent","green","red","69","test",""
"750","71","poldrack-single-stim","98","248812","0.0-11.0-70.0","sub-09_sess-02_2","","2000","0","stim","<div class = stroopbox><div class = stroop-stim style = ""color:#1F45FC"">ROUGE</div></div>","89,71,82","1500","true","71","","incongruent","blue","red","70","test",""
"650","82","poldrack-single-stim","99","250819","0.0-11.0-71.0","sub-09_sess-02_2","","2000","0","stim","<div class = stroopbox><div class = stroop-stim style = ""color:#4FE829"">ROUGE</div></div>","89,71,82","1500","true","82","","incongruent","green","red","71","test",""
"662","89","poldrack-single-stim","100","252839","0.0-11.0-72.0","sub-09_sess-02_2","","2000","0","stim","<div class = stroopbox><div class = stroop-stim style = ""color:red"">VERT</div></div>","89,71,82","1500","true","89","","incongruent","red","green","72","test",""
"586","82","poldrack-single-stim","101","255401","0.0-11.0-73.0","sub-09_sess-02_2","","2544","0","stim","<div class = stroopbox><div class = stroop-stim style = ""color:#4FE829"">VERT</div></div>","89,71,82","1500","true","82","","congruent","green","green","73","test",""
"564","89","poldrack-single-stim","102","257561","0.0-11.0-74.0","sub-09_sess-02_2","","2136","0","stim","<div class = stroopbox><div class = stroop-stim style = ""color:red"">ROUGE</div></div>","89,71,82","1500","true","89","","congruent","red","red","74","test",""
"633","89","poldrack-single-stim","103","259580","0.0-11.0-75.0","sub-09_sess-02_2","","2000","0","stim","<div class = stroopbox><div class = stroop-stim style = ""color:red"">ROUGE</div></div>","89,71,82","1500","true","89","","congruent","red","red","75","test",""
"607","82","poldrack-single-stim","104","261600","0.0-11.0-76.0","sub-09_sess-02_2","","2000","0","stim","<div class = stroopbox><div class = stroop-stim style = ""color:#4FE829"">VERT</div></div>","89,71,82","1500","true","82","","congruent","green","green","76","test",""
"642","71","poldrack-single-stim","105","263879","0.0-11.0-77.0","sub-09_sess-02_2","","2272","0","stim","<div class = stroopbox><div class = stroop-stim style = ""color:#1F45FC"">BLEU</div></div>","89,71,82","1500","true","71","","congruent","blue","blue","77","test",""
"649","89","poldrack-single-stim","106","265899","0.0-11.0-78.0","sub-09_sess-02_2","","2000","0","stim","<div class = stroopbox><div class = stroop-stim style = ""color:red"">BLEU</div></div>","89,71,82","1500","true","89","","incongruent","red","blue","78","test",""
"462","82","poldrack-single-stim","107","267920","0.0-11.0-79.0","sub-09_sess-02_2","","2000","0","stim","<div class = stroopbox><div class = stroop-stim style = ""color:#4FE829"">VERT</div></div>","89,71,82","1500","true","82","","congruent","green","green","79","test",""
"745","82","poldrack-single-stim","108","270069","0.0-11.0-80.0","sub-09_sess-02_2","","2136","0","stim","<div class = stroopbox><div class = stroop-stim style = ""color:#4FE829"">ROUGE</div></div>","89,71,82","1500","true","82","","incongruent","green","red","80","test",""
"630","71","poldrack-single-stim","109","272089","0.0-11.0-81.0","sub-09_sess-02_2","","2000","0","stim","<div class = stroopbox><div class = stroop-stim style = ""color:#1F45FC"">VERT</div></div>","89,71,82","1500","true","71","","incongruent","blue","green","81","test",""
"549","71","poldrack-single-stim","110","274381","0.0-11.0-82.0","sub-09_sess-02_2","","2272","0","stim","<div class = stroopbox><div class = stroop-stim style = ""color:#1F45FC"">ROUGE</div></div>","89,71,82","1500","true","71","","incongruent","blue","red","82","test",""
"510","82","poldrack-single-stim","111","276539","0.0-11.0-83.0","sub-09_sess-02_2","","2136","0","stim","<div class = stroopbox><div class = stroop-stim style = ""color:#4FE829"">VERT</div></div>","89,71,82","1500","true","82","","congruent","green","green","83","test",""
"612","82","poldrack-single-stim","112","278969","0.0-11.0-84.0","sub-09_sess-02_2","","2408","0","stim","<div class = stroopbox><div class = stroop-stim style = ""color:#4FE829"">BLEU</div></div>","89,71,82","1500","true","82","","incongruent","green","blue","84","test",""
"642","89","poldrack-single-stim","113","280990","0.0-11.0-85.0","sub-09_sess-02_2","","2000","0","stim","<div class = stroopbox><div class = stroop-stim style = ""color:red"">ROUGE</div></div>","89,71,82","1500","true","89","","congruent","red","red","85","test",""
"591","89","poldrack-single-stim","114","283010","0.0-11.0-86.0","sub-09_sess-02_2","","2000","0","stim","<div class = stroopbox><div class = stroop-stim style = ""color:red"">ROUGE</div></div>","89,71,82","1500","true","89","","congruent","red","red","86","test",""
"926","71","poldrack-single-stim","115","285841","0.0-11.0-87.0","sub-09_sess-02_2","","2816","0","stim","<div class = stroopbox><div class = stroop-stim style = ""color:#1F45FC"">ROUGE</div></div>","89,71,82","1500","true","71","","incongruent","blue","red","87","test",""
"829","71","poldrack-single-stim","116","287859","0.0-11.0-88.0","sub-09_sess-02_2","","2000","0","stim","<div class = stroopbox><div class = stroop-stim style = ""color:#1F45FC"">VERT</div></div>","89,71,82","1500","true","71","","incongruent","blue","green","88","test",""
"683","71","poldrack-single-stim","117","289871","0.0-11.0-89.0","sub-09_sess-02_2","","2000","0","stim","<div class = stroopbox><div class = stroop-stim style = ""color:#1F45FC"">VERT</div></div>","89,71,82","1500","true","71","","incongruent","blue","green","89","test",""
"571","71","poldrack-single-stim","118","292021","0.0-11.0-90.0","sub-09_sess-02_2","","2136","0","stim","<div class = stroopbox><div class = stroop-stim style = ""color:#1F45FC"">BLEU</div></div>","89,71,82","1500","true","71","","congruent","blue","blue","90","test",""
"521","82","poldrack-single-stim","119","294040","0.0-11.0-91.0","sub-09_sess-02_2","","2000","0","stim","<div class = stroopbox><div class = stroop-stim style = ""color:#4FE829"">VERT</div></div>","89,71,82","1500","true","82","","congruent","green","green","91","test",""
"589","89","poldrack-single-stim","120","296060","0.0-11.0-92.0","sub-09_sess-02_2","","2000","0","stim","<div class = stroopbox><div class = stroop-stim style = ""color:red"">VERT</div></div>","89,71,82","1500","true","89","","incongruent","red","green","92","test",""
"734","71","poldrack-single-stim","121","298080","0.0-11.0-93.0","sub-09_sess-02_2","","2000","0","stim","<div class = stroopbox><div class = stroop-stim style = ""color:#1F45FC"">BLEU</div></div>","89,71,82","1500","true","71","","congruent","blue","blue","93","test",""
"827","71","poldrack-single-stim","122","300100","0.0-11.0-94.0","sub-09_sess-02_2","","2000","0","stim","<div class = stroopbox><div class = stroop-stim style = ""color:#1F45FC"">VERT</div></div>","89,71,82","1500","true","71","","incongruent","blue","green","94","test",""
"458","82","poldrack-single-stim","123","302121","0.0-11.0-95.0","sub-09_sess-02_2","","2000","0","stim","<div class = stroopbox><div class = stroop-stim style = ""color:#4FE829"">VERT</div></div>","89,71,82","1500","true","82","","congruent","green","green","95","test",""
"4001","32","poldrack-single-stim","124","306125","0.0-12.0","sub-09_sess-02_2","","4001","0","end","<div class = centerbox><div class = center-text><i>Fin</i></div></div>","32","4001","","","","","","","","","stroop"
"1462","13","text","125","307587","0.0-13.0","sub-09_sess-02_2","","","","","","","","","","","","","","","",""
