"rt","key_press","trial_type","trial_index","time_elapsed","internal_node_id","subject","text","block_duration","timing_post_trial","trial_id","responses","stimulus","possible_responses","stim_duration","correct","correct_response","feedback_duration","exp_stage","trial_num","SS_stimulus","SS_delay","SS_trial_type","SS_duration","exp_id"
"1367","13","text","0","1370","0.0-0.0","sub-14_ses-01_1","","","","","","","","","","","","","","","","","",""
"1996","89","poldrack-text","1","4379","0.0-1.0","sub-14_ses-01_1","<div class = centerbox><div style = 'font-size: 50px' class = center-text>Veuillez appuyer avec votre index</p></div>","1996","500","fmri_response_test","","","","","","","","","","","","","",""
"897","71","poldrack-text","2","5786","0.0-2.0","sub-14_ses-01_1","<div class = centerbox><div style = 'font-size: 50px' class = center-text>Veuillez appuyer avec votre majeur</p></div>","897","500","fmri_response_test","","","","","","","","","","","","","",""
"7797","","survey-text","3","14104","0.0-3.0","sub-14_ses-01_1","","","","task_setup","{""Q0"":""250""}","","","","","","","","","","","","",""
"9162","32","poldrack-single-stim","4","24370","0.0-4.0","sub-14_ses-01_1","","9162","0","instructions","","<div class = instructbox><p class = instruct-text><font size=""+2"">Une seule cle est correcte pour chaque forme. Ne repondez pas si vous voyez l'etoile rouge! Les cles correctes son les suivantes:</font><ul list-text><li><div class = prompt_container><img class = prompt_stim src = /static/experiments/stop_signal/images/moon.png width= ""50%"" height= ""50%""></img>Index</div></li></li><li><div class = prompt_container><img class = prompt_stim src = /static/experiments/stop_signal/images/oval.png width= ""50%"" height= ""50%""></img>Index</div></li> </li><li><div class = prompt_container><img class = prompt_stim src = /static/experiments/stop_signal/images/rectangle.png width= ""50%"" height= ""50%""></img>Majeur</div></li> </li><li><div class = prompt_container><img class = prompt_stim src = /static/experiments/stop_signal/images/trapezoid.png width= ""50%"" height= ""50%""></img>Majeur</div></li></ul></div>","32","9162","","","","","","","","","",""
"1162","71","poldrack-categorize","5","26767","0.0-5.0-0.0-0.0","sub-14_ses-01_1","","1850","250","stim","","<div class = coverbox></div><div class = shapebox><img class = stim src = /static/experiments/stop_signal/images/rectangle.png></img></div>","89,71","850","true","71","500","practice","0","","","","",""
"635","71","poldrack-categorize","6","29407","0.0-5.0-0.0-1.0","sub-14_ses-01_1","","1850","250","stim","","<div class = coverbox></div><div class = shapebox><img class = stim src = /static/experiments/stop_signal/images/rectangle.png></img></div>","89,71","850","true","71","500","practice","1","","","","",""
"570","89","poldrack-categorize","7","32054","0.0-5.0-0.0-2.0","sub-14_ses-01_1","","1850","250","stim","","<div class = coverbox></div><div class = shapebox><img class = stim src = /static/experiments/stop_signal/images/moon.png></img></div>","89,71","850","true","89","500","practice","2","","","","",""
"517","89","poldrack-categorize","8","34697","0.0-5.0-0.0-3.0","sub-14_ses-01_1","","1850","250","stim","","<div class = coverbox></div><div class = shapebox><img class = stim src = /static/experiments/stop_signal/images/oval.png></img></div>","89,71","850","true","89","500","practice","3","","","","",""
"822","89","poldrack-categorize","9","37337","0.0-5.0-0.0-4.0","sub-14_ses-01_1","","1850","250","stim","","<div class = coverbox></div><div class = shapebox><img class = stim src = /static/experiments/stop_signal/images/moon.png></img></div>","89,71","850","true","89","500","practice","4","","","","",""
"757","71","poldrack-categorize","10","39978","0.0-5.0-0.0-5.0","sub-14_ses-01_1","","1850","250","stim","","<div class = coverbox></div><div class = shapebox><img class = stim src = /static/experiments/stop_signal/images/trapezoid.png></img></div>","89,71","850","true","71","500","practice","5","","","","",""
"920","89","poldrack-categorize","11","42627","0.0-5.0-0.0-6.0","sub-14_ses-01_1","","1850","250","stim","","<div class = coverbox></div><div class = shapebox><img class = stim src = /static/experiments/stop_signal/images/moon.png></img></div>","89,71","850","true","89","500","practice","6","","","","",""
"572","71","poldrack-categorize","12","45267","0.0-5.0-0.0-7.0","sub-14_ses-01_1","","1850","250","stim","","<div class = coverbox></div><div class = shapebox><img class = stim src = /static/experiments/stop_signal/images/rectangle.png></img></div>","89,71","850","true","71","500","practice","7","","","","",""
"744","89","poldrack-categorize","13","47905","0.0-5.0-0.0-8.0","sub-14_ses-01_1","","1850","250","stim","","<div class = coverbox></div><div class = shapebox><img class = stim src = /static/experiments/stop_signal/images/oval.png></img></div>","89,71","850","true","89","500","practice","8","","","","",""
"973","71","poldrack-categorize","14","50547","0.0-5.0-0.0-9.0","sub-14_ses-01_1","","1850","250","stim","","<div class = coverbox></div><div class = shapebox><img class = stim src = /static/experiments/stop_signal/images/trapezoid.png></img></div>","89,71","850","true","71","500","practice","9","","","","",""
"800","89","poldrack-categorize","15","53187","0.0-5.0-0.0-10.0","sub-14_ses-01_1","","1850","250","stim","","<div class = coverbox></div><div class = shapebox><img class = stim src = /static/experiments/stop_signal/images/oval.png></img></div>","89,71","850","true","89","500","practice","10","","","","",""
"832","71","poldrack-categorize","16","55837","0.0-5.0-0.0-11.0","sub-14_ses-01_1","","1850","250","stim","","<div class = coverbox></div><div class = shapebox><img class = stim src = /static/experiments/stop_signal/images/trapezoid.png></img></div>","89,71","850","true","71","500","practice","11","","","","",""
"10313","32","poldrack-text","17","66415","0.0-6.0","sub-14_ses-01_1","<div class = centerbox><div  class = center-text>Scanner Setup</div></div>","10313","0","fmri_scanner_wait","","","","","","","","","","","","","",""
"55628","84","poldrack-text","18","122047","0.0-7.0","sub-14_ses-01_1","<div class = centerbox><div style='color:red'; class = center-text>+</div></div>","55628","0","fmri_trigger_wait","","","","","","","","","","","","","",""
"-1","-1","poldrack-single-stim","19","123057","0.0-8.0","sub-14_ses-01_1","","1000","0","fmri_buffer","","","none","1000","","","","","","","","","",""
"-1","-1","poldrack-single-stim","20","124568","0.0-9.0","sub-14_ses-01_1","","1500","500","test_start_block","","<div class = centerbox><div class = center-text>Prerparez-vous!</p></div>","none","1500","","","","","","","","","",""
"-1","-1","stop-signal","21","127348","0.0-10.0-0.0","sub-14_ses-01_1","","2250","0","stim","","<div class = coverbox></div><div class = shapebox><img class = stim src = /static/experiments/stop_signal/images/trapezoid.png></img></div>","89,71","850","false","71","","test","0","<div class = coverbox></div><div class = stopbox><div class = centered-shape id = stop-signal></div><div class = centered-shape id = stop-signal-inner></div></div>","250","stop","500",""
"737","89","stop-signal","22","130027","0.0-10.0-1.0","sub-14_ses-01_1","","2658","0","stim","","<div class = coverbox></div><div class = shapebox><img class = stim src = /static/experiments/stop_signal/images/moon.png></img></div>","89,71","850","true","89","","test","1","<div class = coverbox></div><div class = stopbox><div class = centered-shape id = stop-signal></div><div class = centered-shape id = stop-signal-inner></div></div>","300","go","500",""
"702","71","stop-signal","23","132708","0.0-10.0-2.0","sub-14_ses-01_1","","2658","0","stim","","<div class = coverbox></div><div class = shapebox><img class = stim src = /static/experiments/stop_signal/images/rectangle.png></img></div>","89,71","850","true","71","","test","2","<div class = coverbox></div><div class = stopbox><div class = centered-shape id = stop-signal></div><div class = centered-shape id = stop-signal-inner></div></div>","300","go","500",""
"843","71","stop-signal","24","134967","0.0-10.0-3.0","sub-14_ses-01_1","","2250","0","stim","","<div class = coverbox></div><div class = shapebox><img class = stim src = /static/experiments/stop_signal/images/trapezoid.png></img></div>","89,71","850","true","71","","test","3","<div class = coverbox></div><div class = stopbox><div class = centered-shape id = stop-signal></div><div class = centered-shape id = stop-signal-inner></div></div>","300","go","500",""
"914","89","stop-signal","25","137228","0.0-10.0-4.0","sub-14_ses-01_1","","2250","0","stim","","<div class = coverbox></div><div class = shapebox><img class = stim src = /static/experiments/stop_signal/images/oval.png></img></div>","89,71","850","true","89","","test","4","<div class = coverbox></div><div class = stopbox><div class = centered-shape id = stop-signal></div><div class = centered-shape id = stop-signal-inner></div></div>","300","go","500",""
"772","71","stop-signal","26","139636","0.0-10.0-5.0","sub-14_ses-01_1","","2386","0","stim","","<div class = coverbox></div><div class = shapebox><img class = stim src = /static/experiments/stop_signal/images/rectangle.png></img></div>","89,71","850","true","71","","test","5","<div class = coverbox></div><div class = stopbox><div class = centered-shape id = stop-signal></div><div class = centered-shape id = stop-signal-inner></div></div>","300","go","500",""
"-1","-1","stop-signal","27","142437","0.0-10.0-6.0","sub-14_ses-01_1","","2794","0","stim","","<div class = coverbox></div><div class = shapebox><img class = stim src = /static/experiments/stop_signal/images/rectangle.png></img></div>","89,71","850","false","71","","test","6","<div class = coverbox></div><div class = stopbox><div class = centered-shape id = stop-signal></div><div class = centered-shape id = stop-signal-inner></div></div>","300","stop","500",""
"-1","-1","stop-signal","28","144837","0.0-10.0-7.0","sub-14_ses-01_1","","2386","0","stim","","<div class = coverbox></div><div class = shapebox><img class = stim src = /static/experiments/stop_signal/images/rectangle.png></img></div>","89,71","850","false","71","","test","7","<div class = coverbox></div><div class = stopbox><div class = centered-shape id = stop-signal></div><div class = centered-shape id = stop-signal-inner></div></div>","350","stop","500",""
"-1","-1","stop-signal","29","147097","0.0-10.0-8.0","sub-14_ses-01_1","","2250","0","stim","","<div class = coverbox></div><div class = shapebox><img class = stim src = /static/experiments/stop_signal/images/trapezoid.png></img></div>","89,71","850","false","71","","test","8","<div class = coverbox></div><div class = stopbox><div class = centered-shape id = stop-signal></div><div class = centered-shape id = stop-signal-inner></div></div>","400","stop","500",""
"-1","-1","stop-signal","30","149356","0.0-10.0-9.0","sub-14_ses-01_1","","2250","0","stim","","<div class = coverbox></div><div class = shapebox><img class = stim src = /static/experiments/stop_signal/images/moon.png></img></div>","89,71","850","false","89","","test","9","<div class = coverbox></div><div class = stopbox><div class = centered-shape id = stop-signal></div><div class = centered-shape id = stop-signal-inner></div></div>","450","stop","500",""
"-1","-1","stop-signal","31","151618","0.0-10.0-10.0","sub-14_ses-01_1","","2250","0","stim","","<div class = coverbox></div><div class = shapebox><img class = stim src = /static/experiments/stop_signal/images/oval.png></img></div>","89,71","850","false","89","","test","10","<div class = coverbox></div><div class = stopbox><div class = centered-shape id = stop-signal></div><div class = centered-shape id = stop-signal-inner></div></div>","500","stop","500",""
"913","71","stop-signal","32","154296","0.0-10.0-11.0","sub-14_ses-01_1","","2658","0","stim","","<div class = coverbox></div><div class = shapebox><img class = stim src = /static/experiments/stop_signal/images/trapezoid.png></img></div>","89,71","850","true","71","","test","11","<div class = coverbox></div><div class = stopbox><div class = centered-shape id = stop-signal></div><div class = centered-shape id = stop-signal-inner></div></div>","550","go","500",""
"961","71","stop-signal","33","156978","0.0-10.0-12.0","sub-14_ses-01_1","","2658","0","stim","","<div class = coverbox></div><div class = shapebox><img class = stim src = /static/experiments/stop_signal/images/trapezoid.png></img></div>","89,71","850","true","71","","test","12","<div class = coverbox></div><div class = stopbox><div class = centered-shape id = stop-signal></div><div class = centered-shape id = stop-signal-inner></div></div>","550","go","500",""
"932","89","stop-signal","34","159247","0.0-10.0-13.0","sub-14_ses-01_1","","2250","0","stim","","<div class = coverbox></div><div class = shapebox><img class = stim src = /static/experiments/stop_signal/images/oval.png></img></div>","89,71","850","true","89","","test","13","<div class = coverbox></div><div class = stopbox><div class = centered-shape id = stop-signal></div><div class = centered-shape id = stop-signal-inner></div></div>","550","go","500",""
"1018","89","stop-signal","35","161787","0.0-10.0-14.0","sub-14_ses-01_1","","2522","0","stim","","<div class = coverbox></div><div class = shapebox><img class = stim src = /static/experiments/stop_signal/images/oval.png></img></div>","89,71","850","true","89","","test","14","<div class = coverbox></div><div class = stopbox><div class = centered-shape id = stop-signal></div><div class = centered-shape id = stop-signal-inner></div></div>","550","go","500",""
"922","71","stop-signal","36","164052","0.0-10.0-15.0","sub-14_ses-01_1","","2250","0","stim","","<div class = coverbox></div><div class = shapebox><img class = stim src = /static/experiments/stop_signal/images/rectangle.png></img></div>","89,71","850","true","71","","test","15","<div class = coverbox></div><div class = stopbox><div class = centered-shape id = stop-signal></div><div class = centered-shape id = stop-signal-inner></div></div>","550","go","500",""
"580","71","stop-signal","37","166597","0.0-10.0-16.0","sub-14_ses-01_1","","2522","0","stim","","<div class = coverbox></div><div class = shapebox><img class = stim src = /static/experiments/stop_signal/images/rectangle.png></img></div>","89,71","850","true","71","","test","16","<div class = coverbox></div><div class = stopbox><div class = centered-shape id = stop-signal></div><div class = centered-shape id = stop-signal-inner></div></div>","550","stop","500",""
"955","89","stop-signal","38","169127","0.0-10.0-17.0","sub-14_ses-01_1","","2522","0","stim","","<div class = coverbox></div><div class = shapebox><img class = stim src = /static/experiments/stop_signal/images/moon.png></img></div>","89,71","850","true","89","","test","17","<div class = coverbox></div><div class = stopbox><div class = centered-shape id = stop-signal></div><div class = centered-shape id = stop-signal-inner></div></div>","500","go","500",""
"-1","-1","stop-signal","39","171668","0.0-10.0-18.0","sub-14_ses-01_1","","2522","0","stim","","<div class = coverbox></div><div class = shapebox><img class = stim src = /static/experiments/stop_signal/images/moon.png></img></div>","89,71","850","false","89","","test","18","<div class = coverbox></div><div class = stopbox><div class = centered-shape id = stop-signal></div><div class = centered-shape id = stop-signal-inner></div></div>","500","stop","500",""
"-1","-1","stop-signal","40","174067","0.0-10.0-19.0","sub-14_ses-01_1","","2386","0","stim","","<div class = coverbox></div><div class = shapebox><img class = stim src = /static/experiments/stop_signal/images/trapezoid.png></img></div>","89,71","850","false","71","","test","19","<div class = coverbox></div><div class = stopbox><div class = centered-shape id = stop-signal></div><div class = centered-shape id = stop-signal-inner></div></div>","550","stop","500",""
"-1","-1","stop-signal","41","176597","0.0-10.0-20.0","sub-14_ses-01_1","","2522","0","stim","","<div class = coverbox></div><div class = shapebox><img class = stim src = /static/experiments/stop_signal/images/trapezoid.png></img></div>","89,71","850","false","71","","test","20","<div class = coverbox></div><div class = stopbox><div class = centered-shape id = stop-signal></div><div class = centered-shape id = stop-signal-inner></div></div>","600","stop","500",""
"1220","71","stop-signal","42","179127","0.0-10.0-21.0","sub-14_ses-01_1","","2522","0","stim","","<div class = coverbox></div><div class = shapebox><img class = stim src = /static/experiments/stop_signal/images/trapezoid.png></img></div>","89,71","850","true","71","","test","21","<div class = coverbox></div><div class = stopbox><div class = centered-shape id = stop-signal></div><div class = centered-shape id = stop-signal-inner></div></div>","650","go","500",""
"1194","71","stop-signal","43","181517","0.0-10.0-22.0","sub-14_ses-01_1","","2386","0","stim","","<div class = coverbox></div><div class = shapebox><img class = stim src = /static/experiments/stop_signal/images/trapezoid.png></img></div>","89,71","850","true","71","","test","22","<div class = coverbox></div><div class = stopbox><div class = centered-shape id = stop-signal></div><div class = centered-shape id = stop-signal-inner></div></div>","650","go","500",""
"1034","71","stop-signal","44","183786","0.0-10.0-23.0","sub-14_ses-01_1","","2250","0","stim","","<div class = coverbox></div><div class = shapebox><img class = stim src = /static/experiments/stop_signal/images/trapezoid.png></img></div>","89,71","850","true","71","","test","23","<div class = coverbox></div><div class = stopbox><div class = centered-shape id = stop-signal></div><div class = centered-shape id = stop-signal-inner></div></div>","650","go","500",""
"1091","71","stop-signal","45","186327","0.0-10.0-24.0","sub-14_ses-01_1","","2522","0","stim","","<div class = coverbox></div><div class = shapebox><img class = stim src = /static/experiments/stop_signal/images/rectangle.png></img></div>","89,71","850","true","71","","test","24","<div class = coverbox></div><div class = stopbox><div class = centered-shape id = stop-signal></div><div class = centered-shape id = stop-signal-inner></div></div>","650","go","500",""
"877","89","stop-signal","46","189127","0.0-10.0-25.0","sub-14_ses-01_1","","2794","0","stim","","<div class = coverbox></div><div class = shapebox><img class = stim src = /static/experiments/stop_signal/images/moon.png></img></div>","89,71","850","true","89","","test","25","<div class = coverbox></div><div class = stopbox><div class = centered-shape id = stop-signal></div><div class = centered-shape id = stop-signal-inner></div></div>","650","go","500",""
"902","89","stop-signal","47","191667","0.0-10.0-26.0","sub-14_ses-01_1","","2522","0","stim","","<div class = coverbox></div><div class = shapebox><img class = stim src = /static/experiments/stop_signal/images/oval.png></img></div>","89,71","850","true","89","","test","26","<div class = coverbox></div><div class = stopbox><div class = centered-shape id = stop-signal></div><div class = centered-shape id = stop-signal-inner></div></div>","650","stop","500",""
"-1","-1","stop-signal","48","194079","0.0-10.0-27.0","sub-14_ses-01_1","","2386","0","stim","","<div class = coverbox></div><div class = shapebox><img class = stim src = /static/experiments/stop_signal/images/trapezoid.png></img></div>","89,71","850","false","71","","test","27","<div class = coverbox></div><div class = stopbox><div class = centered-shape id = stop-signal></div><div class = centered-shape id = stop-signal-inner></div></div>","600","stop","500",""
"-1","-1","stop-signal","49","196337","0.0-10.0-28.0","sub-14_ses-01_1","","2250","0","stim","","<div class = coverbox></div><div class = shapebox><img class = stim src = /static/experiments/stop_signal/images/rectangle.png></img></div>","89,71","850","false","71","","test","28","<div class = coverbox></div><div class = stopbox><div class = centered-shape id = stop-signal></div><div class = centered-shape id = stop-signal-inner></div></div>","650","go","500",""
"-1","-1","stop-signal","50","198607","0.0-10.0-29.0","sub-14_ses-01_1","","2250","0","stim","","<div class = coverbox></div><div class = shapebox><img class = stim src = /static/experiments/stop_signal/images/moon.png></img></div>","89,71","850","false","89","","test","29","<div class = coverbox></div><div class = stopbox><div class = centered-shape id = stop-signal></div><div class = centered-shape id = stop-signal-inner></div></div>","650","stop","500",""
"-1","-1","stop-signal","51","200867","0.0-10.0-30.0","sub-14_ses-01_1","","2250","0","stim","","<div class = coverbox></div><div class = shapebox><img class = stim src = /static/experiments/stop_signal/images/moon.png></img></div>","89,71","850","false","89","","test","30","<div class = coverbox></div><div class = stopbox><div class = centered-shape id = stop-signal></div><div class = centered-shape id = stop-signal-inner></div></div>","700","stop","500",""
"-1","-1","stop-signal","52","203138","0.0-10.0-31.0","sub-14_ses-01_1","","2250","0","stim","","<div class = coverbox></div><div class = shapebox><img class = stim src = /static/experiments/stop_signal/images/oval.png></img></div>","89,71","850","false","89","","test","31","<div class = coverbox></div><div class = stopbox><div class = centered-shape id = stop-signal></div><div class = centered-shape id = stop-signal-inner></div></div>","750","stop","500",""
"1088","71","stop-signal","53","205667","0.0-10.0-32.0","sub-14_ses-01_1","","2522","0","stim","","<div class = coverbox></div><div class = shapebox><img class = stim src = /static/experiments/stop_signal/images/trapezoid.png></img></div>","89,71","850","true","71","","test","32","<div class = coverbox></div><div class = stopbox><div class = centered-shape id = stop-signal></div><div class = centered-shape id = stop-signal-inner></div></div>","800","go","500",""
"1241","71","stop-signal","54","207926","0.0-10.0-33.0","sub-14_ses-01_1","","2250","0","stim","","<div class = coverbox></div><div class = shapebox><img class = stim src = /static/experiments/stop_signal/images/trapezoid.png></img></div>","89,71","850","true","71","","test","33","<div class = coverbox></div><div class = stopbox><div class = centered-shape id = stop-signal></div><div class = centered-shape id = stop-signal-inner></div></div>","800","go","500",""
"-1","-1","stop-signal","55","210198","0.0-10.0-34.0","sub-14_ses-01_1","","2250","0","stim","","<div class = coverbox></div><div class = shapebox><img class = stim src = /static/experiments/stop_signal/images/trapezoid.png></img></div>","89,71","850","false","71","","test","34","<div class = coverbox></div><div class = stopbox><div class = centered-shape id = stop-signal></div><div class = centered-shape id = stop-signal-inner></div></div>","800","stop","500",""
"1336","89","stop-signal","56","212466","0.0-10.0-35.0","sub-14_ses-01_1","","2250","0","stim","","<div class = coverbox></div><div class = shapebox><img class = stim src = /static/experiments/stop_signal/images/moon.png></img></div>","89,71","850","true","89","","test","35","<div class = coverbox></div><div class = stopbox><div class = centered-shape id = stop-signal></div><div class = centered-shape id = stop-signal-inner></div></div>","850","go","500",""
"1185","71","stop-signal","57","214736","0.0-10.0-36.0","sub-14_ses-01_1","","2250","0","stim","","<div class = coverbox></div><div class = shapebox><img class = stim src = /static/experiments/stop_signal/images/rectangle.png></img></div>","89,71","850","true","71","","test","36","<div class = coverbox></div><div class = stopbox><div class = centered-shape id = stop-signal></div><div class = centered-shape id = stop-signal-inner></div></div>","850","go","500",""
"1228","71","stop-signal","58","217198","0.0-10.0-37.0","sub-14_ses-01_1","","2386","0","stim","","<div class = coverbox></div><div class = shapebox><img class = stim src = /static/experiments/stop_signal/images/rectangle.png></img></div>","89,71","850","true","71","","test","37","<div class = coverbox></div><div class = stopbox><div class = centered-shape id = stop-signal></div><div class = centered-shape id = stop-signal-inner></div></div>","850","go","500",""
"1172","71","stop-signal","59","219466","0.0-10.0-38.0","sub-14_ses-01_1","","2250","0","stim","","<div class = coverbox></div><div class = shapebox><img class = stim src = /static/experiments/stop_signal/images/rectangle.png></img></div>","89,71","850","true","71","","test","38","<div class = coverbox></div><div class = stopbox><div class = centered-shape id = stop-signal></div><div class = centered-shape id = stop-signal-inner></div></div>","850","go","500",""
"-1","-1","stop-signal","60","221736","0.0-10.0-39.0","sub-14_ses-01_1","","2250","0","stim","","<div class = coverbox></div><div class = shapebox><img class = stim src = /static/experiments/stop_signal/images/trapezoid.png></img></div>","89,71","850","false","71","","test","39","<div class = coverbox></div><div class = stopbox><div class = centered-shape id = stop-signal></div><div class = centered-shape id = stop-signal-inner></div></div>","850","stop","500",""
"1426","71","stop-signal","61","224006","0.0-10.0-40.0","sub-14_ses-01_1","","2250","0","stim","","<div class = coverbox></div><div class = shapebox><img class = stim src = /static/experiments/stop_signal/images/rectangle.png></img></div>","89,71","850","true","71","","test","40","<div class = coverbox></div><div class = stopbox><div class = centered-shape id = stop-signal></div><div class = centered-shape id = stop-signal-inner></div></div>","900","go","500",""
"-1","-1","poldrack-single-stim","62","231527","0.0-11.0","sub-14_ses-01_1","","7500","1000","rest_block","","<div class = centerbox><div class = center-text>+</div></div>","none","7500","","","","","","","","","",""
"-1","-1","poldrack-single-stim","63","234053","0.0-12.0","sub-14_ses-01_1","","1500","500","test_start_block","","<div class = centerbox><div class = center-text>Prerparez-vous!</p></div>","none","1500","","","","","","","","","",""
"920","71","stop-signal","64","236827","0.0-13.0-0.0","sub-14_ses-01_1","","2250","0","stim","","<div class = coverbox></div><div class = shapebox><img class = stim src = /static/experiments/stop_signal/images/rectangle.png></img></div>","89,71","850","true","71","","test","41","<div class = coverbox></div><div class = stopbox><div class = centered-shape id = stop-signal></div><div class = centered-shape id = stop-signal-inner></div></div>","900","stop","500",""
"-1","-1","stop-signal","65","239367","0.0-13.0-1.0","sub-14_ses-01_1","","2522","0","stim","","<div class = coverbox></div><div class = shapebox><img class = stim src = /static/experiments/stop_signal/images/oval.png></img></div>","89,71","850","false","89","","test","42","<div class = coverbox></div><div class = stopbox><div class = centered-shape id = stop-signal></div><div class = centered-shape id = stop-signal-inner></div></div>","850","stop","500",""
"1283","89","stop-signal","66","241767","0.0-13.0-2.0","sub-14_ses-01_1","","2386","0","stim","","<div class = coverbox></div><div class = shapebox><img class = stim src = /static/experiments/stop_signal/images/moon.png></img></div>","89,71","850","true","89","","test","43","<div class = coverbox></div><div class = stopbox><div class = centered-shape id = stop-signal></div><div class = centered-shape id = stop-signal-inner></div></div>","900","go","500",""
"1446","89","stop-signal","67","244307","0.0-13.0-3.0","sub-14_ses-01_1","","2522","0","stim","","<div class = coverbox></div><div class = shapebox><img class = stim src = /static/experiments/stop_signal/images/moon.png></img></div>","89,71","850","true","89","","test","44","<div class = coverbox></div><div class = stopbox><div class = centered-shape id = stop-signal></div><div class = centered-shape id = stop-signal-inner></div></div>","900","go","500",""
"-1","-1","stop-signal","68","246568","0.0-13.0-4.0","sub-14_ses-01_1","","2250","0","stim","","<div class = coverbox></div><div class = shapebox><img class = stim src = /static/experiments/stop_signal/images/rectangle.png></img></div>","89,71","850","false","71","","test","45","<div class = coverbox></div><div class = stopbox><div class = centered-shape id = stop-signal></div><div class = centered-shape id = stop-signal-inner></div></div>","900","stop","500",""
"1257","89","stop-signal","69","248967","0.0-13.0-5.0","sub-14_ses-01_1","","2386","0","stim","","<div class = coverbox></div><div class = shapebox><img class = stim src = /static/experiments/stop_signal/images/moon.png></img></div>","89,71","850","true","89","","test","46","<div class = coverbox></div><div class = stopbox><div class = centered-shape id = stop-signal></div><div class = centered-shape id = stop-signal-inner></div></div>","950","go","500",""
"1578","71","stop-signal","70","251367","0.0-13.0-6.0","sub-14_ses-01_1","","2386","0","stim","","<div class = coverbox></div><div class = shapebox><img class = stim src = /static/experiments/stop_signal/images/trapezoid.png></img></div>","89,71","850","true","71","","test","47","<div class = coverbox></div><div class = stopbox><div class = centered-shape id = stop-signal></div><div class = centered-shape id = stop-signal-inner></div></div>","950","go","500",""
"1297","89","stop-signal","71","253626","0.0-13.0-7.0","sub-14_ses-01_1","","2250","0","stim","","<div class = coverbox></div><div class = shapebox><img class = stim src = /static/experiments/stop_signal/images/moon.png></img></div>","89,71","850","true","89","","test","48","<div class = coverbox></div><div class = stopbox><div class = centered-shape id = stop-signal></div><div class = centered-shape id = stop-signal-inner></div></div>","950","go","500",""
"1189","89","stop-signal","72","256026","0.0-13.0-8.0","sub-14_ses-01_1","","2386","0","stim","","<div class = coverbox></div><div class = shapebox><img class = stim src = /static/experiments/stop_signal/images/oval.png></img></div>","89,71","850","true","89","","test","49","<div class = coverbox></div><div class = stopbox><div class = centered-shape id = stop-signal></div><div class = centered-shape id = stop-signal-inner></div></div>","950","go","500",""
"1288","71","stop-signal","73","258417","0.0-13.0-9.0","sub-14_ses-01_1","","2386","0","stim","","<div class = coverbox></div><div class = shapebox><img class = stim src = /static/experiments/stop_signal/images/trapezoid.png></img></div>","89,71","850","true","71","","test","50","<div class = coverbox></div><div class = stopbox><div class = centered-shape id = stop-signal></div><div class = centered-shape id = stop-signal-inner></div></div>","950","go","500",""
"-1","-1","stop-signal","74","260817","0.0-13.0-10.0","sub-14_ses-01_1","","2386","0","stim","","<div class = coverbox></div><div class = shapebox><img class = stim src = /static/experiments/stop_signal/images/trapezoid.png></img></div>","89,71","850","false","71","","test","51","<div class = coverbox></div><div class = stopbox><div class = centered-shape id = stop-signal></div><div class = centered-shape id = stop-signal-inner></div></div>","950","stop","500",""
"1494","89","stop-signal","75","263483","0.0-13.0-11.0","sub-14_ses-01_1","","2658","0","stim","","<div class = coverbox></div><div class = shapebox><img class = stim src = /static/experiments/stop_signal/images/oval.png></img></div>","89,71","850","true","89","","test","52","<div class = coverbox></div><div class = stopbox><div class = centered-shape id = stop-signal></div><div class = centered-shape id = stop-signal-inner></div></div>","1000","go","500",""
"1513","89","stop-signal","76","266016","0.0-13.0-12.0","sub-14_ses-01_1","","2522","0","stim","","<div class = coverbox></div><div class = shapebox><img class = stim src = /static/experiments/stop_signal/images/moon.png></img></div>","89,71","850","true","89","","test","53","<div class = coverbox></div><div class = stopbox><div class = centered-shape id = stop-signal></div><div class = centered-shape id = stop-signal-inner></div></div>","1000","go","500",""
"1221","71","stop-signal","77","268277","0.0-13.0-13.0","sub-14_ses-01_1","","2250","0","stim","","<div class = coverbox></div><div class = shapebox><img class = stim src = /static/experiments/stop_signal/images/rectangle.png></img></div>","89,71","850","true","71","","test","54","<div class = coverbox></div><div class = stopbox><div class = centered-shape id = stop-signal></div><div class = centered-shape id = stop-signal-inner></div></div>","1000","stop","500",""
"-1","-1","stop-signal","78","271227","0.0-13.0-14.0","sub-14_ses-01_1","","2930","0","stim","","<div class = coverbox></div><div class = shapebox><img class = stim src = /static/experiments/stop_signal/images/oval.png></img></div>","89,71","850","false","89","","test","55","<div class = coverbox></div><div class = stopbox><div class = centered-shape id = stop-signal></div><div class = centered-shape id = stop-signal-inner></div></div>","950","stop","500",""
"1645","71","stop-signal","79","273488","0.0-13.0-15.0","sub-14_ses-01_1","","2250","0","stim","","<div class = coverbox></div><div class = shapebox><img class = stim src = /static/experiments/stop_signal/images/trapezoid.png></img></div>","89,71","850","true","71","","test","56","<div class = coverbox></div><div class = stopbox><div class = centered-shape id = stop-signal></div><div class = centered-shape id = stop-signal-inner></div></div>","1000","go","500",""
"2147","89","stop-signal","80","276032","0.0-13.0-16.0","sub-14_ses-01_1","","2522","0","stim","","<div class = coverbox></div><div class = shapebox><img class = stim src = /static/experiments/stop_signal/images/oval.png></img></div>","89,71","850","true","89","","test","57","<div class = coverbox></div><div class = stopbox><div class = centered-shape id = stop-signal></div><div class = centered-shape id = stop-signal-inner></div></div>","1000","go","500",""
"-1","-1","stop-signal","81","278298","0.0-13.0-17.0","sub-14_ses-01_1","","2250","0","stim","","<div class = coverbox></div><div class = shapebox><img class = stim src = /static/experiments/stop_signal/images/moon.png></img></div>","89,71","850","false","89","","test","58","<div class = coverbox></div><div class = stopbox><div class = centered-shape id = stop-signal></div><div class = centered-shape id = stop-signal-inner></div></div>","1000","stop","500",""
"1735","89","stop-signal","82","280556","0.0-13.0-18.0","sub-14_ses-01_1","","2250","0","stim","","<div class = coverbox></div><div class = shapebox><img class = stim src = /static/experiments/stop_signal/images/oval.png></img></div>","89,71","850","true","89","","test","59","<div class = coverbox></div><div class = stopbox><div class = centered-shape id = stop-signal></div><div class = centered-shape id = stop-signal-inner></div></div>","1000","go","500",""
"2069","89","stop-signal","83","282817","0.0-13.0-19.0","sub-14_ses-01_1","","2250","0","stim","","<div class = coverbox></div><div class = shapebox><img class = stim src = /static/experiments/stop_signal/images/moon.png></img></div>","89,71","850","true","89","","test","60","<div class = coverbox></div><div class = stopbox><div class = centered-shape id = stop-signal></div><div class = centered-shape id = stop-signal-inner></div></div>","1000","go","500",""
"1813","89","stop-signal","84","285087","0.0-13.0-20.0","sub-14_ses-01_1","","2250","0","stim","","<div class = coverbox></div><div class = shapebox><img class = stim src = /static/experiments/stop_signal/images/oval.png></img></div>","89,71","850","true","89","","test","61","<div class = coverbox></div><div class = stopbox><div class = centered-shape id = stop-signal></div><div class = centered-shape id = stop-signal-inner></div></div>","1000","go","500",""
"2007","89","stop-signal","85","287617","0.0-13.0-21.0","sub-14_ses-01_1","","2522","0","stim","","<div class = coverbox></div><div class = shapebox><img class = stim src = /static/experiments/stop_signal/images/oval.png></img></div>","89,71","850","true","89","","test","62","<div class = coverbox></div><div class = stopbox><div class = centered-shape id = stop-signal></div><div class = centered-shape id = stop-signal-inner></div></div>","1000","go","500",""
"-1","-1","stop-signal","86","290694","0.0-13.0-22.0","sub-14_ses-01_1","","3066","0","stim","","<div class = coverbox></div><div class = shapebox><img class = stim src = /static/experiments/stop_signal/images/oval.png></img></div>","89,71","850","false","89","","test","63","<div class = coverbox></div><div class = stopbox><div class = centered-shape id = stop-signal></div><div class = centered-shape id = stop-signal-inner></div></div>","1000","stop","500",""
"-1","-1","stop-signal","87","292957","0.0-13.0-23.0","sub-14_ses-01_1","","2250","0","stim","","<div class = coverbox></div><div class = shapebox><img class = stim src = /static/experiments/stop_signal/images/moon.png></img></div>","89,71","850","false","89","","test","64","<div class = coverbox></div><div class = stopbox><div class = centered-shape id = stop-signal></div><div class = centered-shape id = stop-signal-inner></div></div>","1000","stop","500",""
"1350","71","stop-signal","88","295357","0.0-13.0-24.0","sub-14_ses-01_1","","2386","0","stim","","<div class = coverbox></div><div class = shapebox><img class = stim src = /static/experiments/stop_signal/images/trapezoid.png></img></div>","89,71","850","true","71","","test","65","<div class = coverbox></div><div class = stopbox><div class = centered-shape id = stop-signal></div><div class = centered-shape id = stop-signal-inner></div></div>","1000","go","500",""
"-1","-1","stop-signal","89","297747","0.0-13.0-25.0","sub-14_ses-01_1","","2386","0","stim","","<div class = coverbox></div><div class = shapebox><img class = stim src = /static/experiments/stop_signal/images/rectangle.png></img></div>","89,71","850","false","71","","test","66","<div class = coverbox></div><div class = stopbox><div class = centered-shape id = stop-signal></div><div class = centered-shape id = stop-signal-inner></div></div>","1000","stop","500",""
"1534","89","stop-signal","90","300278","0.0-13.0-26.0","sub-14_ses-01_1","","2522","0","stim","","<div class = coverbox></div><div class = shapebox><img class = stim src = /static/experiments/stop_signal/images/oval.png></img></div>","89,71","850","true","89","","test","67","<div class = coverbox></div><div class = stopbox><div class = centered-shape id = stop-signal></div><div class = centered-shape id = stop-signal-inner></div></div>","1000","go","500",""
"1999","89","stop-signal","91","302676","0.0-13.0-27.0","sub-14_ses-01_1","","2386","0","stim","","<div class = coverbox></div><div class = shapebox><img class = stim src = /static/experiments/stop_signal/images/moon.png></img></div>","89,71","850","true","89","","test","68","<div class = coverbox></div><div class = stopbox><div class = centered-shape id = stop-signal></div><div class = centered-shape id = stop-signal-inner></div></div>","1000","go","500",""
"1721","71","stop-signal","92","305076","0.0-13.0-28.0","sub-14_ses-01_1","","2386","0","stim","","<div class = coverbox></div><div class = shapebox><img class = stim src = /static/experiments/stop_signal/images/rectangle.png></img></div>","89,71","850","true","71","","test","69","<div class = coverbox></div><div class = stopbox><div class = centered-shape id = stop-signal></div><div class = centered-shape id = stop-signal-inner></div></div>","1000","go","500",""
"-1","-1","stop-signal","93","307876","0.0-13.0-29.0","sub-14_ses-01_1","","2794","0","stim","","<div class = coverbox></div><div class = shapebox><img class = stim src = /static/experiments/stop_signal/images/oval.png></img></div>","89,71","850","false","89","","test","70","<div class = coverbox></div><div class = stopbox><div class = centered-shape id = stop-signal></div><div class = centered-shape id = stop-signal-inner></div></div>","1000","stop","500",""
"1373","89","stop-signal","94","310287","0.0-13.0-30.0","sub-14_ses-01_1","","2386","0","stim","","<div class = coverbox></div><div class = shapebox><img class = stim src = /static/experiments/stop_signal/images/moon.png></img></div>","89,71","850","true","89","","test","71","<div class = coverbox></div><div class = stopbox><div class = centered-shape id = stop-signal></div><div class = centered-shape id = stop-signal-inner></div></div>","1000","go","500",""
"-1","-1","stop-signal","95","312548","0.0-13.0-31.0","sub-14_ses-01_1","","2250","0","stim","","<div class = coverbox></div><div class = shapebox><img class = stim src = /static/experiments/stop_signal/images/rectangle.png></img></div>","89,71","850","false","71","","test","72","<div class = coverbox></div><div class = stopbox><div class = centered-shape id = stop-signal></div><div class = centered-shape id = stop-signal-inner></div></div>","1000","stop","500",""
"-1","-1","stop-signal","96","315087","0.0-13.0-32.0","sub-14_ses-01_1","","2522","0","stim","","<div class = coverbox></div><div class = shapebox><img class = stim src = /static/experiments/stop_signal/images/oval.png></img></div>","89,71","850","false","89","","test","73","<div class = coverbox></div><div class = stopbox><div class = centered-shape id = stop-signal></div><div class = centered-shape id = stop-signal-inner></div></div>","1000","stop","500",""
"-1","-1","stop-signal","97","317487","0.0-13.0-33.0","sub-14_ses-01_1","","2386","0","stim","","<div class = coverbox></div><div class = shapebox><img class = stim src = /static/experiments/stop_signal/images/oval.png></img></div>","89,71","850","false","89","","test","74","<div class = coverbox></div><div class = stopbox><div class = centered-shape id = stop-signal></div><div class = centered-shape id = stop-signal-inner></div></div>","1000","stop","500",""
"1740","71","stop-signal","98","319887","0.0-13.0-34.0","sub-14_ses-01_1","","2386","0","stim","","<div class = coverbox></div><div class = shapebox><img class = stim src = /static/experiments/stop_signal/images/rectangle.png></img></div>","89,71","850","true","71","","test","75","<div class = coverbox></div><div class = stopbox><div class = centered-shape id = stop-signal></div><div class = centered-shape id = stop-signal-inner></div></div>","1000","go","500",""
"-1","-1","stop-signal","99","322148","0.0-13.0-35.0","sub-14_ses-01_1","","2250","0","stim","","<div class = coverbox></div><div class = shapebox><img class = stim src = /static/experiments/stop_signal/images/trapezoid.png></img></div>","89,71","850","false","71","","test","76","<div class = coverbox></div><div class = stopbox><div class = centered-shape id = stop-signal></div><div class = centered-shape id = stop-signal-inner></div></div>","1000","stop","500",""
"1646","71","stop-signal","100","324557","0.0-13.0-36.0","sub-14_ses-01_1","","2386","0","stim","","<div class = coverbox></div><div class = shapebox><img class = stim src = /static/experiments/stop_signal/images/trapezoid.png></img></div>","89,71","850","true","71","","test","77","<div class = coverbox></div><div class = stopbox><div class = centered-shape id = stop-signal></div><div class = centered-shape id = stop-signal-inner></div></div>","1000","go","500",""
"1943","71","stop-signal","101","326826","0.0-13.0-37.0","sub-14_ses-01_1","","2250","0","stim","","<div class = coverbox></div><div class = shapebox><img class = stim src = /static/experiments/stop_signal/images/rectangle.png></img></div>","89,71","850","true","71","","test","78","<div class = coverbox></div><div class = stopbox><div class = centered-shape id = stop-signal></div><div class = centered-shape id = stop-signal-inner></div></div>","1000","go","500",""
"-1","-1","stop-signal","102","329087","0.0-13.0-38.0","sub-14_ses-01_1","","2250","0","stim","","<div class = coverbox></div><div class = shapebox><img class = stim src = /static/experiments/stop_signal/images/oval.png></img></div>","89,71","850","false","89","","test","79","<div class = coverbox></div><div class = stopbox><div class = centered-shape id = stop-signal></div><div class = centered-shape id = stop-signal-inner></div></div>","1000","stop","500",""
"1609","89","stop-signal","103","331346","0.0-13.0-39.0","sub-14_ses-01_1","","2250","0","stim","","<div class = coverbox></div><div class = shapebox><img class = stim src = /static/experiments/stop_signal/images/moon.png></img></div>","89,71","850","true","89","","test","80","<div class = coverbox></div><div class = stopbox><div class = centered-shape id = stop-signal></div><div class = centered-shape id = stop-signal-inner></div></div>","1000","go","500",""
"1640","71","stop-signal","104","333757","0.0-13.0-40.0","sub-14_ses-01_1","","2386","0","stim","","<div class = coverbox></div><div class = shapebox><img class = stim src = /static/experiments/stop_signal/images/rectangle.png></img></div>","89,71","850","true","71","","test","81","<div class = coverbox></div><div class = stopbox><div class = centered-shape id = stop-signal></div><div class = centered-shape id = stop-signal-inner></div></div>","1000","go","500",""
"-1","-1","stop-signal","105","336018","0.0-13.0-41.0","sub-14_ses-01_1","","2250","0","stim","","<div class = coverbox></div><div class = shapebox><img class = stim src = /static/experiments/stop_signal/images/rectangle.png></img></div>","89,71","850","false","71","","test","82","<div class = coverbox></div><div class = stopbox><div class = centered-shape id = stop-signal></div><div class = centered-shape id = stop-signal-inner></div></div>","1000","stop","500",""
"-1","-1","poldrack-single-stim","106","343537","0.0-14.0","sub-14_ses-01_1","","7500","1000","rest_block","","<div class = centerbox><div class = center-text>+</div></div>","none","7500","","","","","","","","","",""
"-1","-1","poldrack-single-stim","107","346058","0.0-15.0","sub-14_ses-01_1","","1500","500","test_start_block","","<div class = centerbox><div class = center-text>Prerparez-vous!</p></div>","none","1500","","","","","","","","","",""
"1158","89","stop-signal","108","348838","0.0-16.0-0.0","sub-14_ses-01_1","","2250","0","stim","","<div class = coverbox></div><div class = shapebox><img class = stim src = /static/experiments/stop_signal/images/moon.png></img></div>","89,71","850","true","89","","test","83","<div class = coverbox></div><div class = stopbox><div class = centered-shape id = stop-signal></div><div class = centered-shape id = stop-signal-inner></div></div>","1000","stop","500",""
"-1","-1","stop-signal","109","351235","0.0-16.0-1.0","sub-14_ses-01_1","","2386","0","stim","","<div class = coverbox></div><div class = shapebox><img class = stim src = /static/experiments/stop_signal/images/oval.png></img></div>","89,71","850","false","89","","test","84","<div class = coverbox></div><div class = stopbox><div class = centered-shape id = stop-signal></div><div class = centered-shape id = stop-signal-inner></div></div>","950","stop","500",""
"-1","-1","stop-signal","110","353637","0.0-16.0-2.0","sub-14_ses-01_1","","2386","0","stim","","<div class = coverbox></div><div class = shapebox><img class = stim src = /static/experiments/stop_signal/images/rectangle.png></img></div>","89,71","850","false","71","","test","85","<div class = coverbox></div><div class = stopbox><div class = centered-shape id = stop-signal></div><div class = centered-shape id = stop-signal-inner></div></div>","1000","stop","500",""
"1379","89","stop-signal","111","355897","0.0-16.0-3.0","sub-14_ses-01_1","","2250","0","stim","","<div class = coverbox></div><div class = shapebox><img class = stim src = /static/experiments/stop_signal/images/oval.png></img></div>","89,71","850","true","89","","test","86","<div class = coverbox></div><div class = stopbox><div class = centered-shape id = stop-signal></div><div class = centered-shape id = stop-signal-inner></div></div>","1000","go","500",""
"-1","-1","stop-signal","112","358438","0.0-16.0-4.0","sub-14_ses-01_1","","2522","0","stim","","<div class = coverbox></div><div class = shapebox><img class = stim src = /static/experiments/stop_signal/images/oval.png></img></div>","89,71","850","false","89","","test","87","<div class = coverbox></div><div class = stopbox><div class = centered-shape id = stop-signal></div><div class = centered-shape id = stop-signal-inner></div></div>","1000","stop","500",""
"1589","71","stop-signal","113","360708","0.0-16.0-5.0","sub-14_ses-01_1","","2250","0","stim","","<div class = coverbox></div><div class = shapebox><img class = stim src = /static/experiments/stop_signal/images/rectangle.png></img></div>","89,71","850","true","71","","test","88","<div class = coverbox></div><div class = stopbox><div class = centered-shape id = stop-signal></div><div class = centered-shape id = stop-signal-inner></div></div>","1000","go","500",""
"2040","71","stop-signal","114","363107","0.0-16.0-6.0","sub-14_ses-01_1","","2386","0","stim","","<div class = coverbox></div><div class = shapebox><img class = stim src = /static/experiments/stop_signal/images/trapezoid.png></img></div>","89,71","850","true","71","","test","89","<div class = coverbox></div><div class = stopbox><div class = centered-shape id = stop-signal></div><div class = centered-shape id = stop-signal-inner></div></div>","1000","go","500",""
"1819","89","stop-signal","115","365367","0.0-16.0-7.0","sub-14_ses-01_1","","2250","0","stim","","<div class = coverbox></div><div class = shapebox><img class = stim src = /static/experiments/stop_signal/images/moon.png></img></div>","89,71","850","true","89","","test","90","<div class = coverbox></div><div class = stopbox><div class = centered-shape id = stop-signal></div><div class = centered-shape id = stop-signal-inner></div></div>","1000","go","500",""
"-1","-1","stop-signal","116","367637","0.0-16.0-8.0","sub-14_ses-01_1","","2250","0","stim","","<div class = coverbox></div><div class = shapebox><img class = stim src = /static/experiments/stop_signal/images/trapezoid.png></img></div>","89,71","850","false","71","","test","91","<div class = coverbox></div><div class = stopbox><div class = centered-shape id = stop-signal></div><div class = centered-shape id = stop-signal-inner></div></div>","1000","stop","500",""
"1906","71","stop-signal","117","370038","0.0-16.0-9.0","sub-14_ses-01_1","","2386","0","stim","","<div class = coverbox></div><div class = shapebox><img class = stim src = /static/experiments/stop_signal/images/trapezoid.png></img></div>","89,71","850","true","71","","test","92","<div class = coverbox></div><div class = stopbox><div class = centered-shape id = stop-signal></div><div class = centered-shape id = stop-signal-inner></div></div>","1000","go","500",""
"1760","89","stop-signal","118","372577","0.0-16.0-10.0","sub-14_ses-01_1","","2522","0","stim","","<div class = coverbox></div><div class = shapebox><img class = stim src = /static/experiments/stop_signal/images/moon.png></img></div>","89,71","850","true","89","","test","93","<div class = coverbox></div><div class = stopbox><div class = centered-shape id = stop-signal></div><div class = centered-shape id = stop-signal-inner></div></div>","1000","go","500",""
"1858","89","stop-signal","119","374978","0.0-16.0-11.0","sub-14_ses-01_1","","2386","0","stim","","<div class = coverbox></div><div class = shapebox><img class = stim src = /static/experiments/stop_signal/images/moon.png></img></div>","89,71","850","true","89","","test","94","<div class = coverbox></div><div class = stopbox><div class = centered-shape id = stop-signal></div><div class = centered-shape id = stop-signal-inner></div></div>","1000","go","500",""
"1990","89","stop-signal","120","377517","0.0-16.0-12.0","sub-14_ses-01_1","","2522","0","stim","","<div class = coverbox></div><div class = shapebox><img class = stim src = /static/experiments/stop_signal/images/oval.png></img></div>","89,71","850","true","89","","test","95","<div class = coverbox></div><div class = stopbox><div class = centered-shape id = stop-signal></div><div class = centered-shape id = stop-signal-inner></div></div>","1000","go","500",""
"-1","-1","stop-signal","121","380457","0.0-16.0-13.0","sub-14_ses-01_1","","2930","0","stim","","<div class = coverbox></div><div class = shapebox><img class = stim src = /static/experiments/stop_signal/images/rectangle.png></img></div>","89,71","850","false","71","","test","96","<div class = coverbox></div><div class = stopbox><div class = centered-shape id = stop-signal></div><div class = centered-shape id = stop-signal-inner></div></div>","1000","stop","500",""
"1884","89","stop-signal","122","382996","0.0-16.0-14.0","sub-14_ses-01_1","","2522","0","stim","","<div class = coverbox></div><div class = shapebox><img class = stim src = /static/experiments/stop_signal/images/oval.png></img></div>","89,71","850","true","89","","test","97","<div class = coverbox></div><div class = stopbox><div class = centered-shape id = stop-signal></div><div class = centered-shape id = stop-signal-inner></div></div>","1000","go","500",""
"1836","89","stop-signal","123","385537","0.0-16.0-15.0","sub-14_ses-01_1","","2522","0","stim","","<div class = coverbox></div><div class = shapebox><img class = stim src = /static/experiments/stop_signal/images/moon.png></img></div>","89,71","850","true","89","","test","98","<div class = coverbox></div><div class = stopbox><div class = centered-shape id = stop-signal></div><div class = centered-shape id = stop-signal-inner></div></div>","1000","go","500",""
"1759","71","stop-signal","124","387796","0.0-16.0-16.0","sub-14_ses-01_1","","2250","0","stim","","<div class = coverbox></div><div class = shapebox><img class = stim src = /static/experiments/stop_signal/images/rectangle.png></img></div>","89,71","850","true","71","","test","99","<div class = coverbox></div><div class = stopbox><div class = centered-shape id = stop-signal></div><div class = centered-shape id = stop-signal-inner></div></div>","1000","go","500",""
"-1","-1","stop-signal","125","390337","0.0-16.0-17.0","sub-14_ses-01_1","","2522","0","stim","","<div class = coverbox></div><div class = shapebox><img class = stim src = /static/experiments/stop_signal/images/trapezoid.png></img></div>","89,71","850","false","71","","test","100","<div class = coverbox></div><div class = stopbox><div class = centered-shape id = stop-signal></div><div class = centered-shape id = stop-signal-inner></div></div>","1000","stop","500",""
"1952","71","stop-signal","126","392736","0.0-16.0-18.0","sub-14_ses-01_1","","2386","0","stim","","<div class = coverbox></div><div class = shapebox><img class = stim src = /static/experiments/stop_signal/images/trapezoid.png></img></div>","89,71","850","true","71","","test","101","<div class = coverbox></div><div class = stopbox><div class = centered-shape id = stop-signal></div><div class = centered-shape id = stop-signal-inner></div></div>","1000","go","500",""
"1812","89","stop-signal","127","394997","0.0-16.0-19.0","sub-14_ses-01_1","","2250","0","stim","","<div class = coverbox></div><div class = shapebox><img class = stim src = /static/experiments/stop_signal/images/oval.png></img></div>","89,71","850","true","89","","test","102","<div class = coverbox></div><div class = stopbox><div class = centered-shape id = stop-signal></div><div class = centered-shape id = stop-signal-inner></div></div>","1000","go","500",""
"1421","71","stop-signal","128","397395","0.0-16.0-20.0","sub-14_ses-01_1","","2386","0","stim","","<div class = coverbox></div><div class = shapebox><img class = stim src = /static/experiments/stop_signal/images/rectangle.png></img></div>","89,71","850","true","71","","test","103","<div class = coverbox></div><div class = stopbox><div class = centered-shape id = stop-signal></div><div class = centered-shape id = stop-signal-inner></div></div>","1000","go","500",""
"1703","89","stop-signal","129","399656","0.0-16.0-21.0","sub-14_ses-01_1","","2250","0","stim","","<div class = coverbox></div><div class = shapebox><img class = stim src = /static/experiments/stop_signal/images/oval.png></img></div>","89,71","850","true","89","","test","104","<div class = coverbox></div><div class = stopbox><div class = centered-shape id = stop-signal></div><div class = centered-shape id = stop-signal-inner></div></div>","1000","go","500",""
"-1","-1","stop-signal","130","402057","0.0-16.0-22.0","sub-14_ses-01_1","","2386","0","stim","","<div class = coverbox></div><div class = shapebox><img class = stim src = /static/experiments/stop_signal/images/rectangle.png></img></div>","89,71","850","false","71","","test","105","<div class = coverbox></div><div class = stopbox><div class = centered-shape id = stop-signal></div><div class = centered-shape id = stop-signal-inner></div></div>","1000","stop","500",""
"1843","71","stop-signal","131","404596","0.0-16.0-23.0","sub-14_ses-01_1","","2522","0","stim","","<div class = coverbox></div><div class = shapebox><img class = stim src = /static/experiments/stop_signal/images/rectangle.png></img></div>","89,71","850","true","71","","test","106","<div class = coverbox></div><div class = stopbox><div class = centered-shape id = stop-signal></div><div class = centered-shape id = stop-signal-inner></div></div>","1000","go","500",""
"-1","-1","stop-signal","132","406858","0.0-16.0-24.0","sub-14_ses-01_1","","2250","0","stim","","<div class = coverbox></div><div class = shapebox><img class = stim src = /static/experiments/stop_signal/images/trapezoid.png></img></div>","89,71","850","false","71","","test","107","<div class = coverbox></div><div class = stopbox><div class = centered-shape id = stop-signal></div><div class = centered-shape id = stop-signal-inner></div></div>","1000","stop","500",""
"-1","-1","stop-signal","133","409258","0.0-16.0-25.0","sub-14_ses-01_1","","2386","0","stim","","<div class = coverbox></div><div class = shapebox><img class = stim src = /static/experiments/stop_signal/images/trapezoid.png></img></div>","89,71","850","false","71","","test","108","<div class = coverbox></div><div class = stopbox><div class = centered-shape id = stop-signal></div><div class = centered-shape id = stop-signal-inner></div></div>","1000","stop","500",""
"2008","71","stop-signal","134","411936","0.0-16.0-26.0","sub-14_ses-01_1","","2658","0","stim","","<div class = coverbox></div><div class = shapebox><img class = stim src = /static/experiments/stop_signal/images/trapezoid.png></img></div>","89,71","850","true","71","","test","109","<div class = coverbox></div><div class = stopbox><div class = centered-shape id = stop-signal></div><div class = centered-shape id = stop-signal-inner></div></div>","1000","go","500",""
"-1","-1","stop-signal","135","414208","0.0-16.0-27.0","sub-14_ses-01_1","","2250","0","stim","","<div class = coverbox></div><div class = shapebox><img class = stim src = /static/experiments/stop_signal/images/moon.png></img></div>","89,71","850","false","89","","test","110","<div class = coverbox></div><div class = stopbox><div class = centered-shape id = stop-signal></div><div class = centered-shape id = stop-signal-inner></div></div>","1000","stop","500",""
"1773","89","stop-signal","136","417426","0.0-16.0-28.0","sub-14_ses-01_1","","3202","0","stim","","<div class = coverbox></div><div class = shapebox><img class = stim src = /static/experiments/stop_signal/images/oval.png></img></div>","89,71","850","true","89","","test","111","<div class = coverbox></div><div class = stopbox><div class = centered-shape id = stop-signal></div><div class = centered-shape id = stop-signal-inner></div></div>","1000","go","500",""
"2113","89","stop-signal","137","419827","0.0-16.0-29.0","sub-14_ses-01_1","","2386","0","stim","","<div class = coverbox></div><div class = shapebox><img class = stim src = /static/experiments/stop_signal/images/oval.png></img></div>","89,71","850","true","89","","test","112","<div class = coverbox></div><div class = stopbox><div class = centered-shape id = stop-signal></div><div class = centered-shape id = stop-signal-inner></div></div>","1000","go","500",""
"1989","89","stop-signal","138","422217","0.0-16.0-30.0","sub-14_ses-01_1","","2386","0","stim","","<div class = coverbox></div><div class = shapebox><img class = stim src = /static/experiments/stop_signal/images/oval.png></img></div>","89,71","850","true","89","","test","113","<div class = coverbox></div><div class = stopbox><div class = centered-shape id = stop-signal></div><div class = centered-shape id = stop-signal-inner></div></div>","1000","go","500",""
"-1","-1","stop-signal","139","424758","0.0-16.0-31.0","sub-14_ses-01_1","","2522","0","stim","","<div class = coverbox></div><div class = shapebox><img class = stim src = /static/experiments/stop_signal/images/moon.png></img></div>","89,71","850","false","89","","test","114","<div class = coverbox></div><div class = stopbox><div class = centered-shape id = stop-signal></div><div class = centered-shape id = stop-signal-inner></div></div>","1000","stop","500",""
"1552","89","stop-signal","140","427017","0.0-16.0-32.0","sub-14_ses-01_1","","2250","0","stim","","<div class = coverbox></div><div class = shapebox><img class = stim src = /static/experiments/stop_signal/images/moon.png></img></div>","89,71","850","true","89","","test","115","<div class = coverbox></div><div class = stopbox><div class = centered-shape id = stop-signal></div><div class = centered-shape id = stop-signal-inner></div></div>","1000","go","500",""
"-1","-1","stop-signal","141","429277","0.0-16.0-33.0","sub-14_ses-01_1","","2250","0","stim","","<div class = coverbox></div><div class = shapebox><img class = stim src = /static/experiments/stop_signal/images/oval.png></img></div>","89,71","850","false","89","","test","116","<div class = coverbox></div><div class = stopbox><div class = centered-shape id = stop-signal></div><div class = centered-shape id = stop-signal-inner></div></div>","1000","stop","500",""
"-1","-1","stop-signal","142","431559","0.0-16.0-34.0","sub-14_ses-01_1","","2250","0","stim","","<div class = coverbox></div><div class = shapebox><img class = stim src = /static/experiments/stop_signal/images/moon.png></img></div>","89,71","850","false","89","","test","117","<div class = coverbox></div><div class = stopbox><div class = centered-shape id = stop-signal></div><div class = centered-shape id = stop-signal-inner></div></div>","1000","stop","500",""
"1389","71","stop-signal","143","434498","0.0-16.0-35.0","sub-14_ses-01_1","","2930","0","stim","","<div class = coverbox></div><div class = shapebox><img class = stim src = /static/experiments/stop_signal/images/trapezoid.png></img></div>","89,71","850","true","71","","test","118","<div class = coverbox></div><div class = stopbox><div class = centered-shape id = stop-signal></div><div class = centered-shape id = stop-signal-inner></div></div>","1000","go","500",""
"-1","-1","stop-signal","144","437027","0.0-16.0-36.0","sub-14_ses-01_1","","2522","0","stim","","<div class = coverbox></div><div class = shapebox><img class = stim src = /static/experiments/stop_signal/images/moon.png></img></div>","89,71","850","false","89","","test","119","<div class = coverbox></div><div class = stopbox><div class = centered-shape id = stop-signal></div><div class = centered-shape id = stop-signal-inner></div></div>","1000","go","500",""
"338","89","stop-signal","145","439566","0.0-16.0-37.0","sub-14_ses-01_1","","2522","0","stim","","<div class = coverbox></div><div class = shapebox><img class = stim src = /static/experiments/stop_signal/images/rectangle.png></img></div>","89,71","850","false","71","","test","120","<div class = coverbox></div><div class = stopbox><div class = centered-shape id = stop-signal></div><div class = centered-shape id = stop-signal-inner></div></div>","1000","go","500",""
"1818","89","stop-signal","146","441827","0.0-16.0-38.0","sub-14_ses-01_1","","2250","0","stim","","<div class = coverbox></div><div class = shapebox><img class = stim src = /static/experiments/stop_signal/images/oval.png></img></div>","89,71","850","true","89","","test","121","<div class = coverbox></div><div class = stopbox><div class = centered-shape id = stop-signal></div><div class = centered-shape id = stop-signal-inner></div></div>","1000","go","500",""
"-1","-1","stop-signal","147","444368","0.0-16.0-39.0","sub-14_ses-01_1","","2522","0","stim","","<div class = coverbox></div><div class = shapebox><img class = stim src = /static/experiments/stop_signal/images/moon.png></img></div>","89,71","850","false","89","","test","122","<div class = coverbox></div><div class = stopbox><div class = centered-shape id = stop-signal></div><div class = centered-shape id = stop-signal-inner></div></div>","1000","stop","500",""
"-1","-1","stop-signal","148","446627","0.0-16.0-40.0","sub-14_ses-01_1","","2250","0","stim","","<div class = coverbox></div><div class = shapebox><img class = stim src = /static/experiments/stop_signal/images/moon.png></img></div>","89,71","850","false","89","","test","123","<div class = coverbox></div><div class = stopbox><div class = centered-shape id = stop-signal></div><div class = centered-shape id = stop-signal-inner></div></div>","1000","stop","500",""
"-1","-1","stop-signal","149","449027","0.0-16.0-41.0","sub-14_ses-01_1","","2386","0","stim","","<div class = coverbox></div><div class = shapebox><img class = stim src = /static/experiments/stop_signal/images/rectangle.png></img></div>","89,71","850","false","71","","test","124","<div class = coverbox></div><div class = stopbox><div class = centered-shape id = stop-signal></div><div class = centered-shape id = stop-signal-inner></div></div>","1000","go","500",""
"10155","32","poldrack-single-stim","150","459188","0.0-17.0","sub-14_ses-01_1","","10155","0","end","","<div class = centerbox><div class = center-text><i>Fin</i></div></div>","32","10155","","","","","","","","","","stop_signal"
"813","13","text","151","460003","0.0-18.0","sub-14_ses-01_1","","","","","","","","","","","","","","","","","",""
