"rt","key_press","trial_type","trial_index","time_elapsed","internal_node_id","subject","text","block_duration","timing_post_trial","trial_id","responses","stimulus","possible_responses","stim_duration","correct","correct_response","feedback_duration","exp_stage","trial_num","SS_stimulus","SS_delay","SS_trial_type","SS_duration","condition","stop_response","exp_id"
"4716","13","text","0","4719","0.0-0.0","sub-09_sess-02_1","","","","","","","","","","","","","","","","","","","",""
"1574","89","poldrack-text","1","7314","0.0-1.0","sub-09_sess-02_1","<div class = centerbox><div style = 'font-size: 50px' class = center-text>Veuillez appuyer avec votre index</p></div>","1574","500","fmri_response_test","","","","","","","","","","","","","","","",""
"644","71","poldrack-text","2","8484","0.0-2.0","sub-09_sess-02_1","<div class = centerbox><div style = 'font-size: 50px' class = center-text>Veuillez appuyer avec votre majeur</p></div>","644","500","fmri_response_test","","","","","","","","","","","","","","","",""
"6990","","survey-text","3","16002","0.0-3.0","sub-09_sess-02_1","","","","task_setup","{""Q0"":""250""}","","","","","","","","","","","","","","",""
"6658","32","poldrack-single-stim","4","23733","0.0-4.0","sub-09_sess-02_1","","6658","0","instructions","","<div class = instructbox><p class = instruct-text><font size=""+2"">Une seule cle est correcte pour chaque forme. <strong>Ne repondez pas si vous voyez l'etoile rouge si votre response allait etre votre Index!</strong> Les cles correctes son les suivantes:<ul list-text><li><div class = prompt_container><img class = prompt_stim src = /static/experiments/motor_selective_stop_signal/images/circle.png width= ""50%"" height= ""50%""></img>Index</div></li></li><li><div class = prompt_container><img class = prompt_stim src = /static/experiments/motor_selective_stop_signal/images/Lshape.png width= ""50%"" height= ""50%""></img>Index</div></li> </li><li><div class = prompt_container><img class = prompt_stim src = /static/experiments/motor_selective_stop_signal/images/rhombus.png width= ""50%"" height= ""50%""></img>Majeur</div></li> </li><li><div class = prompt_container><img class = prompt_stim src = /static/experiments/motor_selective_stop_signal/images/triangle.png width= ""50%"" height= ""50%""></img>Majeur</div></li></ul></font></div>","32","6658","","","","","","","","","","","",""
"1674","71","poldrack-categorize","5","26115","0.0-5.0-0.0-0.0","sub-09_sess-02_1","","1850","250","stim","","<div class = coverbox></div><div class = shapebox><img class = stim src = /static/experiments/motor_selective_stop_signal/images/rhombus.png></img></div>","89,71","850","true","71","500","practice","0","","","","","","",""
"742","89","poldrack-categorize","6","28755","0.0-5.0-0.0-1.0","sub-09_sess-02_1","","1850","250","stim","","<div class = coverbox></div><div class = shapebox><img class = stim src = /static/experiments/motor_selective_stop_signal/images/Lshape.png></img></div>","89,71","850","true","89","500","practice","1","","","","","","",""
"660","89","poldrack-categorize","7","31397","0.0-5.0-0.0-2.0","sub-09_sess-02_1","","1850","250","stim","","<div class = coverbox></div><div class = shapebox><img class = stim src = /static/experiments/motor_selective_stop_signal/images/Lshape.png></img></div>","89,71","850","true","89","500","practice","2","","","","","","",""
"630","71","poldrack-categorize","8","34035","0.0-5.0-0.0-3.0","sub-09_sess-02_1","","1850","250","stim","","<div class = coverbox></div><div class = shapebox><img class = stim src = /static/experiments/motor_selective_stop_signal/images/triangle.png></img></div>","89,71","850","true","71","500","practice","3","","","","","","",""
"590","71","poldrack-categorize","9","36656","0.0-5.0-0.0-4.0","sub-09_sess-02_1","","1850","250","stim","","<div class = coverbox></div><div class = shapebox><img class = stim src = /static/experiments/motor_selective_stop_signal/images/triangle.png></img></div>","89,71","850","true","71","500","practice","4","","","","","","",""
"626","89","poldrack-categorize","10","39297","0.0-5.0-0.0-5.0","sub-09_sess-02_1","","1850","250","stim","","<div class = coverbox></div><div class = shapebox><img class = stim src = /static/experiments/motor_selective_stop_signal/images/circle.png></img></div>","89,71","850","true","89","500","practice","5","","","","","","",""
"639","71","poldrack-categorize","11","41934","0.0-5.0-0.0-6.0","sub-09_sess-02_1","","1850","250","stim","","<div class = coverbox></div><div class = shapebox><img class = stim src = /static/experiments/motor_selective_stop_signal/images/rhombus.png></img></div>","89,71","850","true","71","500","practice","6","","","","","","",""
"463","89","poldrack-categorize","12","44586","0.0-5.0-0.0-7.0","sub-09_sess-02_1","","1850","250","stim","","<div class = coverbox></div><div class = shapebox><img class = stim src = /static/experiments/motor_selective_stop_signal/images/Lshape.png></img></div>","89,71","850","true","89","500","practice","7","","","","","","",""
"745","89","poldrack-categorize","13","47225","0.0-5.0-0.0-8.0","sub-09_sess-02_1","","1850","250","stim","","<div class = coverbox></div><div class = shapebox><img class = stim src = /static/experiments/motor_selective_stop_signal/images/circle.png></img></div>","89,71","850","true","89","500","practice","8","","","","","","",""
"533","71","poldrack-categorize","14","49865","0.0-5.0-0.0-9.0","sub-09_sess-02_1","","1850","250","stim","","<div class = coverbox></div><div class = shapebox><img class = stim src = /static/experiments/motor_selective_stop_signal/images/triangle.png></img></div>","89,71","850","true","71","500","practice","9","","","","","","",""
"693","71","poldrack-categorize","15","52507","0.0-5.0-0.0-10.0","sub-09_sess-02_1","","1850","250","stim","","<div class = coverbox></div><div class = shapebox><img class = stim src = /static/experiments/motor_selective_stop_signal/images/rhombus.png></img></div>","89,71","850","true","71","500","practice","10","","","","","","",""
"486","89","poldrack-categorize","16","55156","0.0-5.0-0.0-11.0","sub-09_sess-02_1","","1850","250","stim","","<div class = coverbox></div><div class = shapebox><img class = stim src = /static/experiments/motor_selective_stop_signal/images/circle.png></img></div>","89,71","850","true","89","500","practice","11","","","","","","",""
"1918","32","poldrack-text","17","57341","0.0-6.0","sub-09_sess-02_1","<div class = centerbox><div  class = center-text>Scanner Setup</div></div>","1918","0","fmri_scanner_wait","","","","","","","","","","","","","","","",""
"57385","84","poldrack-text","18","114736","0.0-7.0","sub-09_sess-02_1","<div class = centerbox><div style='color:red'; class = center-text>+</div></div>","57385","0","fmri_trigger_wait","","","","","","","","","","","","","","","",""
"-1","-1","poldrack-single-stim","19","115759","0.0-8.0","sub-09_sess-02_1","","1000","0","fmri_buffer","","","none","1000","","","","","","","","","","","",""
"-1","-1","poldrack-single-stim","20","117265","0.0-9.0","sub-09_sess-02_1","","1500","500","test_start_block","","<div class = centerbox><div class = center-text>Preparez-vous!</p></div>","none","1500","","","","","","","","","","","",""
"634","89","stop-signal","21","120046","0.0-10.0","sub-09_sess-02_1","","2250","0","stim","","<div class = coverbox></div><div class = shapebox><img class = stim src = /static/experiments/motor_selective_stop_signal/images/Lshape.png></img></div>","89,71","850","","89","","test","0","<div class = coverbox></div><div class = stopbox><div class = centered-shape id = stop-signal></div><div class = centered-shape id = stop-signal-inner></div></div>","250","go","500","go","89",""
"817","89","stop-signal","22","122305","0.0-11.0","sub-09_sess-02_1","","2250","0","stim","","<div class = coverbox></div><div class = shapebox><img class = stim src = /static/experiments/motor_selective_stop_signal/images/Lshape.png></img></div>","89,71","850","","89","","test","1","<div class = coverbox></div><div class = stopbox><div class = centered-shape id = stop-signal></div><div class = centered-shape id = stop-signal-inner></div></div>","250","go","500","go","89",""
"618","71","stop-signal","23","124678","0.0-12.0","sub-09_sess-02_1","","2350","0","stim","","<div class = coverbox></div><div class = shapebox><img class = stim src = /static/experiments/motor_selective_stop_signal/images/triangle.png></img></div>","89,71","850","","71","","test","2","<div class = coverbox></div><div class = stopbox><div class = centered-shape id = stop-signal></div><div class = centered-shape id = stop-signal-inner></div></div>","250","stop","500","ignore","89",""
"-1","-1","stop-signal","24","127239","0.0-13.0","sub-09_sess-02_1","","2550","0","stim","","<div class = coverbox></div><div class = shapebox><img class = stim src = /static/experiments/motor_selective_stop_signal/images/circle.png></img></div>","89,71","850","","89","","test","3","<div class = coverbox></div><div class = stopbox><div class = centered-shape id = stop-signal></div><div class = centered-shape id = stop-signal-inner></div></div>","250","stop","500","stop","89",""
"511","71","stop-signal","25","130196","0.0-14.0","sub-09_sess-02_1","","2950","0","stim","","<div class = coverbox></div><div class = shapebox><img class = stim src = /static/experiments/motor_selective_stop_signal/images/triangle.png></img></div>","89,71","850","","71","","test","4","<div class = coverbox></div><div class = stopbox><div class = centered-shape id = stop-signal></div><div class = centered-shape id = stop-signal-inner></div></div>","300","go","500","go","89",""
"745","89","stop-signal","26","132456","0.0-15.0","sub-09_sess-02_1","","2250","0","stim","","<div class = coverbox></div><div class = shapebox><img class = stim src = /static/experiments/motor_selective_stop_signal/images/Lshape.png></img></div>","89,71","850","","89","","test","5","<div class = coverbox></div><div class = stopbox><div class = centered-shape id = stop-signal></div><div class = centered-shape id = stop-signal-inner></div></div>","300","stop","500","stop","89",""
"790","89","stop-signal","27","134815","0.0-16.0","sub-09_sess-02_1","","2350","0","stim","","<div class = coverbox></div><div class = shapebox><img class = stim src = /static/experiments/motor_selective_stop_signal/images/Lshape.png></img></div>","89,71","850","","89","","test","6","<div class = coverbox></div><div class = stopbox><div class = centered-shape id = stop-signal></div><div class = centered-shape id = stop-signal-inner></div></div>","250","go","500","go","89",""
"485","71","stop-signal","28","137385","0.0-17.0","sub-09_sess-02_1","","2550","0","stim","","<div class = coverbox></div><div class = shapebox><img class = stim src = /static/experiments/motor_selective_stop_signal/images/triangle.png></img></div>","89,71","850","","71","","test","7","<div class = coverbox></div><div class = stopbox><div class = centered-shape id = stop-signal></div><div class = centered-shape id = stop-signal-inner></div></div>","250","go","500","go","89",""
"436","71","stop-signal","29","139647","0.0-18.0","sub-09_sess-02_1","","2250","0","stim","","<div class = coverbox></div><div class = shapebox><img class = stim src = /static/experiments/motor_selective_stop_signal/images/rhombus.png></img></div>","89,71","850","","71","","test","8","<div class = coverbox></div><div class = stopbox><div class = centered-shape id = stop-signal></div><div class = centered-shape id = stop-signal-inner></div></div>","250","stop","500","ignore","89",""
"492","71","stop-signal","30","142016","0.0-19.0","sub-09_sess-02_1","","2350","0","stim","","<div class = coverbox></div><div class = shapebox><img class = stim src = /static/experiments/motor_selective_stop_signal/images/triangle.png></img></div>","89,71","850","","71","","test","9","<div class = coverbox></div><div class = stopbox><div class = centered-shape id = stop-signal></div><div class = centered-shape id = stop-signal-inner></div></div>","250","stop","500","ignore","89",""
"636","71","stop-signal","31","144575","0.0-20.0","sub-09_sess-02_1","","2550","0","stim","","<div class = coverbox></div><div class = shapebox><img class = stim src = /static/experiments/motor_selective_stop_signal/images/rhombus.png></img></div>","89,71","850","","71","","test","10","<div class = coverbox></div><div class = stopbox><div class = centered-shape id = stop-signal></div><div class = centered-shape id = stop-signal-inner></div></div>","250","stop","500","ignore","89",""
"574","71","stop-signal","32","147046","0.0-21.0","sub-09_sess-02_1","","2450","0","stim","","<div class = coverbox></div><div class = shapebox><img class = stim src = /static/experiments/motor_selective_stop_signal/images/rhombus.png></img></div>","89,71","850","","71","","test","11","<div class = coverbox></div><div class = stopbox><div class = centered-shape id = stop-signal></div><div class = centered-shape id = stop-signal-inner></div></div>","250","stop","500","ignore","89",""
"461","71","stop-signal","33","149406","0.0-22.0","sub-09_sess-02_1","","2350","0","stim","","<div class = coverbox></div><div class = shapebox><img class = stim src = /static/experiments/motor_selective_stop_signal/images/triangle.png></img></div>","89,71","850","","71","","test","12","<div class = coverbox></div><div class = stopbox><div class = centered-shape id = stop-signal></div><div class = centered-shape id = stop-signal-inner></div></div>","250","go","500","go","89",""
"699","89","stop-signal","34","152066","0.0-23.0","sub-09_sess-02_1","","2650","0","stim","","<div class = coverbox></div><div class = shapebox><img class = stim src = /static/experiments/motor_selective_stop_signal/images/circle.png></img></div>","89,71","850","","89","","test","13","<div class = coverbox></div><div class = stopbox><div class = centered-shape id = stop-signal></div><div class = centered-shape id = stop-signal-inner></div></div>","250","go","500","go","89",""
"581","71","stop-signal","35","154625","0.0-24.0","sub-09_sess-02_1","","2550","0","stim","","<div class = coverbox></div><div class = shapebox><img class = stim src = /static/experiments/motor_selective_stop_signal/images/rhombus.png></img></div>","89,71","850","","71","","test","14","<div class = coverbox></div><div class = stopbox><div class = centered-shape id = stop-signal></div><div class = centered-shape id = stop-signal-inner></div></div>","250","go","500","go","89",""
"-1","-1","stop-signal","36","157387","0.0-25.0","sub-09_sess-02_1","","2750","0","stim","","<div class = coverbox></div><div class = shapebox><img class = stim src = /static/experiments/motor_selective_stop_signal/images/Lshape.png></img></div>","89,71","850","","89","","test","15","<div class = coverbox></div><div class = stopbox><div class = centered-shape id = stop-signal></div><div class = centered-shape id = stop-signal-inner></div></div>","250","stop","500","stop","89",""
"-1","-1","stop-signal","37","159944","0.0-26.0","sub-09_sess-02_1","","2550","0","stim","","<div class = coverbox></div><div class = shapebox><img class = stim src = /static/experiments/motor_selective_stop_signal/images/circle.png></img></div>","89,71","850","","89","","test","16","<div class = coverbox></div><div class = stopbox><div class = centered-shape id = stop-signal></div><div class = centered-shape id = stop-signal-inner></div></div>","300","stop","500","stop","89",""
"588","71","stop-signal","38","162406","0.0-27.0","sub-09_sess-02_1","","2450","0","stim","","<div class = coverbox></div><div class = shapebox><img class = stim src = /static/experiments/motor_selective_stop_signal/images/rhombus.png></img></div>","89,71","850","","71","","test","17","<div class = coverbox></div><div class = stopbox><div class = centered-shape id = stop-signal></div><div class = centered-shape id = stop-signal-inner></div></div>","350","stop","500","ignore","89",""
"554","71","stop-signal","39","165166","0.0-28.0","sub-09_sess-02_1","","2750","0","stim","","<div class = coverbox></div><div class = shapebox><img class = stim src = /static/experiments/motor_selective_stop_signal/images/triangle.png></img></div>","89,71","850","","71","","test","18","<div class = coverbox></div><div class = stopbox><div class = centered-shape id = stop-signal></div><div class = centered-shape id = stop-signal-inner></div></div>","350","go","500","go","89",""
"774","89","stop-signal","40","167735","0.0-29.0","sub-09_sess-02_1","","2550","0","stim","","<div class = coverbox></div><div class = shapebox><img class = stim src = /static/experiments/motor_selective_stop_signal/images/circle.png></img></div>","89,71","850","","89","","test","19","<div class = coverbox></div><div class = stopbox><div class = centered-shape id = stop-signal></div><div class = centered-shape id = stop-signal-inner></div></div>","350","go","500","go","89",""
"-1","-1","stop-signal","41","170096","0.0-30.0","sub-09_sess-02_1","","2350","0","stim","","<div class = coverbox></div><div class = shapebox><img class = stim src = /static/experiments/motor_selective_stop_signal/images/circle.png></img></div>","89,71","850","","89","","test","20","<div class = coverbox></div><div class = stopbox><div class = centered-shape id = stop-signal></div><div class = centered-shape id = stop-signal-inner></div></div>","350","stop","500","stop","89",""
"743","89","stop-signal","42","172354","0.0-31.0","sub-09_sess-02_1","","2250","0","stim","","<div class = coverbox></div><div class = shapebox><img class = stim src = /static/experiments/motor_selective_stop_signal/images/circle.png></img></div>","89,71","850","","89","","test","21","<div class = coverbox></div><div class = stopbox><div class = centered-shape id = stop-signal></div><div class = centered-shape id = stop-signal-inner></div></div>","400","go","500","go","89",""
"586","71","stop-signal","43","175016","0.0-32.0","sub-09_sess-02_1","","2650","0","stim","","<div class = coverbox></div><div class = shapebox><img class = stim src = /static/experiments/motor_selective_stop_signal/images/triangle.png></img></div>","89,71","850","","71","","test","22","<div class = coverbox></div><div class = stopbox><div class = centered-shape id = stop-signal></div><div class = centered-shape id = stop-signal-inner></div></div>","400","go","500","go","89",""
"-1","-1","stop-signal","44","177275","0.0-33.0","sub-09_sess-02_1","","2250","0","stim","","<div class = coverbox></div><div class = shapebox><img class = stim src = /static/experiments/motor_selective_stop_signal/images/Lshape.png></img></div>","89,71","850","","89","","test","23","<div class = coverbox></div><div class = stopbox><div class = centered-shape id = stop-signal></div><div class = centered-shape id = stop-signal-inner></div></div>","400","stop","500","stop","89",""
"636","89","stop-signal","45","179644","0.0-34.0","sub-09_sess-02_1","","2350","0","stim","","<div class = coverbox></div><div class = shapebox><img class = stim src = /static/experiments/motor_selective_stop_signal/images/circle.png></img></div>","89,71","850","","89","","test","24","<div class = coverbox></div><div class = stopbox><div class = centered-shape id = stop-signal></div><div class = centered-shape id = stop-signal-inner></div></div>","450","go","500","go","89",""
"950","89","stop-signal","46","181904","0.0-35.0","sub-09_sess-02_1","","2250","0","stim","","<div class = coverbox></div><div class = shapebox><img class = stim src = /static/experiments/motor_selective_stop_signal/images/circle.png></img></div>","89,71","850","","89","","test","25","<div class = coverbox></div><div class = stopbox><div class = centered-shape id = stop-signal></div><div class = centered-shape id = stop-signal-inner></div></div>","450","go","500","go","89",""
"504","71","stop-signal","47","184275","0.0-36.0","sub-09_sess-02_1","","2350","0","stim","","<div class = coverbox></div><div class = shapebox><img class = stim src = /static/experiments/motor_selective_stop_signal/images/rhombus.png></img></div>","89,71","850","","71","","test","26","<div class = coverbox></div><div class = stopbox><div class = centered-shape id = stop-signal></div><div class = centered-shape id = stop-signal-inner></div></div>","450","go","500","go","89",""
"329","71","stop-signal","48","186635","0.0-37.0","sub-09_sess-02_1","","2350","0","stim","","<div class = coverbox></div><div class = shapebox><img class = stim src = /static/experiments/motor_selective_stop_signal/images/triangle.png></img></div>","89,71","850","","71","","test","27","<div class = coverbox></div><div class = stopbox><div class = centered-shape id = stop-signal></div><div class = centered-shape id = stop-signal-inner></div></div>","450","go","500","go","89",""
"380","71","stop-signal","49","188895","0.0-38.0","sub-09_sess-02_1","","2250","0","stim","","<div class = coverbox></div><div class = shapebox><img class = stim src = /static/experiments/motor_selective_stop_signal/images/triangle.png></img></div>","89,71","850","","71","","test","28","<div class = coverbox></div><div class = stopbox><div class = centered-shape id = stop-signal></div><div class = centered-shape id = stop-signal-inner></div></div>","450","go","500","go","89",""
"345","71","stop-signal","50","191755","0.0-39.0","sub-09_sess-02_1","","2850","0","stim","","<div class = coverbox></div><div class = shapebox><img class = stim src = /static/experiments/motor_selective_stop_signal/images/triangle.png></img></div>","89,71","850","","71","","test","29","<div class = coverbox></div><div class = stopbox><div class = centered-shape id = stop-signal></div><div class = centered-shape id = stop-signal-inner></div></div>","450","stop","500","ignore","89",""
"385","71","stop-signal","51","194115","0.0-40.0","sub-09_sess-02_1","","2350","0","stim","","<div class = coverbox></div><div class = shapebox><img class = stim src = /static/experiments/motor_selective_stop_signal/images/triangle.png></img></div>","89,71","850","","71","","test","30","<div class = coverbox></div><div class = stopbox><div class = centered-shape id = stop-signal></div><div class = centered-shape id = stop-signal-inner></div></div>","450","go","500","go","89",""
"849","89","stop-signal","52","196376","0.0-41.0","sub-09_sess-02_1","","2250","0","stim","","<div class = coverbox></div><div class = shapebox><img class = stim src = /static/experiments/motor_selective_stop_signal/images/Lshape.png></img></div>","89,71","850","","89","","test","31","<div class = coverbox></div><div class = stopbox><div class = centered-shape id = stop-signal></div><div class = centered-shape id = stop-signal-inner></div></div>","450","go","500","go","89",""
"739","89","stop-signal","53","198735","0.0-42.0","sub-09_sess-02_1","","2350","0","stim","","<div class = coverbox></div><div class = shapebox><img class = stim src = /static/experiments/motor_selective_stop_signal/images/Lshape.png></img></div>","89,71","850","","89","","test","32","<div class = coverbox></div><div class = stopbox><div class = centered-shape id = stop-signal></div><div class = centered-shape id = stop-signal-inner></div></div>","450","go","500","go","89",""
"750","89","stop-signal","54","201195","0.0-43.0","sub-09_sess-02_1","","2450","0","stim","","<div class = coverbox></div><div class = shapebox><img class = stim src = /static/experiments/motor_selective_stop_signal/images/Lshape.png></img></div>","89,71","850","","89","","test","33","<div class = coverbox></div><div class = stopbox><div class = centered-shape id = stop-signal></div><div class = centered-shape id = stop-signal-inner></div></div>","450","go","500","go","89",""
"-1","-1","stop-signal","55","203465","0.0-44.0","sub-09_sess-02_1","","2250","0","stim","","<div class = coverbox></div><div class = shapebox><img class = stim src = /static/experiments/motor_selective_stop_signal/images/Lshape.png></img></div>","89,71","850","","89","","test","34","<div class = coverbox></div><div class = stopbox><div class = centered-shape id = stop-signal></div><div class = centered-shape id = stop-signal-inner></div></div>","450","stop","500","stop","89",""
"519","71","stop-signal","56","205725","0.0-45.0","sub-09_sess-02_1","","2250","0","stim","","<div class = coverbox></div><div class = shapebox><img class = stim src = /static/experiments/motor_selective_stop_signal/images/triangle.png></img></div>","89,71","850","","71","","test","35","<div class = coverbox></div><div class = stopbox><div class = centered-shape id = stop-signal></div><div class = centered-shape id = stop-signal-inner></div></div>","500","stop","500","ignore","89",""
"576","71","stop-signal","57","208486","0.0-46.0","sub-09_sess-02_1","","2750","0","stim","","<div class = coverbox></div><div class = shapebox><img class = stim src = /static/experiments/motor_selective_stop_signal/images/rhombus.png></img></div>","89,71","850","","71","","test","36","<div class = coverbox></div><div class = stopbox><div class = centered-shape id = stop-signal></div><div class = centered-shape id = stop-signal-inner></div></div>","500","go","500","go","89",""
"429","71","stop-signal","58","210847","0.0-47.0","sub-09_sess-02_1","","2350","0","stim","","<div class = coverbox></div><div class = shapebox><img class = stim src = /static/experiments/motor_selective_stop_signal/images/triangle.png></img></div>","89,71","850","","71","","test","37","<div class = coverbox></div><div class = stopbox><div class = centered-shape id = stop-signal></div><div class = centered-shape id = stop-signal-inner></div></div>","500","stop","500","ignore","89",""
"508","71","stop-signal","59","213606","0.0-48.0","sub-09_sess-02_1","","2750","0","stim","","<div class = coverbox></div><div class = shapebox><img class = stim src = /static/experiments/motor_selective_stop_signal/images/rhombus.png></img></div>","89,71","850","","71","","test","38","<div class = coverbox></div><div class = stopbox><div class = centered-shape id = stop-signal></div><div class = centered-shape id = stop-signal-inner></div></div>","500","go","500","go","89",""
"527","71","stop-signal","60","216064","0.0-49.0","sub-09_sess-02_1","","2450","0","stim","","<div class = coverbox></div><div class = shapebox><img class = stim src = /static/experiments/motor_selective_stop_signal/images/rhombus.png></img></div>","89,71","850","","71","","test","39","<div class = coverbox></div><div class = stopbox><div class = centered-shape id = stop-signal></div><div class = centered-shape id = stop-signal-inner></div></div>","500","go","500","go","89",""
"434","71","stop-signal","61","218325","0.0-50.0","sub-09_sess-02_1","","2250","0","stim","","<div class = coverbox></div><div class = shapebox><img class = stim src = /static/experiments/motor_selective_stop_signal/images/triangle.png></img></div>","89,71","850","","71","","test","40","<div class = coverbox></div><div class = stopbox><div class = centered-shape id = stop-signal></div><div class = centered-shape id = stop-signal-inner></div></div>","500","go","500","go","89",""
"696","89","stop-signal","62","220686","0.0-51.0","sub-09_sess-02_1","","2350","0","stim","","<div class = coverbox></div><div class = shapebox><img class = stim src = /static/experiments/motor_selective_stop_signal/images/circle.png></img></div>","89,71","850","","89","","test","41","<div class = coverbox></div><div class = stopbox><div class = centered-shape id = stop-signal></div><div class = centered-shape id = stop-signal-inner></div></div>","500","stop","500","stop","89",""
"697","89","stop-signal","63","223346","0.0-52.0","sub-09_sess-02_1","","2650","0","stim","","<div class = coverbox></div><div class = shapebox><img class = stim src = /static/experiments/motor_selective_stop_signal/images/Lshape.png></img></div>","89,71","850","","89","","test","42","<div class = coverbox></div><div class = stopbox><div class = centered-shape id = stop-signal></div><div class = centered-shape id = stop-signal-inner></div></div>","450","go","500","go","89",""
"614","89","stop-signal","64","225815","0.0-53.0","sub-09_sess-02_1","","2450","0","stim","","<div class = coverbox></div><div class = shapebox><img class = stim src = /static/experiments/motor_selective_stop_signal/images/circle.png></img></div>","89,71","850","","89","","test","43","<div class = coverbox></div><div class = stopbox><div class = centered-shape id = stop-signal></div><div class = centered-shape id = stop-signal-inner></div></div>","450","stop","500","stop","89",""
"527","71","stop-signal","65","228072","0.0-54.0","sub-09_sess-02_1","","2250","0","stim","","<div class = coverbox></div><div class = shapebox><img class = stim src = /static/experiments/motor_selective_stop_signal/images/rhombus.png></img></div>","89,71","850","","71","","test","44","<div class = coverbox></div><div class = stopbox><div class = centered-shape id = stop-signal></div><div class = centered-shape id = stop-signal-inner></div></div>","400","go","500","go","89",""
"475","71","stop-signal","66","230435","0.0-55.0","sub-09_sess-02_1","","2350","0","stim","","<div class = coverbox></div><div class = shapebox><img class = stim src = /static/experiments/motor_selective_stop_signal/images/rhombus.png></img></div>","89,71","850","","71","","test","45","<div class = coverbox></div><div class = stopbox><div class = centered-shape id = stop-signal></div><div class = centered-shape id = stop-signal-inner></div></div>","400","stop","500","ignore","89",""
"521","71","stop-signal","67","233396","0.0-56.0","sub-09_sess-02_1","","2950","0","stim","","<div class = coverbox></div><div class = shapebox><img class = stim src = /static/experiments/motor_selective_stop_signal/images/triangle.png></img></div>","89,71","850","","71","","test","46","<div class = coverbox></div><div class = stopbox><div class = centered-shape id = stop-signal></div><div class = centered-shape id = stop-signal-inner></div></div>","400","stop","500","ignore","89",""
"717","89","stop-signal","68","235666","0.0-57.0","sub-09_sess-02_1","","2250","0","stim","","<div class = coverbox></div><div class = shapebox><img class = stim src = /static/experiments/motor_selective_stop_signal/images/circle.png></img></div>","89,71","850","","89","","test","47","<div class = coverbox></div><div class = stopbox><div class = centered-shape id = stop-signal></div><div class = centered-shape id = stop-signal-inner></div></div>","400","go","500","go","89",""
"570","71","stop-signal","69","238625","0.0-58.0","sub-09_sess-02_1","","2950","0","stim","","<div class = coverbox></div><div class = shapebox><img class = stim src = /static/experiments/motor_selective_stop_signal/images/rhombus.png></img></div>","89,71","850","","71","","test","48","<div class = coverbox></div><div class = stopbox><div class = centered-shape id = stop-signal></div><div class = centered-shape id = stop-signal-inner></div></div>","400","go","500","go","89",""
"387","71","stop-signal","70","241096","0.0-59.0","sub-09_sess-02_1","","2450","0","stim","","<div class = coverbox></div><div class = shapebox><img class = stim src = /static/experiments/motor_selective_stop_signal/images/triangle.png></img></div>","89,71","850","","71","","test","49","<div class = coverbox></div><div class = stopbox><div class = centered-shape id = stop-signal></div><div class = centered-shape id = stop-signal-inner></div></div>","400","stop","500","ignore","89",""
"-1","-1","poldrack-single-stim","71","248616","0.0-60.0","sub-09_sess-02_1","","7500","1000","rest_block","","<div class = centerbox><div class = center-text>+</div></div>","none","7500","","","","","","","","","","","",""
"-1","-1","poldrack-single-stim","72","251155","0.0-61.0","sub-09_sess-02_1","","1500","500","test_start_block","","<div class = centerbox><div class = center-text>Preparez-vous!</p></div>","none","1500","","","","","","","","","","","",""
"784","89","stop-signal","73","253936","0.0-62.0","sub-09_sess-02_1","","2250","0","stim","","<div class = coverbox></div><div class = shapebox><img class = stim src = /static/experiments/motor_selective_stop_signal/images/circle.png></img></div>","89,71","850","","89","","test","50","<div class = coverbox></div><div class = stopbox><div class = centered-shape id = stop-signal></div><div class = centered-shape id = stop-signal-inner></div></div>","400","stop","500","stop","89",""
"814","89","stop-signal","74","256295","0.0-63.0","sub-09_sess-02_1","","2350","0","stim","","<div class = coverbox></div><div class = shapebox><img class = stim src = /static/experiments/motor_selective_stop_signal/images/Lshape.png></img></div>","89,71","850","","89","","test","51","<div class = coverbox></div><div class = stopbox><div class = centered-shape id = stop-signal></div><div class = centered-shape id = stop-signal-inner></div></div>","350","go","500","go","89",""
"446","71","stop-signal","75","258765","0.0-64.0","sub-09_sess-02_1","","2450","0","stim","","<div class = coverbox></div><div class = shapebox><img class = stim src = /static/experiments/motor_selective_stop_signal/images/triangle.png></img></div>","89,71","850","","71","","test","52","<div class = coverbox></div><div class = stopbox><div class = centered-shape id = stop-signal></div><div class = centered-shape id = stop-signal-inner></div></div>","350","go","500","go","89",""
"-1","-1","stop-signal","76","261035","0.0-65.0","sub-09_sess-02_1","","2250","0","stim","","<div class = coverbox></div><div class = shapebox><img class = stim src = /static/experiments/motor_selective_stop_signal/images/Lshape.png></img></div>","89,71","850","","89","","test","53","<div class = coverbox></div><div class = stopbox><div class = centered-shape id = stop-signal></div><div class = centered-shape id = stop-signal-inner></div></div>","350","stop","500","stop","89",""
"467","71","stop-signal","77","263506","0.0-66.0","sub-09_sess-02_1","","2450","0","stim","","<div class = coverbox></div><div class = shapebox><img class = stim src = /static/experiments/motor_selective_stop_signal/images/triangle.png></img></div>","89,71","850","","71","","test","54","<div class = coverbox></div><div class = stopbox><div class = centered-shape id = stop-signal></div><div class = centered-shape id = stop-signal-inner></div></div>","400","stop","500","ignore","89",""
"385","71","stop-signal","78","266276","0.0-67.0","sub-09_sess-02_1","","2750","0","stim","","<div class = coverbox></div><div class = shapebox><img class = stim src = /static/experiments/motor_selective_stop_signal/images/rhombus.png></img></div>","89,71","850","","71","","test","55","<div class = coverbox></div><div class = stopbox><div class = centered-shape id = stop-signal></div><div class = centered-shape id = stop-signal-inner></div></div>","400","go","500","go","89",""
"480","71","stop-signal","79","268536","0.0-68.0","sub-09_sess-02_1","","2250","0","stim","","<div class = coverbox></div><div class = shapebox><img class = stim src = /static/experiments/motor_selective_stop_signal/images/triangle.png></img></div>","89,71","850","","71","","test","56","<div class = coverbox></div><div class = stopbox><div class = centered-shape id = stop-signal></div><div class = centered-shape id = stop-signal-inner></div></div>","400","stop","500","ignore","89",""
"743","89","stop-signal","80","270976","0.0-69.0","sub-09_sess-02_1","","2350","0","stim","","<div class = coverbox></div><div class = shapebox><img class = stim src = /static/experiments/motor_selective_stop_signal/images/Lshape.png></img></div>","89,71","850","","89","","test","57","<div class = coverbox></div><div class = stopbox><div class = centered-shape id = stop-signal></div><div class = centered-shape id = stop-signal-inner></div></div>","400","go","500","go","89",""
"602","71","stop-signal","81","273437","0.0-70.0","sub-09_sess-02_1","","2450","0","stim","","<div class = coverbox></div><div class = shapebox><img class = stim src = /static/experiments/motor_selective_stop_signal/images/triangle.png></img></div>","89,71","850","","71","","test","58","<div class = coverbox></div><div class = stopbox><div class = centered-shape id = stop-signal></div><div class = centered-shape id = stop-signal-inner></div></div>","400","stop","500","ignore","89",""
"514","71","stop-signal","82","275796","0.0-71.0","sub-09_sess-02_1","","2350","0","stim","","<div class = coverbox></div><div class = shapebox><img class = stim src = /static/experiments/motor_selective_stop_signal/images/rhombus.png></img></div>","89,71","850","","71","","test","59","<div class = coverbox></div><div class = stopbox><div class = centered-shape id = stop-signal></div><div class = centered-shape id = stop-signal-inner></div></div>","400","go","500","go","89",""
"649","71","stop-signal","83","278056","0.0-72.0","sub-09_sess-02_1","","2250","0","stim","","<div class = coverbox></div><div class = shapebox><img class = stim src = /static/experiments/motor_selective_stop_signal/images/triangle.png></img></div>","89,71","850","","71","","test","60","<div class = coverbox></div><div class = stopbox><div class = centered-shape id = stop-signal></div><div class = centered-shape id = stop-signal-inner></div></div>","400","stop","500","ignore","89",""
"532","71","stop-signal","84","280615","0.0-73.0","sub-09_sess-02_1","","2550","0","stim","","<div class = coverbox></div><div class = shapebox><img class = stim src = /static/experiments/motor_selective_stop_signal/images/rhombus.png></img></div>","89,71","850","","71","","test","61","<div class = coverbox></div><div class = stopbox><div class = centered-shape id = stop-signal></div><div class = centered-shape id = stop-signal-inner></div></div>","400","go","500","go","89",""
"558","71","stop-signal","85","283076","0.0-74.0","sub-09_sess-02_1","","2450","0","stim","","<div class = coverbox></div><div class = shapebox><img class = stim src = /static/experiments/motor_selective_stop_signal/images/triangle.png></img></div>","89,71","850","","71","","test","62","<div class = coverbox></div><div class = stopbox><div class = centered-shape id = stop-signal></div><div class = centered-shape id = stop-signal-inner></div></div>","400","go","500","go","89",""
"771","89","stop-signal","86","285746","0.0-75.0","sub-09_sess-02_1","","2650","0","stim","","<div class = coverbox></div><div class = shapebox><img class = stim src = /static/experiments/motor_selective_stop_signal/images/circle.png></img></div>","89,71","850","","89","","test","63","<div class = coverbox></div><div class = stopbox><div class = centered-shape id = stop-signal></div><div class = centered-shape id = stop-signal-inner></div></div>","400","go","500","go","89",""
"-1","-1","stop-signal","87","288005","0.0-76.0","sub-09_sess-02_1","","2250","0","stim","","<div class = coverbox></div><div class = shapebox><img class = stim src = /static/experiments/motor_selective_stop_signal/images/circle.png></img></div>","89,71","850","","89","","test","64","<div class = coverbox></div><div class = stopbox><div class = centered-shape id = stop-signal></div><div class = centered-shape id = stop-signal-inner></div></div>","400","stop","500","stop","89",""
"551","71","stop-signal","88","290665","0.0-77.0","sub-09_sess-02_1","","2650","0","stim","","<div class = coverbox></div><div class = shapebox><img class = stim src = /static/experiments/motor_selective_stop_signal/images/triangle.png></img></div>","89,71","850","","71","","test","65","<div class = coverbox></div><div class = stopbox><div class = centered-shape id = stop-signal></div><div class = centered-shape id = stop-signal-inner></div></div>","450","stop","500","ignore","89",""
"562","71","stop-signal","89","293026","0.0-78.0","sub-09_sess-02_1","","2350","0","stim","","<div class = coverbox></div><div class = shapebox><img class = stim src = /static/experiments/motor_selective_stop_signal/images/rhombus.png></img></div>","89,71","850","","71","","test","66","<div class = coverbox></div><div class = stopbox><div class = centered-shape id = stop-signal></div><div class = centered-shape id = stop-signal-inner></div></div>","450","go","500","go","89",""
"508","71","stop-signal","90","295285","0.0-79.0","sub-09_sess-02_1","","2250","0","stim","","<div class = coverbox></div><div class = shapebox><img class = stim src = /static/experiments/motor_selective_stop_signal/images/triangle.png></img></div>","89,71","850","","71","","test","67","<div class = coverbox></div><div class = stopbox><div class = centered-shape id = stop-signal></div><div class = centered-shape id = stop-signal-inner></div></div>","450","go","500","go","89",""
"706","89","stop-signal","91","297544","0.0-80.0","sub-09_sess-02_1","","2250","0","stim","","<div class = coverbox></div><div class = shapebox><img class = stim src = /static/experiments/motor_selective_stop_signal/images/Lshape.png></img></div>","89,71","850","","89","","test","68","<div class = coverbox></div><div class = stopbox><div class = centered-shape id = stop-signal></div><div class = centered-shape id = stop-signal-inner></div></div>","450","go","500","go","89",""
"460","71","stop-signal","92","299806","0.0-81.0","sub-09_sess-02_1","","2250","0","stim","","<div class = coverbox></div><div class = shapebox><img class = stim src = /static/experiments/motor_selective_stop_signal/images/triangle.png></img></div>","89,71","850","","71","","test","69","<div class = coverbox></div><div class = stopbox><div class = centered-shape id = stop-signal></div><div class = centered-shape id = stop-signal-inner></div></div>","450","go","500","go","89",""
"489","71","stop-signal","93","302164","0.0-82.0","sub-09_sess-02_1","","2350","0","stim","","<div class = coverbox></div><div class = shapebox><img class = stim src = /static/experiments/motor_selective_stop_signal/images/rhombus.png></img></div>","89,71","850","","71","","test","70","<div class = coverbox></div><div class = stopbox><div class = centered-shape id = stop-signal></div><div class = centered-shape id = stop-signal-inner></div></div>","450","go","500","go","89",""
"461","71","stop-signal","94","304726","0.0-83.0","sub-09_sess-02_1","","2550","0","stim","","<div class = coverbox></div><div class = shapebox><img class = stim src = /static/experiments/motor_selective_stop_signal/images/triangle.png></img></div>","89,71","850","","71","","test","71","<div class = coverbox></div><div class = stopbox><div class = centered-shape id = stop-signal></div><div class = centered-shape id = stop-signal-inner></div></div>","450","stop","500","ignore","89",""
"470","71","stop-signal","95","307085","0.0-84.0","sub-09_sess-02_1","","2350","0","stim","","<div class = coverbox></div><div class = shapebox><img class = stim src = /static/experiments/motor_selective_stop_signal/images/triangle.png></img></div>","89,71","850","","71","","test","72","<div class = coverbox></div><div class = stopbox><div class = centered-shape id = stop-signal></div><div class = centered-shape id = stop-signal-inner></div></div>","450","go","500","go","89",""
"724","89","stop-signal","96","309546","0.0-85.0","sub-09_sess-02_1","","2450","0","stim","","<div class = coverbox></div><div class = shapebox><img class = stim src = /static/experiments/motor_selective_stop_signal/images/Lshape.png></img></div>","89,71","850","","89","","test","73","<div class = coverbox></div><div class = stopbox><div class = centered-shape id = stop-signal></div><div class = centered-shape id = stop-signal-inner></div></div>","450","stop","500","stop","89",""
"402","71","stop-signal","97","312016","0.0-86.0","sub-09_sess-02_1","","2450","0","stim","","<div class = coverbox></div><div class = shapebox><img class = stim src = /static/experiments/motor_selective_stop_signal/images/triangle.png></img></div>","89,71","850","","71","","test","74","<div class = coverbox></div><div class = stopbox><div class = centered-shape id = stop-signal></div><div class = centered-shape id = stop-signal-inner></div></div>","400","go","500","go","89",""
"-1","-1","stop-signal","98","314377","0.0-87.0","sub-09_sess-02_1","","2350","0","stim","","<div class = coverbox></div><div class = shapebox><img class = stim src = /static/experiments/motor_selective_stop_signal/images/circle.png></img></div>","89,71","850","","89","","test","75","<div class = coverbox></div><div class = stopbox><div class = centered-shape id = stop-signal></div><div class = centered-shape id = stop-signal-inner></div></div>","400","stop","500","stop","89",""
"486","71","stop-signal","99","316636","0.0-88.0","sub-09_sess-02_1","","2250","0","stim","","<div class = coverbox></div><div class = shapebox><img class = stim src = /static/experiments/motor_selective_stop_signal/images/rhombus.png></img></div>","89,71","850","","71","","test","76","<div class = coverbox></div><div class = stopbox><div class = centered-shape id = stop-signal></div><div class = centered-shape id = stop-signal-inner></div></div>","450","stop","500","ignore","89",""
"659","89","stop-signal","100","319195","0.0-89.0","sub-09_sess-02_1","","2550","0","stim","","<div class = coverbox></div><div class = shapebox><img class = stim src = /static/experiments/motor_selective_stop_signal/images/circle.png></img></div>","89,71","850","","89","","test","77","<div class = coverbox></div><div class = stopbox><div class = centered-shape id = stop-signal></div><div class = centered-shape id = stop-signal-inner></div></div>","450","go","500","go","89",""
"452","71","stop-signal","101","321755","0.0-90.0","sub-09_sess-02_1","","2550","0","stim","","<div class = coverbox></div><div class = shapebox><img class = stim src = /static/experiments/motor_selective_stop_signal/images/rhombus.png></img></div>","89,71","850","","71","","test","78","<div class = coverbox></div><div class = stopbox><div class = centered-shape id = stop-signal></div><div class = centered-shape id = stop-signal-inner></div></div>","450","go","500","go","89",""
"425","71","stop-signal","102","324016","0.0-91.0","sub-09_sess-02_1","","2250","0","stim","","<div class = coverbox></div><div class = shapebox><img class = stim src = /static/experiments/motor_selective_stop_signal/images/triangle.png></img></div>","89,71","850","","71","","test","79","<div class = coverbox></div><div class = stopbox><div class = centered-shape id = stop-signal></div><div class = centered-shape id = stop-signal-inner></div></div>","450","stop","500","ignore","89",""
"549","71","stop-signal","103","326275","0.0-92.0","sub-09_sess-02_1","","2250","0","stim","","<div class = coverbox></div><div class = shapebox><img class = stim src = /static/experiments/motor_selective_stop_signal/images/triangle.png></img></div>","89,71","850","","71","","test","80","<div class = coverbox></div><div class = stopbox><div class = centered-shape id = stop-signal></div><div class = centered-shape id = stop-signal-inner></div></div>","450","go","500","go","89",""
"-1","-1","stop-signal","104","328736","0.0-93.0","sub-09_sess-02_1","","2450","0","stim","","<div class = coverbox></div><div class = shapebox><img class = stim src = /static/experiments/motor_selective_stop_signal/images/circle.png></img></div>","89,71","850","","89","","test","81","<div class = coverbox></div><div class = stopbox><div class = centered-shape id = stop-signal></div><div class = centered-shape id = stop-signal-inner></div></div>","450","stop","500","stop","89",""
"480","71","stop-signal","105","331095","0.0-94.0","sub-09_sess-02_1","","2350","0","stim","","<div class = coverbox></div><div class = shapebox><img class = stim src = /static/experiments/motor_selective_stop_signal/images/rhombus.png></img></div>","89,71","850","","71","","test","82","<div class = coverbox></div><div class = stopbox><div class = centered-shape id = stop-signal></div><div class = centered-shape id = stop-signal-inner></div></div>","500","go","500","go","89",""
"762","89","stop-signal","106","333355","0.0-95.0","sub-09_sess-02_1","","2250","0","stim","","<div class = coverbox></div><div class = shapebox><img class = stim src = /static/experiments/motor_selective_stop_signal/images/Lshape.png></img></div>","89,71","850","","89","","test","83","<div class = coverbox></div><div class = stopbox><div class = centered-shape id = stop-signal></div><div class = centered-shape id = stop-signal-inner></div></div>","500","go","500","go","89",""
"506","71","stop-signal","107","336515","0.0-96.0","sub-09_sess-02_1","","3150","0","stim","","<div class = coverbox></div><div class = shapebox><img class = stim src = /static/experiments/motor_selective_stop_signal/images/triangle.png></img></div>","89,71","850","","71","","test","84","<div class = coverbox></div><div class = stopbox><div class = centered-shape id = stop-signal></div><div class = centered-shape id = stop-signal-inner></div></div>","500","go","500","go","89",""
"726","89","stop-signal","108","339175","0.0-97.0","sub-09_sess-02_1","","2650","0","stim","","<div class = coverbox></div><div class = shapebox><img class = stim src = /static/experiments/motor_selective_stop_signal/images/circle.png></img></div>","89,71","850","","89","","test","85","<div class = coverbox></div><div class = stopbox><div class = centered-shape id = stop-signal></div><div class = centered-shape id = stop-signal-inner></div></div>","500","go","500","go","89",""
"469","71","stop-signal","109","341445","0.0-98.0","sub-09_sess-02_1","","2250","0","stim","","<div class = coverbox></div><div class = shapebox><img class = stim src = /static/experiments/motor_selective_stop_signal/images/triangle.png></img></div>","89,71","850","","71","","test","86","<div class = coverbox></div><div class = stopbox><div class = centered-shape id = stop-signal></div><div class = centered-shape id = stop-signal-inner></div></div>","500","stop","500","ignore","89",""
"708","89","stop-signal","110","343906","0.0-99.0","sub-09_sess-02_1","","2450","0","stim","","<div class = coverbox></div><div class = shapebox><img class = stim src = /static/experiments/motor_selective_stop_signal/images/circle.png></img></div>","89,71","850","","89","","test","87","<div class = coverbox></div><div class = stopbox><div class = centered-shape id = stop-signal></div><div class = centered-shape id = stop-signal-inner></div></div>","500","stop","500","stop","89",""
"462","71","stop-signal","111","346766","0.0-100.0","sub-09_sess-02_1","","2850","0","stim","","<div class = coverbox></div><div class = shapebox><img class = stim src = /static/experiments/motor_selective_stop_signal/images/triangle.png></img></div>","89,71","850","","71","","test","88","<div class = coverbox></div><div class = stopbox><div class = centered-shape id = stop-signal></div><div class = centered-shape id = stop-signal-inner></div></div>","450","stop","500","ignore","89",""
"701","89","stop-signal","112","349225","0.0-101.0","sub-09_sess-02_1","","2450","0","stim","","<div class = coverbox></div><div class = shapebox><img class = stim src = /static/experiments/motor_selective_stop_signal/images/Lshape.png></img></div>","89,71","850","","89","","test","89","<div class = coverbox></div><div class = stopbox><div class = centered-shape id = stop-signal></div><div class = centered-shape id = stop-signal-inner></div></div>","450","go","500","go","89",""
"787","89","stop-signal","113","351486","0.0-102.0","sub-09_sess-02_1","","2250","0","stim","","<div class = coverbox></div><div class = shapebox><img class = stim src = /static/experiments/motor_selective_stop_signal/images/Lshape.png></img></div>","89,71","850","","89","","test","90","<div class = coverbox></div><div class = stopbox><div class = centered-shape id = stop-signal></div><div class = centered-shape id = stop-signal-inner></div></div>","450","go","500","go","89",""
"529","71","stop-signal","114","353746","0.0-103.0","sub-09_sess-02_1","","2250","0","stim","","<div class = coverbox></div><div class = shapebox><img class = stim src = /static/experiments/motor_selective_stop_signal/images/rhombus.png></img></div>","89,71","850","","71","","test","91","<div class = coverbox></div><div class = stopbox><div class = centered-shape id = stop-signal></div><div class = centered-shape id = stop-signal-inner></div></div>","450","go","500","go","89",""
"542","71","stop-signal","115","356316","0.0-104.0","sub-09_sess-02_1","","2550","0","stim","","<div class = coverbox></div><div class = shapebox><img class = stim src = /static/experiments/motor_selective_stop_signal/images/rhombus.png></img></div>","89,71","850","","71","","test","92","<div class = coverbox></div><div class = stopbox><div class = centered-shape id = stop-signal></div><div class = centered-shape id = stop-signal-inner></div></div>","450","stop","500","ignore","89",""
"-1","-1","stop-signal","116","358576","0.0-105.0","sub-09_sess-02_1","","2250","0","stim","","<div class = coverbox></div><div class = shapebox><img class = stim src = /static/experiments/motor_selective_stop_signal/images/circle.png></img></div>","89,71","850","","89","","test","93","<div class = coverbox></div><div class = stopbox><div class = centered-shape id = stop-signal></div><div class = centered-shape id = stop-signal-inner></div></div>","450","stop","500","stop","89",""
"664","89","stop-signal","117","360936","0.0-106.0","sub-09_sess-02_1","","2350","0","stim","","<div class = coverbox></div><div class = shapebox><img class = stim src = /static/experiments/motor_selective_stop_signal/images/Lshape.png></img></div>","89,71","850","","89","","test","94","<div class = coverbox></div><div class = stopbox><div class = centered-shape id = stop-signal></div><div class = centered-shape id = stop-signal-inner></div></div>","500","go","500","go","89",""
"801","89","stop-signal","118","363306","0.0-107.0","sub-09_sess-02_1","","2350","0","stim","","<div class = coverbox></div><div class = shapebox><img class = stim src = /static/experiments/motor_selective_stop_signal/images/Lshape.png></img></div>","89,71","850","","89","","test","95","<div class = coverbox></div><div class = stopbox><div class = centered-shape id = stop-signal></div><div class = centered-shape id = stop-signal-inner></div></div>","500","stop","500","stop","89",""
"469","71","stop-signal","119","365564","0.0-108.0","sub-09_sess-02_1","","2250","0","stim","","<div class = coverbox></div><div class = shapebox><img class = stim src = /static/experiments/motor_selective_stop_signal/images/triangle.png></img></div>","89,71","850","","71","","test","96","<div class = coverbox></div><div class = stopbox><div class = centered-shape id = stop-signal></div><div class = centered-shape id = stop-signal-inner></div></div>","450","go","500","go","89",""
"628","71","stop-signal","120","367925","0.0-109.0","sub-09_sess-02_1","","2350","0","stim","","<div class = coverbox></div><div class = shapebox><img class = stim src = /static/experiments/motor_selective_stop_signal/images/rhombus.png></img></div>","89,71","850","","71","","test","97","<div class = coverbox></div><div class = stopbox><div class = centered-shape id = stop-signal></div><div class = centered-shape id = stop-signal-inner></div></div>","450","stop","500","ignore","89",""
"508","71","stop-signal","121","370186","0.0-110.0","sub-09_sess-02_1","","2250","0","stim","","<div class = coverbox></div><div class = shapebox><img class = stim src = /static/experiments/motor_selective_stop_signal/images/triangle.png></img></div>","89,71","850","","71","","test","98","<div class = coverbox></div><div class = stopbox><div class = centered-shape id = stop-signal></div><div class = centered-shape id = stop-signal-inner></div></div>","450","go","500","go","89",""
"825","89","stop-signal","122","372645","0.0-111.0","sub-09_sess-02_1","","2450","0","stim","","<div class = coverbox></div><div class = shapebox><img class = stim src = /static/experiments/motor_selective_stop_signal/images/circle.png></img></div>","89,71","850","","89","","test","99","<div class = coverbox></div><div class = stopbox><div class = centered-shape id = stop-signal></div><div class = centered-shape id = stop-signal-inner></div></div>","450","go","500","go","89",""
"-1","-1","poldrack-single-stim","123","380165","0.0-112.0","sub-09_sess-02_1","","7500","1000","rest_block","","<div class = centerbox><div class = center-text>+</div></div>","none","7500","","","","","","","","","","","",""
"-1","-1","poldrack-single-stim","124","382706","0.0-113.0","sub-09_sess-02_1","","1500","500","test_start_block","","<div class = centerbox><div class = center-text>Preparez-vous!</p></div>","none","1500","","","","","","","","","","","",""
"745","89","stop-signal","125","385495","0.0-114.0","sub-09_sess-02_1","","2250","0","stim","","<div class = coverbox></div><div class = shapebox><img class = stim src = /static/experiments/motor_selective_stop_signal/images/circle.png></img></div>","89,71","850","","89","","test","100","<div class = coverbox></div><div class = stopbox><div class = centered-shape id = stop-signal></div><div class = centered-shape id = stop-signal-inner></div></div>","450","go","500","go","89",""
"508","71","stop-signal","126","387865","0.0-115.0","sub-09_sess-02_1","","2350","0","stim","","<div class = coverbox></div><div class = shapebox><img class = stim src = /static/experiments/motor_selective_stop_signal/images/triangle.png></img></div>","89,71","850","","71","","test","101","<div class = coverbox></div><div class = stopbox><div class = centered-shape id = stop-signal></div><div class = centered-shape id = stop-signal-inner></div></div>","450","go","500","go","89",""
"510","71","stop-signal","127","390325","0.0-116.0","sub-09_sess-02_1","","2450","0","stim","","<div class = coverbox></div><div class = shapebox><img class = stim src = /static/experiments/motor_selective_stop_signal/images/rhombus.png></img></div>","89,71","850","","71","","test","102","<div class = coverbox></div><div class = stopbox><div class = centered-shape id = stop-signal></div><div class = centered-shape id = stop-signal-inner></div></div>","450","stop","500","ignore","89",""
"-1","-1","stop-signal","128","392586","0.0-117.0","sub-09_sess-02_1","","2250","0","stim","","<div class = coverbox></div><div class = shapebox><img class = stim src = /static/experiments/motor_selective_stop_signal/images/circle.png></img></div>","89,71","850","","89","","test","103","<div class = coverbox></div><div class = stopbox><div class = centered-shape id = stop-signal></div><div class = centered-shape id = stop-signal-inner></div></div>","450","stop","500","stop","89",""
"502","71","stop-signal","129","394845","0.0-118.0","sub-09_sess-02_1","","2250","0","stim","","<div class = coverbox></div><div class = shapebox><img class = stim src = /static/experiments/motor_selective_stop_signal/images/rhombus.png></img></div>","89,71","850","","71","","test","104","<div class = coverbox></div><div class = stopbox><div class = centered-shape id = stop-signal></div><div class = centered-shape id = stop-signal-inner></div></div>","500","go","500","go","89",""
"770","71","stop-signal","130","397704","0.0-119.0","sub-09_sess-02_1","","2850","0","stim","","<div class = coverbox></div><div class = shapebox><img class = stim src = /static/experiments/motor_selective_stop_signal/images/triangle.png></img></div>","89,71","850","","71","","test","105","<div class = coverbox></div><div class = stopbox><div class = centered-shape id = stop-signal></div><div class = centered-shape id = stop-signal-inner></div></div>","500","go","500","go","89",""
"666","89","stop-signal","131","399965","0.0-120.0","sub-09_sess-02_1","","2250","0","stim","","<div class = coverbox></div><div class = shapebox><img class = stim src = /static/experiments/motor_selective_stop_signal/images/circle.png></img></div>","89,71","850","","89","","test","106","<div class = coverbox></div><div class = stopbox><div class = centered-shape id = stop-signal></div><div class = centered-shape id = stop-signal-inner></div></div>","500","go","500","go","89",""
"609","71","stop-signal","132","403427","0.0-121.0","sub-09_sess-02_1","","3450","0","stim","","<div class = coverbox></div><div class = shapebox><img class = stim src = /static/experiments/motor_selective_stop_signal/images/rhombus.png></img></div>","89,71","850","","71","","test","107","<div class = coverbox></div><div class = stopbox><div class = centered-shape id = stop-signal></div><div class = centered-shape id = stop-signal-inner></div></div>","500","go","500","go","89",""
"461","71","stop-signal","133","405784","0.0-122.0","sub-09_sess-02_1","","2350","0","stim","","<div class = coverbox></div><div class = shapebox><img class = stim src = /static/experiments/motor_selective_stop_signal/images/triangle.png></img></div>","89,71","850","","71","","test","108","<div class = coverbox></div><div class = stopbox><div class = centered-shape id = stop-signal></div><div class = centered-shape id = stop-signal-inner></div></div>","500","stop","500","ignore","89",""
"624","71","stop-signal","134","408145","0.0-123.0","sub-09_sess-02_1","","2350","0","stim","","<div class = coverbox></div><div class = shapebox><img class = stim src = /static/experiments/motor_selective_stop_signal/images/rhombus.png></img></div>","89,71","850","","71","","test","109","<div class = coverbox></div><div class = stopbox><div class = centered-shape id = stop-signal></div><div class = centered-shape id = stop-signal-inner></div></div>","500","stop","500","ignore","89",""
"586","71","stop-signal","135","410506","0.0-124.0","sub-09_sess-02_1","","2350","0","stim","","<div class = coverbox></div><div class = shapebox><img class = stim src = /static/experiments/motor_selective_stop_signal/images/rhombus.png></img></div>","89,71","850","","71","","test","110","<div class = coverbox></div><div class = stopbox><div class = centered-shape id = stop-signal></div><div class = centered-shape id = stop-signal-inner></div></div>","500","go","500","go","89",""
"-1","-1","stop-signal","136","412965","0.0-125.0","sub-09_sess-02_1","","2450","0","stim","","<div class = coverbox></div><div class = shapebox><img class = stim src = /static/experiments/motor_selective_stop_signal/images/Lshape.png></img></div>","89,71","850","","89","","test","111","<div class = coverbox></div><div class = stopbox><div class = centered-shape id = stop-signal></div><div class = centered-shape id = stop-signal-inner></div></div>","500","stop","500","stop","89",""
"450","71","stop-signal","137","415525","0.0-126.0","sub-09_sess-02_1","","2550","0","stim","","<div class = coverbox></div><div class = shapebox><img class = stim src = /static/experiments/motor_selective_stop_signal/images/triangle.png></img></div>","89,71","850","","71","","test","112","<div class = coverbox></div><div class = stopbox><div class = centered-shape id = stop-signal></div><div class = centered-shape id = stop-signal-inner></div></div>","550","stop","500","ignore","89",""
"721","89","stop-signal","138","417885","0.0-127.0","sub-09_sess-02_1","","2350","0","stim","","<div class = coverbox></div><div class = shapebox><img class = stim src = /static/experiments/motor_selective_stop_signal/images/circle.png></img></div>","89,71","850","","89","","test","113","<div class = coverbox></div><div class = stopbox><div class = centered-shape id = stop-signal></div><div class = centered-shape id = stop-signal-inner></div></div>","550","go","500","go","89",""
"-1","-1","stop-signal","139","420145","0.0-128.0","sub-09_sess-02_1","","2250","0","stim","","<div class = coverbox></div><div class = shapebox><img class = stim src = /static/experiments/motor_selective_stop_signal/images/Lshape.png></img></div>","89,71","850","","89","","test","114","<div class = coverbox></div><div class = stopbox><div class = centered-shape id = stop-signal></div><div class = centered-shape id = stop-signal-inner></div></div>","550","stop","500","stop","89",""
"575","89","stop-signal","140","422415","0.0-129.0","sub-09_sess-02_1","","2250","0","stim","","<div class = coverbox></div><div class = shapebox><img class = stim src = /static/experiments/motor_selective_stop_signal/images/Lshape.png></img></div>","89,71","850","","89","","test","115","<div class = coverbox></div><div class = stopbox><div class = centered-shape id = stop-signal></div><div class = centered-shape id = stop-signal-inner></div></div>","600","go","500","go","89",""
"781","89","stop-signal","141","425485","0.0-130.0","sub-09_sess-02_1","","3050","0","stim","","<div class = coverbox></div><div class = shapebox><img class = stim src = /static/experiments/motor_selective_stop_signal/images/circle.png></img></div>","89,71","850","","89","","test","116","<div class = coverbox></div><div class = stopbox><div class = centered-shape id = stop-signal></div><div class = centered-shape id = stop-signal-inner></div></div>","600","go","500","go","89",""
"835","89","stop-signal","142","427946","0.0-131.0","sub-09_sess-02_1","","2450","0","stim","","<div class = coverbox></div><div class = shapebox><img class = stim src = /static/experiments/motor_selective_stop_signal/images/Lshape.png></img></div>","89,71","850","","89","","test","117","<div class = coverbox></div><div class = stopbox><div class = centered-shape id = stop-signal></div><div class = centered-shape id = stop-signal-inner></div></div>","600","go","500","go","89",""
"1019","89","stop-signal","143","430305","0.0-132.0","sub-09_sess-02_1","","2350","0","stim","","<div class = coverbox></div><div class = shapebox><img class = stim src = /static/experiments/motor_selective_stop_signal/images/Lshape.png></img></div>","89,71","850","","89","","test","118","<div class = coverbox></div><div class = stopbox><div class = centered-shape id = stop-signal></div><div class = centered-shape id = stop-signal-inner></div></div>","600","go","500","go","89",""
"736","89","stop-signal","144","432566","0.0-133.0","sub-09_sess-02_1","","2250","0","stim","","<div class = coverbox></div><div class = shapebox><img class = stim src = /static/experiments/motor_selective_stop_signal/images/circle.png></img></div>","89,71","850","","89","","test","119","<div class = coverbox></div><div class = stopbox><div class = centered-shape id = stop-signal></div><div class = centered-shape id = stop-signal-inner></div></div>","600","stop","500","stop","89",""
"592","89","stop-signal","145","435828","0.0-134.0","sub-09_sess-02_1","","3250","0","stim","","<div class = coverbox></div><div class = shapebox><img class = stim src = /static/experiments/motor_selective_stop_signal/images/circle.png></img></div>","89,71","850","","89","","test","120","<div class = coverbox></div><div class = stopbox><div class = centered-shape id = stop-signal></div><div class = centered-shape id = stop-signal-inner></div></div>","550","stop","500","stop","89",""
"698","89","stop-signal","146","438785","0.0-135.0","sub-09_sess-02_1","","2950","0","stim","","<div class = coverbox></div><div class = shapebox><img class = stim src = /static/experiments/motor_selective_stop_signal/images/Lshape.png></img></div>","89,71","850","","89","","test","121","<div class = coverbox></div><div class = stopbox><div class = centered-shape id = stop-signal></div><div class = centered-shape id = stop-signal-inner></div></div>","500","go","500","go","89",""
"644","89","stop-signal","147","441356","0.0-136.0","sub-09_sess-02_1","","2550","0","stim","","<div class = coverbox></div><div class = shapebox><img class = stim src = /static/experiments/motor_selective_stop_signal/images/Lshape.png></img></div>","89,71","850","","89","","test","122","<div class = coverbox></div><div class = stopbox><div class = centered-shape id = stop-signal></div><div class = centered-shape id = stop-signal-inner></div></div>","500","stop","500","stop","89",""
"545","71","stop-signal","148","443714","0.0-137.0","sub-09_sess-02_1","","2350","0","stim","","<div class = coverbox></div><div class = shapebox><img class = stim src = /static/experiments/motor_selective_stop_signal/images/rhombus.png></img></div>","89,71","850","","71","","test","123","<div class = coverbox></div><div class = stopbox><div class = centered-shape id = stop-signal></div><div class = centered-shape id = stop-signal-inner></div></div>","450","go","500","go","89",""
"-1","-1","stop-signal","149","446275","0.0-138.0","sub-09_sess-02_1","","2550","0","stim","","<div class = coverbox></div><div class = shapebox><img class = stim src = /static/experiments/motor_selective_stop_signal/images/circle.png></img></div>","89,71","850","","89","","test","124","<div class = coverbox></div><div class = stopbox><div class = centered-shape id = stop-signal></div><div class = centered-shape id = stop-signal-inner></div></div>","450","stop","500","stop","89",""
"503","71","stop-signal","150","448635","0.0-139.0","sub-09_sess-02_1","","2350","0","stim","","<div class = coverbox></div><div class = shapebox><img class = stim src = /static/experiments/motor_selective_stop_signal/images/triangle.png></img></div>","89,71","850","","71","","test","125","<div class = coverbox></div><div class = stopbox><div class = centered-shape id = stop-signal></div><div class = centered-shape id = stop-signal-inner></div></div>","500","go","500","go","89",""
"669","89","stop-signal","151","450895","0.0-140.0","sub-09_sess-02_1","","2250","0","stim","","<div class = coverbox></div><div class = shapebox><img class = stim src = /static/experiments/motor_selective_stop_signal/images/circle.png></img></div>","89,71","850","","89","","test","126","<div class = coverbox></div><div class = stopbox><div class = centered-shape id = stop-signal></div><div class = centered-shape id = stop-signal-inner></div></div>","500","go","500","go","89",""
"520","71","stop-signal","152","453356","0.0-141.0","sub-09_sess-02_1","","2450","0","stim","","<div class = coverbox></div><div class = shapebox><img class = stim src = /static/experiments/motor_selective_stop_signal/images/rhombus.png></img></div>","89,71","850","","71","","test","127","<div class = coverbox></div><div class = stopbox><div class = centered-shape id = stop-signal></div><div class = centered-shape id = stop-signal-inner></div></div>","500","stop","500","ignore","89",""
"672","89","stop-signal","153","455725","0.0-142.0","sub-09_sess-02_1","","2350","0","stim","","<div class = coverbox></div><div class = shapebox><img class = stim src = /static/experiments/motor_selective_stop_signal/images/Lshape.png></img></div>","89,71","850","","89","","test","128","<div class = coverbox></div><div class = stopbox><div class = centered-shape id = stop-signal></div><div class = centered-shape id = stop-signal-inner></div></div>","500","go","500","go","89",""
"452","71","stop-signal","154","458395","0.0-143.0","sub-09_sess-02_1","","2650","0","stim","","<div class = coverbox></div><div class = shapebox><img class = stim src = /static/experiments/motor_selective_stop_signal/images/rhombus.png></img></div>","89,71","850","","71","","test","129","<div class = coverbox></div><div class = stopbox><div class = centered-shape id = stop-signal></div><div class = centered-shape id = stop-signal-inner></div></div>","500","stop","500","ignore","89",""
"463","71","stop-signal","155","460654","0.0-144.0","sub-09_sess-02_1","","2250","0","stim","","<div class = coverbox></div><div class = shapebox><img class = stim src = /static/experiments/motor_selective_stop_signal/images/rhombus.png></img></div>","89,71","850","","71","","test","130","<div class = coverbox></div><div class = stopbox><div class = centered-shape id = stop-signal></div><div class = centered-shape id = stop-signal-inner></div></div>","500","go","500","go","89",""
"613","89","stop-signal","156","462915","0.0-145.0","sub-09_sess-02_1","","2250","0","stim","","<div class = coverbox></div><div class = shapebox><img class = stim src = /static/experiments/motor_selective_stop_signal/images/circle.png></img></div>","89,71","850","","89","","test","131","<div class = coverbox></div><div class = stopbox><div class = centered-shape id = stop-signal></div><div class = centered-shape id = stop-signal-inner></div></div>","500","stop","500","stop","89",""
"838","89","stop-signal","157","465376","0.0-146.0","sub-09_sess-02_1","","2450","0","stim","","<div class = coverbox></div><div class = shapebox><img class = stim src = /static/experiments/motor_selective_stop_signal/images/Lshape.png></img></div>","89,71","850","","89","","test","132","<div class = coverbox></div><div class = stopbox><div class = centered-shape id = stop-signal></div><div class = centered-shape id = stop-signal-inner></div></div>","450","go","500","go","89",""
"845","89","stop-signal","158","467637","0.0-147.0","sub-09_sess-02_1","","2250","0","stim","","<div class = coverbox></div><div class = shapebox><img class = stim src = /static/experiments/motor_selective_stop_signal/images/circle.png></img></div>","89,71","850","","89","","test","133","<div class = coverbox></div><div class = stopbox><div class = centered-shape id = stop-signal></div><div class = centered-shape id = stop-signal-inner></div></div>","450","go","500","go","89",""
"-1","-1","stop-signal","159","470195","0.0-148.0","sub-09_sess-02_1","","2550","0","stim","","<div class = coverbox></div><div class = shapebox><img class = stim src = /static/experiments/motor_selective_stop_signal/images/Lshape.png></img></div>","89,71","850","","89","","test","134","<div class = coverbox></div><div class = stopbox><div class = centered-shape id = stop-signal></div><div class = centered-shape id = stop-signal-inner></div></div>","450","stop","500","stop","89",""
"687","89","stop-signal","160","472456","0.0-149.0","sub-09_sess-02_1","","2250","0","stim","","<div class = coverbox></div><div class = shapebox><img class = stim src = /static/experiments/motor_selective_stop_signal/images/circle.png></img></div>","89,71","850","","89","","test","135","<div class = coverbox></div><div class = stopbox><div class = centered-shape id = stop-signal></div><div class = centered-shape id = stop-signal-inner></div></div>","500","go","500","go","89",""
"535","71","stop-signal","161","474816","0.0-150.0","sub-09_sess-02_1","","2350","0","stim","","<div class = coverbox></div><div class = shapebox><img class = stim src = /static/experiments/motor_selective_stop_signal/images/rhombus.png></img></div>","89,71","850","","71","","test","136","<div class = coverbox></div><div class = stopbox><div class = centered-shape id = stop-signal></div><div class = centered-shape id = stop-signal-inner></div></div>","500","stop","500","ignore","89",""
"685","89","stop-signal","162","477075","0.0-151.0","sub-09_sess-02_1","","2250","0","stim","","<div class = coverbox></div><div class = shapebox><img class = stim src = /static/experiments/motor_selective_stop_signal/images/circle.png></img></div>","89,71","850","","89","","test","137","<div class = coverbox></div><div class = stopbox><div class = centered-shape id = stop-signal></div><div class = centered-shape id = stop-signal-inner></div></div>","500","stop","500","stop","89",""
"-1","-1","stop-signal","163","479633","0.0-152.0","sub-09_sess-02_1","","2550","0","stim","","<div class = coverbox></div><div class = shapebox><img class = stim src = /static/experiments/motor_selective_stop_signal/images/Lshape.png></img></div>","89,71","850","","89","","test","138","<div class = coverbox></div><div class = stopbox><div class = centered-shape id = stop-signal></div><div class = centered-shape id = stop-signal-inner></div></div>","450","stop","500","stop","89",""
"436","71","stop-signal","164","482194","0.0-153.0","sub-09_sess-02_1","","2550","0","stim","","<div class = coverbox></div><div class = shapebox><img class = stim src = /static/experiments/motor_selective_stop_signal/images/triangle.png></img></div>","89,71","850","","71","","test","139","<div class = coverbox></div><div class = stopbox><div class = centered-shape id = stop-signal></div><div class = centered-shape id = stop-signal-inner></div></div>","500","go","500","go","89",""
"582","71","stop-signal","165","484565","0.0-154.0","sub-09_sess-02_1","","2350","0","stim","","<div class = coverbox></div><div class = shapebox><img class = stim src = /static/experiments/motor_selective_stop_signal/images/rhombus.png></img></div>","89,71","850","","71","","test","140","<div class = coverbox></div><div class = stopbox><div class = centered-shape id = stop-signal></div><div class = centered-shape id = stop-signal-inner></div></div>","500","go","500","go","89",""
"798","89","stop-signal","166","486924","0.0-155.0","sub-09_sess-02_1","","2350","0","stim","","<div class = coverbox></div><div class = shapebox><img class = stim src = /static/experiments/motor_selective_stop_signal/images/Lshape.png></img></div>","89,71","850","","89","","test","141","<div class = coverbox></div><div class = stopbox><div class = centered-shape id = stop-signal></div><div class = centered-shape id = stop-signal-inner></div></div>","500","go","500","go","89",""
"825","89","stop-signal","167","489194","0.0-156.0","sub-09_sess-02_1","","2250","0","stim","","<div class = coverbox></div><div class = shapebox><img class = stim src = /static/experiments/motor_selective_stop_signal/images/Lshape.png></img></div>","89,71","850","","89","","test","142","<div class = coverbox></div><div class = stopbox><div class = centered-shape id = stop-signal></div><div class = centered-shape id = stop-signal-inner></div></div>","500","go","500","go","89",""
"590","71","stop-signal","168","491665","0.0-157.0","sub-09_sess-02_1","","2450","0","stim","","<div class = coverbox></div><div class = shapebox><img class = stim src = /static/experiments/motor_selective_stop_signal/images/rhombus.png></img></div>","89,71","850","","71","","test","143","<div class = coverbox></div><div class = stopbox><div class = centered-shape id = stop-signal></div><div class = centered-shape id = stop-signal-inner></div></div>","500","stop","500","ignore","89",""
"928","89","stop-signal","169","493934","0.0-158.0","sub-09_sess-02_1","","2250","0","stim","","<div class = coverbox></div><div class = shapebox><img class = stim src = /static/experiments/motor_selective_stop_signal/images/Lshape.png></img></div>","89,71","850","","89","","test","144","<div class = coverbox></div><div class = stopbox><div class = centered-shape id = stop-signal></div><div class = centered-shape id = stop-signal-inner></div></div>","500","go","500","go","89",""
"542","71","stop-signal","170","496394","0.0-159.0","sub-09_sess-02_1","","2450","0","stim","","<div class = coverbox></div><div class = shapebox><img class = stim src = /static/experiments/motor_selective_stop_signal/images/rhombus.png></img></div>","89,71","850","","71","","test","145","<div class = coverbox></div><div class = stopbox><div class = centered-shape id = stop-signal></div><div class = centered-shape id = stop-signal-inner></div></div>","500","stop","500","ignore","89",""
"-1","-1","stop-signal","171","499055","0.0-160.0","sub-09_sess-02_1","","2650","0","stim","","<div class = coverbox></div><div class = shapebox><img class = stim src = /static/experiments/motor_selective_stop_signal/images/Lshape.png></img></div>","89,71","850","","89","","test","146","<div class = coverbox></div><div class = stopbox><div class = centered-shape id = stop-signal></div><div class = centered-shape id = stop-signal-inner></div></div>","500","stop","500","stop","89",""
"477","71","stop-signal","172","501514","0.0-161.0","sub-09_sess-02_1","","2450","0","stim","","<div class = coverbox></div><div class = shapebox><img class = stim src = /static/experiments/motor_selective_stop_signal/images/rhombus.png></img></div>","89,71","850","","71","","test","147","<div class = coverbox></div><div class = stopbox><div class = centered-shape id = stop-signal></div><div class = centered-shape id = stop-signal-inner></div></div>","550","go","500","go","89",""
"445","71","stop-signal","173","503876","0.0-162.0","sub-09_sess-02_1","","2350","0","stim","","<div class = coverbox></div><div class = shapebox><img class = stim src = /static/experiments/motor_selective_stop_signal/images/triangle.png></img></div>","89,71","850","","71","","test","148","<div class = coverbox></div><div class = stopbox><div class = centered-shape id = stop-signal></div><div class = centered-shape id = stop-signal-inner></div></div>","550","go","500","go","89",""
"623","71","stop-signal","174","506136","0.0-163.0","sub-09_sess-02_1","","2250","0","stim","","<div class = coverbox></div><div class = shapebox><img class = stim src = /static/experiments/motor_selective_stop_signal/images/rhombus.png></img></div>","89,71","850","","71","","test","149","<div class = coverbox></div><div class = stopbox><div class = centered-shape id = stop-signal></div><div class = centered-shape id = stop-signal-inner></div></div>","550","stop","500","ignore","89",""
"-1","-1","poldrack-single-stim","175","513654","0.0-164.0","sub-09_sess-02_1","","7500","1000","rest_block","","<div class = centerbox><div class = center-text>+</div></div>","none","7500","","","","","","","","","","","",""
"-1","-1","poldrack-single-stim","176","516195","0.0-165.0","sub-09_sess-02_1","","1500","500","test_start_block","","<div class = centerbox><div class = center-text>Preparez-vous!</p></div>","none","1500","","","","","","","","","","","",""
"772","89","stop-signal","177","519276","0.0-166.0","sub-09_sess-02_1","","2550","0","stim","","<div class = coverbox></div><div class = shapebox><img class = stim src = /static/experiments/motor_selective_stop_signal/images/Lshape.png></img></div>","89,71","850","","89","","test","150","<div class = coverbox></div><div class = stopbox><div class = centered-shape id = stop-signal></div><div class = centered-shape id = stop-signal-inner></div></div>","550","go","500","go","89",""
"553","71","stop-signal","178","521534","0.0-167.0","sub-09_sess-02_1","","2250","0","stim","","<div class = coverbox></div><div class = shapebox><img class = stim src = /static/experiments/motor_selective_stop_signal/images/triangle.png></img></div>","89,71","850","","71","","test","151","<div class = coverbox></div><div class = stopbox><div class = centered-shape id = stop-signal></div><div class = centered-shape id = stop-signal-inner></div></div>","550","go","500","go","89",""
"483","71","stop-signal","179","523795","0.0-168.0","sub-09_sess-02_1","","2250","0","stim","","<div class = coverbox></div><div class = shapebox><img class = stim src = /static/experiments/motor_selective_stop_signal/images/triangle.png></img></div>","89,71","850","","71","","test","152","<div class = coverbox></div><div class = stopbox><div class = centered-shape id = stop-signal></div><div class = centered-shape id = stop-signal-inner></div></div>","550","go","500","go","89",""
"472","71","stop-signal","180","526155","0.0-169.0","sub-09_sess-02_1","","2350","0","stim","","<div class = coverbox></div><div class = shapebox><img class = stim src = /static/experiments/motor_selective_stop_signal/images/rhombus.png></img></div>","89,71","850","","71","","test","153","<div class = coverbox></div><div class = stopbox><div class = centered-shape id = stop-signal></div><div class = centered-shape id = stop-signal-inner></div></div>","550","go","500","go","89",""
"404","71","stop-signal","181","528414","0.0-170.0","sub-09_sess-02_1","","2250","0","stim","","<div class = coverbox></div><div class = shapebox><img class = stim src = /static/experiments/motor_selective_stop_signal/images/triangle.png></img></div>","89,71","850","","71","","test","154","<div class = coverbox></div><div class = stopbox><div class = centered-shape id = stop-signal></div><div class = centered-shape id = stop-signal-inner></div></div>","550","go","500","go","89",""
"434","71","stop-signal","182","531075","0.0-171.0","sub-09_sess-02_1","","2650","0","stim","","<div class = coverbox></div><div class = shapebox><img class = stim src = /static/experiments/motor_selective_stop_signal/images/rhombus.png></img></div>","89,71","850","","71","","test","155","<div class = coverbox></div><div class = stopbox><div class = centered-shape id = stop-signal></div><div class = centered-shape id = stop-signal-inner></div></div>","550","stop","500","ignore","89",""
"495","71","stop-signal","183","533436","0.0-172.0","sub-09_sess-02_1","","2350","0","stim","","<div class = coverbox></div><div class = shapebox><img class = stim src = /static/experiments/motor_selective_stop_signal/images/rhombus.png></img></div>","89,71","850","","71","","test","156","<div class = coverbox></div><div class = stopbox><div class = centered-shape id = stop-signal></div><div class = centered-shape id = stop-signal-inner></div></div>","550","stop","500","ignore","89",""
"484","71","stop-signal","184","535905","0.0-173.0","sub-09_sess-02_1","","2450","0","stim","","<div class = coverbox></div><div class = shapebox><img class = stim src = /static/experiments/motor_selective_stop_signal/images/rhombus.png></img></div>","89,71","850","","71","","test","157","<div class = coverbox></div><div class = stopbox><div class = centered-shape id = stop-signal></div><div class = centered-shape id = stop-signal-inner></div></div>","550","go","500","go","89",""
"389","71","stop-signal","185","538266","0.0-174.0","sub-09_sess-02_1","","2350","0","stim","","<div class = coverbox></div><div class = shapebox><img class = stim src = /static/experiments/motor_selective_stop_signal/images/triangle.png></img></div>","89,71","850","","71","","test","158","<div class = coverbox></div><div class = stopbox><div class = centered-shape id = stop-signal></div><div class = centered-shape id = stop-signal-inner></div></div>","550","stop","500","ignore","89",""
"422","71","stop-signal","186","540525","0.0-175.0","sub-09_sess-02_1","","2250","0","stim","","<div class = coverbox></div><div class = shapebox><img class = stim src = /static/experiments/motor_selective_stop_signal/images/Lshape.png></img></div>","89,71","850","","89","","test","159","<div class = coverbox></div><div class = stopbox><div class = centered-shape id = stop-signal></div><div class = centered-shape id = stop-signal-inner></div></div>","550","stop","500","stop","89",""
"751","89","stop-signal","187","542796","0.0-176.0","sub-09_sess-02_1","","2250","0","stim","","<div class = coverbox></div><div class = shapebox><img class = stim src = /static/experiments/motor_selective_stop_signal/images/circle.png></img></div>","89,71","850","","89","","test","160","<div class = coverbox></div><div class = stopbox><div class = centered-shape id = stop-signal></div><div class = centered-shape id = stop-signal-inner></div></div>","500","go","500","go","89",""
"-1","-1","stop-signal","188","545059","0.0-177.0","sub-09_sess-02_1","","2250","0","stim","","<div class = coverbox></div><div class = shapebox><img class = stim src = /static/experiments/motor_selective_stop_signal/images/Lshape.png></img></div>","89,71","850","","89","","test","161","<div class = coverbox></div><div class = stopbox><div class = centered-shape id = stop-signal></div><div class = centered-shape id = stop-signal-inner></div></div>","500","stop","500","stop","89",""
"505","71","stop-signal","189","547337","0.0-178.0","sub-09_sess-02_1","","2250","0","stim","","<div class = coverbox></div><div class = shapebox><img class = stim src = /static/experiments/motor_selective_stop_signal/images/rhombus.png></img></div>","89,71","850","","71","","test","162","<div class = coverbox></div><div class = stopbox><div class = centered-shape id = stop-signal></div><div class = centered-shape id = stop-signal-inner></div></div>","550","go","500","go","89",""
"804","89","stop-signal","190","549699","0.0-179.0","sub-09_sess-02_1","","2350","0","stim","","<div class = coverbox></div><div class = shapebox><img class = stim src = /static/experiments/motor_selective_stop_signal/images/circle.png></img></div>","89,71","850","","89","","test","163","<div class = coverbox></div><div class = stopbox><div class = centered-shape id = stop-signal></div><div class = centered-shape id = stop-signal-inner></div></div>","550","stop","500","stop","89",""
"446","71","stop-signal","191","553069","0.0-180.0","sub-09_sess-02_1","","3350","0","stim","","<div class = coverbox></div><div class = shapebox><img class = stim src = /static/experiments/motor_selective_stop_signal/images/rhombus.png></img></div>","89,71","850","","71","","test","164","<div class = coverbox></div><div class = stopbox><div class = centered-shape id = stop-signal></div><div class = centered-shape id = stop-signal-inner></div></div>","500","go","500","go","89",""
"536","71","stop-signal","192","555639","0.0-181.0","sub-09_sess-02_1","","2550","0","stim","","<div class = coverbox></div><div class = shapebox><img class = stim src = /static/experiments/motor_selective_stop_signal/images/triangle.png></img></div>","89,71","850","","71","","test","165","<div class = coverbox></div><div class = stopbox><div class = centered-shape id = stop-signal></div><div class = centered-shape id = stop-signal-inner></div></div>","500","go","500","go","89",""
"-1","-1","stop-signal","193","558405","0.0-182.0","sub-09_sess-02_1","","2750","0","stim","","<div class = coverbox></div><div class = shapebox><img class = stim src = /static/experiments/motor_selective_stop_signal/images/Lshape.png></img></div>","89,71","850","","89","","test","166","<div class = coverbox></div><div class = stopbox><div class = centered-shape id = stop-signal></div><div class = centered-shape id = stop-signal-inner></div></div>","500","stop","500","stop","89",""
"732","89","stop-signal","194","561166","0.0-183.0","sub-09_sess-02_1","","2750","0","stim","","<div class = coverbox></div><div class = shapebox><img class = stim src = /static/experiments/motor_selective_stop_signal/images/circle.png></img></div>","89,71","850","","89","","test","167","<div class = coverbox></div><div class = stopbox><div class = centered-shape id = stop-signal></div><div class = centered-shape id = stop-signal-inner></div></div>","550","go","500","go","89",""
"769","89","stop-signal","195","563829","0.0-184.0","sub-09_sess-02_1","","2650","0","stim","","<div class = coverbox></div><div class = shapebox><img class = stim src = /static/experiments/motor_selective_stop_signal/images/Lshape.png></img></div>","89,71","850","","89","","test","168","<div class = coverbox></div><div class = stopbox><div class = centered-shape id = stop-signal></div><div class = centered-shape id = stop-signal-inner></div></div>","550","go","500","go","89",""
"-1","-1","stop-signal","196","566306","0.0-185.0","sub-09_sess-02_1","","2450","0","stim","","<div class = coverbox></div><div class = shapebox><img class = stim src = /static/experiments/motor_selective_stop_signal/images/circle.png></img></div>","89,71","850","","89","","test","169","<div class = coverbox></div><div class = stopbox><div class = centered-shape id = stop-signal></div><div class = centered-shape id = stop-signal-inner></div></div>","550","stop","500","stop","89",""
"672","89","stop-signal","197","568565","0.0-186.0","sub-09_sess-02_1","","2250","0","stim","","<div class = coverbox></div><div class = shapebox><img class = stim src = /static/experiments/motor_selective_stop_signal/images/circle.png></img></div>","89,71","850","","89","","test","170","<div class = coverbox></div><div class = stopbox><div class = centered-shape id = stop-signal></div><div class = centered-shape id = stop-signal-inner></div></div>","600","go","500","go","89",""
"901","89","stop-signal","198","570925","0.0-187.0","sub-09_sess-02_1","","2350","0","stim","","<div class = coverbox></div><div class = shapebox><img class = stim src = /static/experiments/motor_selective_stop_signal/images/Lshape.png></img></div>","89,71","850","","89","","test","171","<div class = coverbox></div><div class = stopbox><div class = centered-shape id = stop-signal></div><div class = centered-shape id = stop-signal-inner></div></div>","600","go","500","go","89",""
"675","89","stop-signal","199","573395","0.0-188.0","sub-09_sess-02_1","","2450","0","stim","","<div class = coverbox></div><div class = shapebox><img class = stim src = /static/experiments/motor_selective_stop_signal/images/Lshape.png></img></div>","89,71","850","","89","","test","172","<div class = coverbox></div><div class = stopbox><div class = centered-shape id = stop-signal></div><div class = centered-shape id = stop-signal-inner></div></div>","600","go","500","go","89",""
"620","71","stop-signal","200","576455","0.0-189.0","sub-09_sess-02_1","","3050","0","stim","","<div class = coverbox></div><div class = shapebox><img class = stim src = /static/experiments/motor_selective_stop_signal/images/rhombus.png></img></div>","89,71","850","","71","","test","173","<div class = coverbox></div><div class = stopbox><div class = centered-shape id = stop-signal></div><div class = centered-shape id = stop-signal-inner></div></div>","600","go","500","go","89",""
"530","71","stop-signal","201","578817","0.0-190.0","sub-09_sess-02_1","","2350","0","stim","","<div class = coverbox></div><div class = shapebox><img class = stim src = /static/experiments/motor_selective_stop_signal/images/triangle.png></img></div>","89,71","850","","71","","test","174","<div class = coverbox></div><div class = stopbox><div class = centered-shape id = stop-signal></div><div class = centered-shape id = stop-signal-inner></div></div>","600","go","500","go","89",""
"546","71","stop-signal","202","581077","0.0-191.0","sub-09_sess-02_1","","2250","0","stim","","<div class = coverbox></div><div class = shapebox><img class = stim src = /static/experiments/motor_selective_stop_signal/images/triangle.png></img></div>","89,71","850","","71","","test","175","<div class = coverbox></div><div class = stopbox><div class = centered-shape id = stop-signal></div><div class = centered-shape id = stop-signal-inner></div></div>","600","stop","500","ignore","89",""
"856","89","stop-signal","203","583445","0.0-192.0","sub-09_sess-02_1","","2350","0","stim","","<div class = coverbox></div><div class = shapebox><img class = stim src = /static/experiments/motor_selective_stop_signal/images/circle.png></img></div>","89,71","850","","89","","test","176","<div class = coverbox></div><div class = stopbox><div class = centered-shape id = stop-signal></div><div class = centered-shape id = stop-signal-inner></div></div>","600","go","500","go","89",""
"507","71","stop-signal","204","585815","0.0-193.0","sub-09_sess-02_1","","2350","0","stim","","<div class = coverbox></div><div class = shapebox><img class = stim src = /static/experiments/motor_selective_stop_signal/images/rhombus.png></img></div>","89,71","850","","71","","test","177","<div class = coverbox></div><div class = stopbox><div class = centered-shape id = stop-signal></div><div class = centered-shape id = stop-signal-inner></div></div>","600","go","500","go","89",""
"490","71","stop-signal","205","588176","0.0-194.0","sub-09_sess-02_1","","2350","0","stim","","<div class = coverbox></div><div class = shapebox><img class = stim src = /static/experiments/motor_selective_stop_signal/images/triangle.png></img></div>","89,71","850","","71","","test","178","<div class = coverbox></div><div class = stopbox><div class = centered-shape id = stop-signal></div><div class = centered-shape id = stop-signal-inner></div></div>","600","go","500","go","89",""
"502","71","stop-signal","206","590536","0.0-195.0","sub-09_sess-02_1","","2350","0","stim","","<div class = coverbox></div><div class = shapebox><img class = stim src = /static/experiments/motor_selective_stop_signal/images/triangle.png></img></div>","89,71","850","","71","","test","179","<div class = coverbox></div><div class = stopbox><div class = centered-shape id = stop-signal></div><div class = centered-shape id = stop-signal-inner></div></div>","600","stop","500","ignore","89",""
"750","89","stop-signal","207","592906","0.0-196.0","sub-09_sess-02_1","","2350","0","stim","","<div class = coverbox></div><div class = shapebox><img class = stim src = /static/experiments/motor_selective_stop_signal/images/Lshape.png></img></div>","89,71","850","","89","","test","180","<div class = coverbox></div><div class = stopbox><div class = centered-shape id = stop-signal></div><div class = centered-shape id = stop-signal-inner></div></div>","600","go","500","go","89",""
"718","89","stop-signal","208","595164","0.0-197.0","sub-09_sess-02_1","","2250","0","stim","","<div class = coverbox></div><div class = shapebox><img class = stim src = /static/experiments/motor_selective_stop_signal/images/circle.png></img></div>","89,71","850","","89","","test","181","<div class = coverbox></div><div class = stopbox><div class = centered-shape id = stop-signal></div><div class = centered-shape id = stop-signal-inner></div></div>","600","go","500","go","89",""
"-1","-1","stop-signal","209","597536","0.0-198.0","sub-09_sess-02_1","","2350","0","stim","","<div class = coverbox></div><div class = shapebox><img class = stim src = /static/experiments/motor_selective_stop_signal/images/Lshape.png></img></div>","89,71","850","","89","","test","182","<div class = coverbox></div><div class = stopbox><div class = centered-shape id = stop-signal></div><div class = centered-shape id = stop-signal-inner></div></div>","600","stop","500","stop","89",""
"631","89","stop-signal","210","599995","0.0-199.0","sub-09_sess-02_1","","2450","0","stim","","<div class = coverbox></div><div class = shapebox><img class = stim src = /static/experiments/motor_selective_stop_signal/images/Lshape.png></img></div>","89,71","850","","89","","test","183","<div class = coverbox></div><div class = stopbox><div class = centered-shape id = stop-signal></div><div class = centered-shape id = stop-signal-inner></div></div>","650","go","500","go","89",""
"633","71","stop-signal","211","602355","0.0-200.0","sub-09_sess-02_1","","2350","0","stim","","<div class = coverbox></div><div class = shapebox><img class = stim src = /static/experiments/motor_selective_stop_signal/images/rhombus.png></img></div>","89,71","850","","71","","test","184","<div class = coverbox></div><div class = stopbox><div class = centered-shape id = stop-signal></div><div class = centered-shape id = stop-signal-inner></div></div>","650","go","500","go","89",""
"536","71","stop-signal","212","605218","0.0-201.0","sub-09_sess-02_1","","2850","0","stim","","<div class = coverbox></div><div class = shapebox><img class = stim src = /static/experiments/motor_selective_stop_signal/images/rhombus.png></img></div>","89,71","850","","71","","test","185","<div class = coverbox></div><div class = stopbox><div class = centered-shape id = stop-signal></div><div class = centered-shape id = stop-signal-inner></div></div>","650","go","500","go","89",""
"738","89","stop-signal","213","607796","0.0-202.0","sub-09_sess-02_1","","2550","0","stim","","<div class = coverbox></div><div class = shapebox><img class = stim src = /static/experiments/motor_selective_stop_signal/images/circle.png></img></div>","89,71","850","","89","","test","186","<div class = coverbox></div><div class = stopbox><div class = centered-shape id = stop-signal></div><div class = centered-shape id = stop-signal-inner></div></div>","650","go","500","go","89",""
"541","71","stop-signal","214","610557","0.0-203.0","sub-09_sess-02_1","","2750","0","stim","","<div class = coverbox></div><div class = shapebox><img class = stim src = /static/experiments/motor_selective_stop_signal/images/triangle.png></img></div>","89,71","850","","71","","test","187","<div class = coverbox></div><div class = stopbox><div class = centered-shape id = stop-signal></div><div class = centered-shape id = stop-signal-inner></div></div>","650","go","500","go","89",""
