"rt","key_press","trial_type","trial_index","time_elapsed","internal_node_id","subject","text","block_duration","timing_post_trial","trial_id","stimulus","possible_responses","stim_duration","current_position","num_moves_made","min_moves","start_state","goal_state","condition","problem_id","exp_stage","problem_time","correct","exp_id"
"66148","13","text","0","66154","0.0-0.0","sub-13-ses-03_1","","","","","","","","","","","","","","","","","",""
"843","89","poldrack-text","1","68009","0.0-1.0","sub-13-ses-03_1","<div class = centerbox><div style = 'font-size: 50px' class = center-text>Veuillez appuyer avec votre index</p></div>","843","500","fmri_response_test","","","","","","","","","","","","","",""
"515","71","poldrack-text","2","69037","0.0-2.0","sub-13-ses-03_1","<div class = centerbox><div style = 'font-size: 50px' class = center-text>Veuillez appuyer avec votre majeur</p></div>","515","500","fmri_response_test","","","","","","","","","","","","","",""
"437","82","poldrack-text","3","69999","0.0-3.0","sub-13-ses-03_1","<div class = centerbox><div style = 'font-size: 50px' class = center-text>Veuillez appuyer avec votre annulaire</p></div>","437","500","fmri_response_test","","","","","","","","","","","","","",""
"2315","32","poldrack-single-stim","4","72842","0.0-4.0","sub-13-ses-03_1","","2315","0","instructions","<div class = centerbox><div class = center-text>Resolvez les taches de la tour !<br><br>Planifiez d'avance et travaillez rapidement!<br><br>Nous allons commencer par un peu de pratique.</div></div>","32","2315","","","","","","","","","","",""
"904","32","poldrack-text","5","73749","0.0-5.0","sub-13-ses-03_1","<div class = centerbox><div  class = center-text>Scanner Setup</div></div>","904","0","fmri_scanner_wait","","","","","","","","","","","","","",""
"52382","84","poldrack-text","6","126133","0.0-6.0","sub-13-ses-03_1","<div class = centerbox><div style='color:red'; class = center-text>+</div></div>","52382","0","fmri_trigger_wait","","","","","","","","","","","","","",""
"-1","-1","poldrack-single-stim","7","127152","0.0-7.0","sub-13-ses-03_1","","1000","0","fmri_buffer","","none","1000","","","","","","","","","","",""
"-1","-1","poldrack-single-stim","8","128660","0.0-8.0","sub-13-ses-03_1","","1500","500","practice_start_block","<div class = centerbox><div class = center-text>Sur le point de commencer l'entrainement</p></div>","none","1500","","","","","","","","","","",""
"3559","71","poldrack-single-stim","9","132735","0.0-9.0-0.0-0.0","sub-13-ses-03_1","","3559","0","to_hand","<div class = watt_canvas><div class=""watt_vertical_line""></div></div><div class = watt_your_board><div class = watt_base></div><div class = watt_board_label><strong>Votre Planche</strong></div><div id = watt_peg_1><div class = watt_peg></div></div><div class = special id = watt_peg_1 onclick = ""pegClick(this.id)""><div class = ""watt_ball watt_Green""><div class = watt_ball_label>G</div></div></div><div id = watt_peg_2><div class = watt_peg></div></div><div class = special id = watt_peg_2 onclick = ""pegClick(this.id)""><div class = ""watt_ball watt_Red""><div class = watt_ball_label>R</div></div><div class = ""watt_ball watt_Blue""><div class = watt_ball_label>B</div></div></div><div id = watt_peg_3><div class = watt_peg></div></div><div id = watt_peg_3 onclick = ""pegClick(this.id)""></div></div><div class = watt_peg_board><div class = watt_base></div><div class = watt_board_label><strong>Planche Cible</strong></div><div id = watt_peg_1><div class = watt_peg></div></div><div id = watt_peg_1 ><div class = ""watt_ball watt_Green""><div class = watt_ball_label>G</div></div><div class = ""watt_ball watt_Red""><div class = watt_ball_label>R</div></div><div class = ""watt_ball watt_Blue""><div class = watt_ball_label>B</div></div></div><div id = watt_peg_2><div class = watt_peg></div></div><div id = watt_peg_2 ></div><div id = watt_peg_3><div class = watt_peg></div></div><div id = watt_peg_3 ></div></div><div class = watt_hand_box></div><div class = watt_hand_label><strong>Boule en main</strong></div>","89,71","3559","1,0,0,2,0,0,0,0,0","1","3","1,0,0,2,3,0,0,0,0","1,2,3,0,0,0,0,0,0","UA_with_intermediate","0","practice","","",""
"1882","82","poldrack-single-stim","10","134625","0.0-9.0-0.0-1.0","sub-13-ses-03_1","","1882","0","to_board","<div class = watt_canvas><div class=""watt_vertical_line""></div></div><div class = watt_your_board><div class = watt_base></div><div class = watt_board_label><strong>Votre Planche</strong></div><div id = watt_peg_1><div class = watt_peg></div></div><div class = special id = watt_peg_1 onclick = ""pegClick(this.id)""><div class = ""watt_ball watt_Green""><div class = watt_ball_label>G</div></div></div><div id = watt_peg_2><div class = watt_peg></div></div><div class = special id = watt_peg_2 onclick = ""pegClick(this.id)""><div class = ""watt_ball watt_Red""><div class = watt_ball_label>R</div></div></div><div id = watt_peg_3><div class = watt_peg></div></div><div class = special id = watt_peg_3 onclick = ""pegClick(this.id)""></div></div><div class = watt_peg_board><div class = watt_base></div><div class = watt_board_label><strong>Planche Cible</strong></div><div id = watt_peg_1><div class = watt_peg></div></div><div id = watt_peg_1 ><div class = ""watt_ball watt_Green""><div class = watt_ball_label>G</div></div><div class = ""watt_ball watt_Red""><div class = watt_ball_label>R</div></div><div class = ""watt_ball watt_Blue""><div class = watt_ball_label>B</div></div></div><div id = watt_peg_2><div class = watt_peg></div></div><div id = watt_peg_2 ></div><div id = watt_peg_3><div class = watt_peg></div></div><div id = watt_peg_3 ></div></div><div class = watt_hand_box><div class = ""watt_hand_ball watt_Blue""><div class = watt_ball_label>B</div></div></div><div class = watt_hand_label><strong>Boule en main</strong></div>","89,71,82","1882","1,0,0,2,0,0,3,0,0","1","3","1,0,0,2,3,0,0,0,0","1,2,3,0,0,0,0,0,0","UA_with_intermediate","0","practice","","",""
"815","71","poldrack-single-stim","11","135453","0.0-9.0-0.1-0.1","sub-13-ses-03_1","","815","0","to_hand","<div class = watt_canvas><div class=""watt_vertical_line""></div></div><div class = watt_your_board><div class = watt_base></div><div class = watt_board_label><strong>Votre Planche</strong></div><div id = watt_peg_1><div class = watt_peg></div></div><div class = special id = watt_peg_1 onclick = ""pegClick(this.id)""><div class = ""watt_ball watt_Green""><div class = watt_ball_label>G</div></div></div><div id = watt_peg_2><div class = watt_peg></div></div><div class = special id = watt_peg_2 onclick = ""pegClick(this.id)""><div class = ""watt_ball watt_Red""><div class = watt_ball_label>R</div></div></div><div id = watt_peg_3><div class = watt_peg></div></div><div class = special id = watt_peg_3 onclick = ""pegClick(this.id)""><div class = ""watt_ball watt_Blue""><div class = watt_ball_label>B</div></div></div></div><div class = watt_peg_board><div class = watt_base></div><div class = watt_board_label><strong>Planche Cible</strong></div><div id = watt_peg_1><div class = watt_peg></div></div><div id = watt_peg_1 ><div class = ""watt_ball watt_Green""><div class = watt_ball_label>G</div></div><div class = ""watt_ball watt_Red""><div class = watt_ball_label>R</div></div><div class = ""watt_ball watt_Blue""><div class = watt_ball_label>B</div></div></div><div id = watt_peg_2><div class = watt_peg></div></div><div id = watt_peg_2 ></div><div id = watt_peg_3><div class = watt_peg></div></div><div id = watt_peg_3 ></div></div><div class = watt_hand_box></div><div class = watt_hand_label><strong>Boule en main</strong></div>","89,71,82","815","1,0,0,0,0,0,3,0,0","2","3","1,0,0,2,3,0,0,0,0","1,2,3,0,0,0,0,0,0","UA_with_intermediate","0","practice","","",""
"557","89","poldrack-single-stim","12","136014","0.0-9.0-0.1-1.1","sub-13-ses-03_1","","557","0","to_board","<div class = watt_canvas><div class=""watt_vertical_line""></div></div><div class = watt_your_board><div class = watt_base></div><div class = watt_board_label><strong>Votre Planche</strong></div><div id = watt_peg_1><div class = watt_peg></div></div><div class = special id = watt_peg_1 onclick = ""pegClick(this.id)""><div class = ""watt_ball watt_Green""><div class = watt_ball_label>G</div></div></div><div id = watt_peg_2><div class = watt_peg></div></div><div class = special id = watt_peg_2 onclick = ""pegClick(this.id)""></div><div id = watt_peg_3><div class = watt_peg></div></div><div class = special id = watt_peg_3 onclick = ""pegClick(this.id)""><div class = ""watt_ball watt_Blue""><div class = watt_ball_label>B</div></div></div></div><div class = watt_peg_board><div class = watt_base></div><div class = watt_board_label><strong>Planche Cible</strong></div><div id = watt_peg_1><div class = watt_peg></div></div><div id = watt_peg_1 ><div class = ""watt_ball watt_Green""><div class = watt_ball_label>G</div></div><div class = ""watt_ball watt_Red""><div class = watt_ball_label>R</div></div><div class = ""watt_ball watt_Blue""><div class = watt_ball_label>B</div></div></div><div id = watt_peg_2><div class = watt_peg></div></div><div id = watt_peg_2 ></div><div id = watt_peg_3><div class = watt_peg></div></div><div id = watt_peg_3 ></div></div><div class = watt_hand_box><div class = ""watt_hand_ball watt_Red""><div class = watt_ball_label>R</div></div></div><div class = watt_hand_label><strong>Boule en main</strong></div>","89,71,82","557","1,2,0,0,0,0,3,0,0","2","3","1,0,0,2,3,0,0,0,0","1,2,3,0,0,0,0,0,0","UA_with_intermediate","0","practice","","",""
"461","82","poldrack-single-stim","13","136484","0.0-9.0-0.2-0.2","sub-13-ses-03_1","","461","0","to_hand","<div class = watt_canvas><div class=""watt_vertical_line""></div></div><div class = watt_your_board><div class = watt_base></div><div class = watt_board_label><strong>Votre Planche</strong></div><div id = watt_peg_1><div class = watt_peg></div></div><div class = special id = watt_peg_1 onclick = ""pegClick(this.id)""><div class = ""watt_ball watt_Green""><div class = watt_ball_label>G</div></div><div class = ""watt_ball watt_Red""><div class = watt_ball_label>R</div></div></div><div id = watt_peg_2><div class = watt_peg></div></div><div id = watt_peg_2 onclick = ""pegClick(this.id)""></div><div id = watt_peg_3><div class = watt_peg></div></div><div class = special id = watt_peg_3 onclick = ""pegClick(this.id)""><div class = ""watt_ball watt_Blue""><div class = watt_ball_label>B</div></div></div></div><div class = watt_peg_board><div class = watt_base></div><div class = watt_board_label><strong>Planche Cible</strong></div><div id = watt_peg_1><div class = watt_peg></div></div><div id = watt_peg_1 ><div class = ""watt_ball watt_Green""><div class = watt_ball_label>G</div></div><div class = ""watt_ball watt_Red""><div class = watt_ball_label>R</div></div><div class = ""watt_ball watt_Blue""><div class = watt_ball_label>B</div></div></div><div id = watt_peg_2><div class = watt_peg></div></div><div id = watt_peg_2 ></div><div id = watt_peg_3><div class = watt_peg></div></div><div id = watt_peg_3 ></div></div><div class = watt_hand_box></div><div class = watt_hand_label><strong>Boule en main</strong></div>","89,82","461","1,2,0,0,0,0,0,0,0","3","3","1,0,0,2,3,0,0,0,0","1,2,3,0,0,0,0,0,0","UA_with_intermediate","0","practice","","",""
"678","89","poldrack-single-stim","14","137170","0.0-9.0-0.2-1.2","sub-13-ses-03_1","","678","0","to_board","<div class = watt_canvas><div class=""watt_vertical_line""></div></div><div class = watt_your_board><div class = watt_base></div><div class = watt_board_label><strong>Votre Planche</strong></div><div id = watt_peg_1><div class = watt_peg></div></div><div class = special id = watt_peg_1 onclick = ""pegClick(this.id)""><div class = ""watt_ball watt_Green""><div class = watt_ball_label>G</div></div><div class = ""watt_ball watt_Red""><div class = watt_ball_label>R</div></div></div><div id = watt_peg_2><div class = watt_peg></div></div><div class = special id = watt_peg_2 onclick = ""pegClick(this.id)""></div><div id = watt_peg_3><div class = watt_peg></div></div><div class = special id = watt_peg_3 onclick = ""pegClick(this.id)""></div></div><div class = watt_peg_board><div class = watt_base></div><div class = watt_board_label><strong>Planche Cible</strong></div><div id = watt_peg_1><div class = watt_peg></div></div><div id = watt_peg_1 ><div class = ""watt_ball watt_Green""><div class = watt_ball_label>G</div></div><div class = ""watt_ball watt_Red""><div class = watt_ball_label>R</div></div><div class = ""watt_ball watt_Blue""><div class = watt_ball_label>B</div></div></div><div id = watt_peg_2><div class = watt_peg></div></div><div id = watt_peg_2 ></div><div id = watt_peg_3><div class = watt_peg></div></div><div id = watt_peg_3 ></div></div><div class = watt_hand_box><div class = ""watt_hand_ball watt_Blue""><div class = watt_ball_label>B</div></div></div><div class = watt_hand_label><strong>Boule en main</strong></div>","89,71,82","678","1,2,3,0,0,0,0,0,0","3","3","1,0,0,2,3,0,0,0,0","1,2,3,0,0,0,0,0,0","UA_with_intermediate","0","practice","","",""
"-1","-1","poldrack-single-stim","15","139699","0.0-9.0-1.0","sub-13-ses-03_1","","2500","0","feedback","<div class = watt_canvas><div class=""watt_vertical_line""></div></div><div class = watt_your_board><div class = watt_base></div><div class = watt_board_label><strong>Votre Planche</strong></div><div id = watt_peg_1><div class = watt_peg></div></div><div id = watt_peg_1 ><div class = ""watt_ball watt_Green""><div class = watt_ball_label>G</div></div><div class = ""watt_ball watt_Red""><div class = watt_ball_label>R</div></div><div class = ""watt_ball watt_Blue""><div class = watt_ball_label>B</div></div></div><div id = watt_peg_2><div class = watt_peg></div></div><div id = watt_peg_2 ></div><div id = watt_peg_3><div class = watt_peg></div></div><div id = watt_peg_3 ></div></div><div class = watt_peg_board><div class = watt_base></div><div class = watt_board_label><strong>Planche Cible</strong></div><div id = watt_peg_1><div class = watt_peg></div></div><div id = watt_peg_1 ><div class = ""watt_ball watt_Green""><div class = watt_ball_label>G</div></div><div class = ""watt_ball watt_Red""><div class = watt_ball_label>R</div></div><div class = ""watt_ball watt_Blue""><div class = watt_ball_label>B</div></div></div><div id = watt_peg_2><div class = watt_peg></div></div><div id = watt_peg_2 ></div><div id = watt_peg_3><div class = watt_peg></div></div><div id = watt_peg_3 ></div></div><div class = watt_feedbackbox><p class = center-text>Complete</p></div>","none","1000","","3","3","","","","","practice","11039","true",""
"2713","89","poldrack-single-stim","16","142426","0.0-9.1-0.3-0.3","sub-13-ses-03_1","","2713","0","to_hand","<div class = watt_canvas><div class=""watt_vertical_line""></div></div><div class = watt_your_board><div class = watt_base></div><div class = watt_board_label><strong>Votre Planche</strong></div><div id = watt_peg_1><div class = watt_peg></div></div><div class = special id = watt_peg_1 onclick = ""pegClick(this.id)""><div class = ""watt_ball watt_Blue""><div class = watt_ball_label>B</div></div><div class = ""watt_ball watt_Green""><div class = watt_ball_label>G</div></div></div><div id = watt_peg_2><div class = watt_peg></div></div><div class = special id = watt_peg_2 onclick = ""pegClick(this.id)""><div class = ""watt_ball watt_Red""><div class = watt_ball_label>R</div></div></div><div id = watt_peg_3><div class = watt_peg></div></div><div id = watt_peg_3 onclick = ""pegClick(this.id)""></div></div><div class = watt_peg_board><div class = watt_base></div><div class = watt_board_label><strong>Planche Cible</strong></div><div id = watt_peg_1><div class = watt_peg></div></div><div id = watt_peg_1 ><div class = ""watt_ball watt_Blue""><div class = watt_ball_label>B</div></div><div class = ""watt_ball watt_Red""><div class = watt_ball_label>R</div></div><div class = ""watt_ball watt_Green""><div class = watt_ball_label>G</div></div></div><div id = watt_peg_2><div class = watt_peg></div></div><div id = watt_peg_2 ></div><div id = watt_peg_3><div class = watt_peg></div></div><div id = watt_peg_3 ></div></div><div class = watt_hand_box></div><div class = watt_hand_label><strong>Boule en main</strong></div>","89,71","2713","1,0,0,3,0,0,0,0,0","1","3","1,2,0,3,0,0,0,0,0","1,3,2,0,0,0,0,0,0","UA_with_intermediate","1","practice","","",""
"1483","82","poldrack-single-stim","17","143914","0.0-9.1-0.3-1.3","sub-13-ses-03_1","","1483","0","to_board","<div class = watt_canvas><div class=""watt_vertical_line""></div></div><div class = watt_your_board><div class = watt_base></div><div class = watt_board_label><strong>Votre Planche</strong></div><div id = watt_peg_1><div class = watt_peg></div></div><div class = special id = watt_peg_1 onclick = ""pegClick(this.id)""><div class = ""watt_ball watt_Blue""><div class = watt_ball_label>B</div></div></div><div id = watt_peg_2><div class = watt_peg></div></div><div class = special id = watt_peg_2 onclick = ""pegClick(this.id)""><div class = ""watt_ball watt_Red""><div class = watt_ball_label>R</div></div></div><div id = watt_peg_3><div class = watt_peg></div></div><div class = special id = watt_peg_3 onclick = ""pegClick(this.id)""></div></div><div class = watt_peg_board><div class = watt_base></div><div class = watt_board_label><strong>Planche Cible</strong></div><div id = watt_peg_1><div class = watt_peg></div></div><div id = watt_peg_1 ><div class = ""watt_ball watt_Blue""><div class = watt_ball_label>B</div></div><div class = ""watt_ball watt_Red""><div class = watt_ball_label>R</div></div><div class = ""watt_ball watt_Green""><div class = watt_ball_label>G</div></div></div><div id = watt_peg_2><div class = watt_peg></div></div><div id = watt_peg_2 ></div><div id = watt_peg_3><div class = watt_peg></div></div><div id = watt_peg_3 ></div></div><div class = watt_hand_box><div class = ""watt_hand_ball watt_Green""><div class = watt_ball_label>G</div></div></div><div class = watt_hand_label><strong>Boule en main</strong></div>","89,71,82","1483","1,0,0,3,0,0,2,0,0","1","3","1,2,0,3,0,0,0,0,0","1,3,2,0,0,0,0,0,0","UA_with_intermediate","1","practice","","",""
"870","71","poldrack-single-stim","18","144790","0.0-9.1-0.4-0.4","sub-13-ses-03_1","","870","0","to_hand","<div class = watt_canvas><div class=""watt_vertical_line""></div></div><div class = watt_your_board><div class = watt_base></div><div class = watt_board_label><strong>Votre Planche</strong></div><div id = watt_peg_1><div class = watt_peg></div></div><div class = special id = watt_peg_1 onclick = ""pegClick(this.id)""><div class = ""watt_ball watt_Blue""><div class = watt_ball_label>B</div></div></div><div id = watt_peg_2><div class = watt_peg></div></div><div class = special id = watt_peg_2 onclick = ""pegClick(this.id)""><div class = ""watt_ball watt_Red""><div class = watt_ball_label>R</div></div></div><div id = watt_peg_3><div class = watt_peg></div></div><div class = special id = watt_peg_3 onclick = ""pegClick(this.id)""><div class = ""watt_ball watt_Green""><div class = watt_ball_label>G</div></div></div></div><div class = watt_peg_board><div class = watt_base></div><div class = watt_board_label><strong>Planche Cible</strong></div><div id = watt_peg_1><div class = watt_peg></div></div><div id = watt_peg_1 ><div class = ""watt_ball watt_Blue""><div class = watt_ball_label>B</div></div><div class = ""watt_ball watt_Red""><div class = watt_ball_label>R</div></div><div class = ""watt_ball watt_Green""><div class = watt_ball_label>G</div></div></div><div id = watt_peg_2><div class = watt_peg></div></div><div id = watt_peg_2 ></div><div id = watt_peg_3><div class = watt_peg></div></div><div id = watt_peg_3 ></div></div><div class = watt_hand_box></div><div class = watt_hand_label><strong>Boule en main</strong></div>","89,71,82","870","1,0,0,0,0,0,2,0,0","2","3","1,2,0,3,0,0,0,0,0","1,3,2,0,0,0,0,0,0","UA_with_intermediate","1","practice","","",""
"916","89","poldrack-single-stim","19","145709","0.0-9.1-0.4-1.4","sub-13-ses-03_1","","916","0","to_board","<div class = watt_canvas><div class=""watt_vertical_line""></div></div><div class = watt_your_board><div class = watt_base></div><div class = watt_board_label><strong>Votre Planche</strong></div><div id = watt_peg_1><div class = watt_peg></div></div><div class = special id = watt_peg_1 onclick = ""pegClick(this.id)""><div class = ""watt_ball watt_Blue""><div class = watt_ball_label>B</div></div></div><div id = watt_peg_2><div class = watt_peg></div></div><div class = special id = watt_peg_2 onclick = ""pegClick(this.id)""></div><div id = watt_peg_3><div class = watt_peg></div></div><div class = special id = watt_peg_3 onclick = ""pegClick(this.id)""><div class = ""watt_ball watt_Green""><div class = watt_ball_label>G</div></div></div></div><div class = watt_peg_board><div class = watt_base></div><div class = watt_board_label><strong>Planche Cible</strong></div><div id = watt_peg_1><div class = watt_peg></div></div><div id = watt_peg_1 ><div class = ""watt_ball watt_Blue""><div class = watt_ball_label>B</div></div><div class = ""watt_ball watt_Red""><div class = watt_ball_label>R</div></div><div class = ""watt_ball watt_Green""><div class = watt_ball_label>G</div></div></div><div id = watt_peg_2><div class = watt_peg></div></div><div id = watt_peg_2 ></div><div id = watt_peg_3><div class = watt_peg></div></div><div id = watt_peg_3 ></div></div><div class = watt_hand_box><div class = ""watt_hand_ball watt_Red""><div class = watt_ball_label>R</div></div></div><div class = watt_hand_label><strong>Boule en main</strong></div>","89,71,82","916","1,3,0,0,0,0,2,0,0","2","3","1,2,0,3,0,0,0,0,0","1,3,2,0,0,0,0,0,0","UA_with_intermediate","1","practice","","",""
"954","82","poldrack-single-stim","20","146670","0.0-9.1-0.5-0.5","sub-13-ses-03_1","","954","0","to_hand","<div class = watt_canvas><div class=""watt_vertical_line""></div></div><div class = watt_your_board><div class = watt_base></div><div class = watt_board_label><strong>Votre Planche</strong></div><div id = watt_peg_1><div class = watt_peg></div></div><div class = special id = watt_peg_1 onclick = ""pegClick(this.id)""><div class = ""watt_ball watt_Blue""><div class = watt_ball_label>B</div></div><div class = ""watt_ball watt_Red""><div class = watt_ball_label>R</div></div></div><div id = watt_peg_2><div class = watt_peg></div></div><div id = watt_peg_2 onclick = ""pegClick(this.id)""></div><div id = watt_peg_3><div class = watt_peg></div></div><div class = special id = watt_peg_3 onclick = ""pegClick(this.id)""><div class = ""watt_ball watt_Green""><div class = watt_ball_label>G</div></div></div></div><div class = watt_peg_board><div class = watt_base></div><div class = watt_board_label><strong>Planche Cible</strong></div><div id = watt_peg_1><div class = watt_peg></div></div><div id = watt_peg_1 ><div class = ""watt_ball watt_Blue""><div class = watt_ball_label>B</div></div><div class = ""watt_ball watt_Red""><div class = watt_ball_label>R</div></div><div class = ""watt_ball watt_Green""><div class = watt_ball_label>G</div></div></div><div id = watt_peg_2><div class = watt_peg></div></div><div id = watt_peg_2 ></div><div id = watt_peg_3><div class = watt_peg></div></div><div id = watt_peg_3 ></div></div><div class = watt_hand_box></div><div class = watt_hand_label><strong>Boule en main</strong></div>","89,82","954","1,3,0,0,0,0,0,0,0","3","3","1,2,0,3,0,0,0,0,0","1,3,2,0,0,0,0,0,0","UA_with_intermediate","1","practice","","",""
"736","89","poldrack-single-stim","21","147411","0.0-9.1-0.5-1.5","sub-13-ses-03_1","","736","0","to_board","<div class = watt_canvas><div class=""watt_vertical_line""></div></div><div class = watt_your_board><div class = watt_base></div><div class = watt_board_label><strong>Votre Planche</strong></div><div id = watt_peg_1><div class = watt_peg></div></div><div class = special id = watt_peg_1 onclick = ""pegClick(this.id)""><div class = ""watt_ball watt_Blue""><div class = watt_ball_label>B</div></div><div class = ""watt_ball watt_Red""><div class = watt_ball_label>R</div></div></div><div id = watt_peg_2><div class = watt_peg></div></div><div class = special id = watt_peg_2 onclick = ""pegClick(this.id)""></div><div id = watt_peg_3><div class = watt_peg></div></div><div class = special id = watt_peg_3 onclick = ""pegClick(this.id)""></div></div><div class = watt_peg_board><div class = watt_base></div><div class = watt_board_label><strong>Planche Cible</strong></div><div id = watt_peg_1><div class = watt_peg></div></div><div id = watt_peg_1 ><div class = ""watt_ball watt_Blue""><div class = watt_ball_label>B</div></div><div class = ""watt_ball watt_Red""><div class = watt_ball_label>R</div></div><div class = ""watt_ball watt_Green""><div class = watt_ball_label>G</div></div></div><div id = watt_peg_2><div class = watt_peg></div></div><div id = watt_peg_2 ></div><div id = watt_peg_3><div class = watt_peg></div></div><div id = watt_peg_3 ></div></div><div class = watt_hand_box><div class = ""watt_hand_ball watt_Green""><div class = watt_ball_label>G</div></div></div><div class = watt_hand_label><strong>Boule en main</strong></div>","89,71,82","736","1,3,2,0,0,0,0,0,0","3","3","1,2,0,3,0,0,0,0,0","1,3,2,0,0,0,0,0,0","UA_with_intermediate","1","practice","","",""
"-1","-1","poldrack-single-stim","22","149519","0.0-9.1-1.1","sub-13-ses-03_1","","2100","0","feedback","<div class = watt_canvas><div class=""watt_vertical_line""></div></div><div class = watt_your_board><div class = watt_base></div><div class = watt_board_label><strong>Votre Planche</strong></div><div id = watt_peg_1><div class = watt_peg></div></div><div id = watt_peg_1 ><div class = ""watt_ball watt_Blue""><div class = watt_ball_label>B</div></div><div class = ""watt_ball watt_Red""><div class = watt_ball_label>R</div></div><div class = ""watt_ball watt_Green""><div class = watt_ball_label>G</div></div></div><div id = watt_peg_2><div class = watt_peg></div></div><div id = watt_peg_2 ></div><div id = watt_peg_3><div class = watt_peg></div></div><div id = watt_peg_3 ></div></div><div class = watt_peg_board><div class = watt_base></div><div class = watt_board_label><strong>Planche Cible</strong></div><div id = watt_peg_1><div class = watt_peg></div></div><div id = watt_peg_1 ><div class = ""watt_ball watt_Blue""><div class = watt_ball_label>B</div></div><div class = ""watt_ball watt_Red""><div class = watt_ball_label>R</div></div><div class = ""watt_ball watt_Green""><div class = watt_ball_label>G</div></div></div><div id = watt_peg_2><div class = watt_peg></div></div><div id = watt_peg_2 ></div><div id = watt_peg_3><div class = watt_peg></div></div><div id = watt_peg_3 ></div></div><div class = watt_feedbackbox><p class = center-text>Complete</p></div>","none","1000","","3","3","","","","","practice","9821","true",""
"2889","82","poldrack-single-stim","23","152414","0.0-9.2-0.6-0.6","sub-13-ses-03_1","","2889","0","to_hand","<div class = watt_canvas><div class=""watt_vertical_line""></div></div><div class = watt_your_board><div class = watt_base></div><div class = watt_board_label><strong>Votre Planche</strong></div><div id = watt_peg_1><div class = watt_peg></div></div><div id = watt_peg_1 onclick = ""pegClick(this.id)""></div><div id = watt_peg_2><div class = watt_peg></div></div><div class = special id = watt_peg_2 onclick = ""pegClick(this.id)""><div class = ""watt_ball watt_Red""><div class = watt_ball_label>R</div></div><div class = ""watt_ball watt_Blue""><div class = watt_ball_label>B</div></div></div><div id = watt_peg_3><div class = watt_peg></div></div><div class = special id = watt_peg_3 onclick = ""pegClick(this.id)""><div class = ""watt_ball watt_Green""><div class = watt_ball_label>G</div></div></div></div><div class = watt_peg_board><div class = watt_base></div><div class = watt_board_label><strong>Planche Cible</strong></div><div id = watt_peg_1><div class = watt_peg></div></div><div id = watt_peg_1 ><div class = ""watt_ball watt_Green""><div class = watt_ball_label>G</div></div><div class = ""watt_ball watt_Blue""><div class = watt_ball_label>B</div></div><div class = ""watt_ball watt_Red""><div class = watt_ball_label>R</div></div></div><div id = watt_peg_2><div class = watt_peg></div></div><div id = watt_peg_2 ></div><div id = watt_peg_3><div class = watt_peg></div></div><div id = watt_peg_3 ></div></div><div class = watt_hand_box></div><div class = watt_hand_label><strong>Boule en main</strong></div>","71,82","2889","0,0,0,1,2,0,0,0,0","1","3","0,0,0,1,2,0,3,0,0","3,2,1,0,0,0,0,0,0","UA_without_intermediate","2","practice","","",""
"871","89","poldrack-single-stim","24","153291","0.0-9.2-0.6-1.6","sub-13-ses-03_1","","871","0","to_board","<div class = watt_canvas><div class=""watt_vertical_line""></div></div><div class = watt_your_board><div class = watt_base></div><div class = watt_board_label><strong>Votre Planche</strong></div><div id = watt_peg_1><div class = watt_peg></div></div><div class = special id = watt_peg_1 onclick = ""pegClick(this.id)""></div><div id = watt_peg_2><div class = watt_peg></div></div><div class = special id = watt_peg_2 onclick = ""pegClick(this.id)""><div class = ""watt_ball watt_Red""><div class = watt_ball_label>R</div></div><div class = ""watt_ball watt_Blue""><div class = watt_ball_label>B</div></div></div><div id = watt_peg_3><div class = watt_peg></div></div><div class = special id = watt_peg_3 onclick = ""pegClick(this.id)""></div></div><div class = watt_peg_board><div class = watt_base></div><div class = watt_board_label><strong>Planche Cible</strong></div><div id = watt_peg_1><div class = watt_peg></div></div><div id = watt_peg_1 ><div class = ""watt_ball watt_Green""><div class = watt_ball_label>G</div></div><div class = ""watt_ball watt_Blue""><div class = watt_ball_label>B</div></div><div class = ""watt_ball watt_Red""><div class = watt_ball_label>R</div></div></div><div id = watt_peg_2><div class = watt_peg></div></div><div id = watt_peg_2 ></div><div id = watt_peg_3><div class = watt_peg></div></div><div id = watt_peg_3 ></div></div><div class = watt_hand_box><div class = ""watt_hand_ball watt_Green""><div class = watt_ball_label>G</div></div></div><div class = watt_hand_label><strong>Boule en main</strong></div>","89,71,82","871","3,0,0,1,2,0,0,0,0","1","3","0,0,0,1,2,0,3,0,0","3,2,1,0,0,0,0,0,0","UA_without_intermediate","2","practice","","",""
"1418","71","poldrack-single-stim","25","154717","0.0-9.2-0.7-0.7","sub-13-ses-03_1","","1418","0","to_hand","<div class = watt_canvas><div class=""watt_vertical_line""></div></div><div class = watt_your_board><div class = watt_base></div><div class = watt_board_label><strong>Votre Planche</strong></div><div id = watt_peg_1><div class = watt_peg></div></div><div class = special id = watt_peg_1 onclick = ""pegClick(this.id)""><div class = ""watt_ball watt_Green""><div class = watt_ball_label>G</div></div></div><div id = watt_peg_2><div class = watt_peg></div></div><div class = special id = watt_peg_2 onclick = ""pegClick(this.id)""><div class = ""watt_ball watt_Red""><div class = watt_ball_label>R</div></div><div class = ""watt_ball watt_Blue""><div class = watt_ball_label>B</div></div></div><div id = watt_peg_3><div class = watt_peg></div></div><div id = watt_peg_3 onclick = ""pegClick(this.id)""></div></div><div class = watt_peg_board><div class = watt_base></div><div class = watt_board_label><strong>Planche Cible</strong></div><div id = watt_peg_1><div class = watt_peg></div></div><div id = watt_peg_1 ><div class = ""watt_ball watt_Green""><div class = watt_ball_label>G</div></div><div class = ""watt_ball watt_Blue""><div class = watt_ball_label>B</div></div><div class = ""watt_ball watt_Red""><div class = watt_ball_label>R</div></div></div><div id = watt_peg_2><div class = watt_peg></div></div><div id = watt_peg_2 ></div><div id = watt_peg_3><div class = watt_peg></div></div><div id = watt_peg_3 ></div></div><div class = watt_hand_box></div><div class = watt_hand_label><strong>Boule en main</strong></div>","89,71","1418","3,0,0,1,0,0,0,0,0","2","3","0,0,0,1,2,0,3,0,0","3,2,1,0,0,0,0,0,0","UA_without_intermediate","2","practice","","",""
"452","89","poldrack-single-stim","26","155176","0.0-9.2-0.7-1.7","sub-13-ses-03_1","","452","0","to_board","<div class = watt_canvas><div class=""watt_vertical_line""></div></div><div class = watt_your_board><div class = watt_base></div><div class = watt_board_label><strong>Votre Planche</strong></div><div id = watt_peg_1><div class = watt_peg></div></div><div class = special id = watt_peg_1 onclick = ""pegClick(this.id)""><div class = ""watt_ball watt_Green""><div class = watt_ball_label>G</div></div></div><div id = watt_peg_2><div class = watt_peg></div></div><div class = special id = watt_peg_2 onclick = ""pegClick(this.id)""><div class = ""watt_ball watt_Red""><div class = watt_ball_label>R</div></div></div><div id = watt_peg_3><div class = watt_peg></div></div><div class = special id = watt_peg_3 onclick = ""pegClick(this.id)""></div></div><div class = watt_peg_board><div class = watt_base></div><div class = watt_board_label><strong>Planche Cible</strong></div><div id = watt_peg_1><div class = watt_peg></div></div><div id = watt_peg_1 ><div class = ""watt_ball watt_Green""><div class = watt_ball_label>G</div></div><div class = ""watt_ball watt_Blue""><div class = watt_ball_label>B</div></div><div class = ""watt_ball watt_Red""><div class = watt_ball_label>R</div></div></div><div id = watt_peg_2><div class = watt_peg></div></div><div id = watt_peg_2 ></div><div id = watt_peg_3><div class = watt_peg></div></div><div id = watt_peg_3 ></div></div><div class = watt_hand_box><div class = ""watt_hand_ball watt_Blue""><div class = watt_ball_label>B</div></div></div><div class = watt_hand_label><strong>Boule en main</strong></div>","89,71,82","452","3,2,0,1,0,0,0,0,0","2","3","0,0,0,1,2,0,3,0,0","3,2,1,0,0,0,0,0,0","UA_without_intermediate","2","practice","","",""
"773","71","poldrack-single-stim","27","155977","0.0-9.2-0.8-0.8","sub-13-ses-03_1","","773","0","to_hand","<div class = watt_canvas><div class=""watt_vertical_line""></div></div><div class = watt_your_board><div class = watt_base></div><div class = watt_board_label><strong>Votre Planche</strong></div><div id = watt_peg_1><div class = watt_peg></div></div><div class = special id = watt_peg_1 onclick = ""pegClick(this.id)""><div class = ""watt_ball watt_Green""><div class = watt_ball_label>G</div></div><div class = ""watt_ball watt_Blue""><div class = watt_ball_label>B</div></div></div><div id = watt_peg_2><div class = watt_peg></div></div><div class = special id = watt_peg_2 onclick = ""pegClick(this.id)""><div class = ""watt_ball watt_Red""><div class = watt_ball_label>R</div></div></div><div id = watt_peg_3><div class = watt_peg></div></div><div id = watt_peg_3 onclick = ""pegClick(this.id)""></div></div><div class = watt_peg_board><div class = watt_base></div><div class = watt_board_label><strong>Planche Cible</strong></div><div id = watt_peg_1><div class = watt_peg></div></div><div id = watt_peg_1 ><div class = ""watt_ball watt_Green""><div class = watt_ball_label>G</div></div><div class = ""watt_ball watt_Blue""><div class = watt_ball_label>B</div></div><div class = ""watt_ball watt_Red""><div class = watt_ball_label>R</div></div></div><div id = watt_peg_2><div class = watt_peg></div></div><div id = watt_peg_2 ></div><div id = watt_peg_3><div class = watt_peg></div></div><div id = watt_peg_3 ></div></div><div class = watt_hand_box></div><div class = watt_hand_label><strong>Boule en main</strong></div>","89,71","773","3,2,0,0,0,0,0,0,0","3","3","0,0,0,1,2,0,3,0,0","3,2,1,0,0,0,0,0,0","UA_without_intermediate","2","practice","","",""
"492","89","poldrack-single-stim","28","156473","0.0-9.2-0.8-1.8","sub-13-ses-03_1","","492","0","to_board","<div class = watt_canvas><div class=""watt_vertical_line""></div></div><div class = watt_your_board><div class = watt_base></div><div class = watt_board_label><strong>Votre Planche</strong></div><div id = watt_peg_1><div class = watt_peg></div></div><div class = special id = watt_peg_1 onclick = ""pegClick(this.id)""><div class = ""watt_ball watt_Green""><div class = watt_ball_label>G</div></div><div class = ""watt_ball watt_Blue""><div class = watt_ball_label>B</div></div></div><div id = watt_peg_2><div class = watt_peg></div></div><div class = special id = watt_peg_2 onclick = ""pegClick(this.id)""></div><div id = watt_peg_3><div class = watt_peg></div></div><div class = special id = watt_peg_3 onclick = ""pegClick(this.id)""></div></div><div class = watt_peg_board><div class = watt_base></div><div class = watt_board_label><strong>Planche Cible</strong></div><div id = watt_peg_1><div class = watt_peg></div></div><div id = watt_peg_1 ><div class = ""watt_ball watt_Green""><div class = watt_ball_label>G</div></div><div class = ""watt_ball watt_Blue""><div class = watt_ball_label>B</div></div><div class = ""watt_ball watt_Red""><div class = watt_ball_label>R</div></div></div><div id = watt_peg_2><div class = watt_peg></div></div><div id = watt_peg_2 ></div><div id = watt_peg_3><div class = watt_peg></div></div><div id = watt_peg_3 ></div></div><div class = watt_hand_box><div class = ""watt_hand_ball watt_Red""><div class = watt_ball_label>R</div></div></div><div class = watt_hand_label><strong>Boule en main</strong></div>","89,71,82","492","3,2,1,0,0,0,0,0,0","3","3","0,0,0,1,2,0,3,0,0","3,2,1,0,0,0,0,0,0","UA_without_intermediate","2","practice","","",""
"-1","-1","poldrack-single-stim","29","158689","0.0-9.2-1.2","sub-13-ses-03_1","","2200","0","feedback","<div class = watt_canvas><div class=""watt_vertical_line""></div></div><div class = watt_your_board><div class = watt_base></div><div class = watt_board_label><strong>Votre Planche</strong></div><div id = watt_peg_1><div class = watt_peg></div></div><div id = watt_peg_1 ><div class = ""watt_ball watt_Green""><div class = watt_ball_label>G</div></div><div class = ""watt_ball watt_Blue""><div class = watt_ball_label>B</div></div><div class = ""watt_ball watt_Red""><div class = watt_ball_label>R</div></div></div><div id = watt_peg_2><div class = watt_peg></div></div><div id = watt_peg_2 ></div><div id = watt_peg_3><div class = watt_peg></div></div><div id = watt_peg_3 ></div></div><div class = watt_peg_board><div class = watt_base></div><div class = watt_board_label><strong>Planche Cible</strong></div><div id = watt_peg_1><div class = watt_peg></div></div><div id = watt_peg_1 ><div class = ""watt_ball watt_Green""><div class = watt_ball_label>G</div></div><div class = ""watt_ball watt_Blue""><div class = watt_ball_label>B</div></div><div class = ""watt_ball watt_Red""><div class = watt_ball_label>R</div></div></div><div id = watt_peg_2><div class = watt_peg></div></div><div id = watt_peg_2 ></div><div id = watt_peg_3><div class = watt_peg></div></div><div id = watt_peg_3 ></div></div><div class = watt_feedbackbox><p class = center-text>Complete</p></div>","none","1000","","3","3","","","","","practice","9170","true",""
"4154","71","poldrack-single-stim","30","162852","0.0-9.3-0.9-0.9","sub-13-ses-03_1","","4154","0","to_hand","<div class = watt_canvas><div class=""watt_vertical_line""></div></div><div class = watt_your_board><div class = watt_base></div><div class = watt_board_label><strong>Votre Planche</strong></div><div id = watt_peg_1><div class = watt_peg></div></div><div id = watt_peg_1 onclick = ""pegClick(this.id)""></div><div id = watt_peg_2><div class = watt_peg></div></div><div class = special id = watt_peg_2 onclick = ""pegClick(this.id)""><div class = ""watt_ball watt_Red""><div class = watt_ball_label>R</div></div><div class = ""watt_ball watt_Blue""><div class = watt_ball_label>B</div></div></div><div id = watt_peg_3><div class = watt_peg></div></div><div class = special id = watt_peg_3 onclick = ""pegClick(this.id)""><div class = ""watt_ball watt_Green""><div class = watt_ball_label>G</div></div></div></div><div class = watt_peg_board><div class = watt_base></div><div class = watt_board_label><strong>Planche Cible</strong></div><div id = watt_peg_1><div class = watt_peg></div></div><div id = watt_peg_1 ><div class = ""watt_ball watt_Blue""><div class = watt_ball_label>B</div></div><div class = ""watt_ball watt_Green""><div class = watt_ball_label>G</div></div><div class = ""watt_ball watt_Red""><div class = watt_ball_label>R</div></div></div><div id = watt_peg_2><div class = watt_peg></div></div><div id = watt_peg_2 ></div><div id = watt_peg_3><div class = watt_peg></div></div><div id = watt_peg_3 ></div></div><div class = watt_hand_box></div><div class = watt_hand_label><strong>Boule en main</strong></div>","71,82","4154","0,0,0,1,0,0,3,0,0","1","3","0,0,0,1,2,0,3,0,0","2,3,1,0,0,0,0,0,0","UA_without_intermediate","3","practice","","",""
"339","89","poldrack-single-stim","31","163195","0.0-9.3-0.9-1.9","sub-13-ses-03_1","","339","0","to_board","<div class = watt_canvas><div class=""watt_vertical_line""></div></div><div class = watt_your_board><div class = watt_base></div><div class = watt_board_label><strong>Votre Planche</strong></div><div id = watt_peg_1><div class = watt_peg></div></div><div class = special id = watt_peg_1 onclick = ""pegClick(this.id)""></div><div id = watt_peg_2><div class = watt_peg></div></div><div class = special id = watt_peg_2 onclick = ""pegClick(this.id)""><div class = ""watt_ball watt_Red""><div class = watt_ball_label>R</div></div></div><div id = watt_peg_3><div class = watt_peg></div></div><div class = special id = watt_peg_3 onclick = ""pegClick(this.id)""><div class = ""watt_ball watt_Green""><div class = watt_ball_label>G</div></div></div></div><div class = watt_peg_board><div class = watt_base></div><div class = watt_board_label><strong>Planche Cible</strong></div><div id = watt_peg_1><div class = watt_peg></div></div><div id = watt_peg_1 ><div class = ""watt_ball watt_Blue""><div class = watt_ball_label>B</div></div><div class = ""watt_ball watt_Green""><div class = watt_ball_label>G</div></div><div class = ""watt_ball watt_Red""><div class = watt_ball_label>R</div></div></div><div id = watt_peg_2><div class = watt_peg></div></div><div id = watt_peg_2 ></div><div id = watt_peg_3><div class = watt_peg></div></div><div id = watt_peg_3 ></div></div><div class = watt_hand_box><div class = ""watt_hand_ball watt_Blue""><div class = watt_ball_label>B</div></div></div><div class = watt_hand_label><strong>Boule en main</strong></div>","89,71,82","339","2,0,0,1,0,0,3,0,0","1","3","0,0,0,1,2,0,3,0,0","2,3,1,0,0,0,0,0,0","UA_without_intermediate","3","practice","","",""
"1714","82","poldrack-single-stim","32","164919","0.0-9.3-0.10-0.10","sub-13-ses-03_1","","1714","0","to_hand","<div class = watt_canvas><div class=""watt_vertical_line""></div></div><div class = watt_your_board><div class = watt_base></div><div class = watt_board_label><strong>Votre Planche</strong></div><div id = watt_peg_1><div class = watt_peg></div></div><div class = special id = watt_peg_1 onclick = ""pegClick(this.id)""><div class = ""watt_ball watt_Blue""><div class = watt_ball_label>B</div></div></div><div id = watt_peg_2><div class = watt_peg></div></div><div class = special id = watt_peg_2 onclick = ""pegClick(this.id)""><div class = ""watt_ball watt_Red""><div class = watt_ball_label>R</div></div></div><div id = watt_peg_3><div class = watt_peg></div></div><div class = special id = watt_peg_3 onclick = ""pegClick(this.id)""><div class = ""watt_ball watt_Green""><div class = watt_ball_label>G</div></div></div></div><div class = watt_peg_board><div class = watt_base></div><div class = watt_board_label><strong>Planche Cible</strong></div><div id = watt_peg_1><div class = watt_peg></div></div><div id = watt_peg_1 ><div class = ""watt_ball watt_Blue""><div class = watt_ball_label>B</div></div><div class = ""watt_ball watt_Green""><div class = watt_ball_label>G</div></div><div class = ""watt_ball watt_Red""><div class = watt_ball_label>R</div></div></div><div id = watt_peg_2><div class = watt_peg></div></div><div id = watt_peg_2 ></div><div id = watt_peg_3><div class = watt_peg></div></div><div id = watt_peg_3 ></div></div><div class = watt_hand_box></div><div class = watt_hand_label><strong>Boule en main</strong></div>","89,71,82","1714","2,0,0,1,0,0,0,0,0","2","3","0,0,0,1,2,0,3,0,0","2,3,1,0,0,0,0,0,0","UA_without_intermediate","3","practice","","",""
"770","89","poldrack-single-stim","33","165693","0.0-9.3-0.10-1.10","sub-13-ses-03_1","","770","0","to_board","<div class = watt_canvas><div class=""watt_vertical_line""></div></div><div class = watt_your_board><div class = watt_base></div><div class = watt_board_label><strong>Votre Planche</strong></div><div id = watt_peg_1><div class = watt_peg></div></div><div class = special id = watt_peg_1 onclick = ""pegClick(this.id)""><div class = ""watt_ball watt_Blue""><div class = watt_ball_label>B</div></div></div><div id = watt_peg_2><div class = watt_peg></div></div><div class = special id = watt_peg_2 onclick = ""pegClick(this.id)""><div class = ""watt_ball watt_Red""><div class = watt_ball_label>R</div></div></div><div id = watt_peg_3><div class = watt_peg></div></div><div class = special id = watt_peg_3 onclick = ""pegClick(this.id)""></div></div><div class = watt_peg_board><div class = watt_base></div><div class = watt_board_label><strong>Planche Cible</strong></div><div id = watt_peg_1><div class = watt_peg></div></div><div id = watt_peg_1 ><div class = ""watt_ball watt_Blue""><div class = watt_ball_label>B</div></div><div class = ""watt_ball watt_Green""><div class = watt_ball_label>G</div></div><div class = ""watt_ball watt_Red""><div class = watt_ball_label>R</div></div></div><div id = watt_peg_2><div class = watt_peg></div></div><div id = watt_peg_2 ></div><div id = watt_peg_3><div class = watt_peg></div></div><div id = watt_peg_3 ></div></div><div class = watt_hand_box><div class = ""watt_hand_ball watt_Green""><div class = watt_ball_label>G</div></div></div><div class = watt_hand_label><strong>Boule en main</strong></div>","89,71,82","770","2,3,0,1,0,0,0,0,0","2","3","0,0,0,1,2,0,3,0,0","2,3,1,0,0,0,0,0,0","UA_without_intermediate","3","practice","","",""
"736","71","poldrack-single-stim","34","166445","0.0-9.3-0.11-0.11","sub-13-ses-03_1","","736","0","to_hand","<div class = watt_canvas><div class=""watt_vertical_line""></div></div><div class = watt_your_board><div class = watt_base></div><div class = watt_board_label><strong>Votre Planche</strong></div><div id = watt_peg_1><div class = watt_peg></div></div><div class = special id = watt_peg_1 onclick = ""pegClick(this.id)""><div class = ""watt_ball watt_Blue""><div class = watt_ball_label>B</div></div><div class = ""watt_ball watt_Green""><div class = watt_ball_label>G</div></div></div><div id = watt_peg_2><div class = watt_peg></div></div><div class = special id = watt_peg_2 onclick = ""pegClick(this.id)""><div class = ""watt_ball watt_Red""><div class = watt_ball_label>R</div></div></div><div id = watt_peg_3><div class = watt_peg></div></div><div id = watt_peg_3 onclick = ""pegClick(this.id)""></div></div><div class = watt_peg_board><div class = watt_base></div><div class = watt_board_label><strong>Planche Cible</strong></div><div id = watt_peg_1><div class = watt_peg></div></div><div id = watt_peg_1 ><div class = ""watt_ball watt_Blue""><div class = watt_ball_label>B</div></div><div class = ""watt_ball watt_Green""><div class = watt_ball_label>G</div></div><div class = ""watt_ball watt_Red""><div class = watt_ball_label>R</div></div></div><div id = watt_peg_2><div class = watt_peg></div></div><div id = watt_peg_2 ></div><div id = watt_peg_3><div class = watt_peg></div></div><div id = watt_peg_3 ></div></div><div class = watt_hand_box></div><div class = watt_hand_label><strong>Boule en main</strong></div>","89,71","736","2,3,0,0,0,0,0,0,0","3","3","0,0,0,1,2,0,3,0,0","2,3,1,0,0,0,0,0,0","UA_without_intermediate","3","practice","","",""
"471","89","poldrack-single-stim","35","166920","0.0-9.3-0.11-1.11","sub-13-ses-03_1","","471","0","to_board","<div class = watt_canvas><div class=""watt_vertical_line""></div></div><div class = watt_your_board><div class = watt_base></div><div class = watt_board_label><strong>Votre Planche</strong></div><div id = watt_peg_1><div class = watt_peg></div></div><div class = special id = watt_peg_1 onclick = ""pegClick(this.id)""><div class = ""watt_ball watt_Blue""><div class = watt_ball_label>B</div></div><div class = ""watt_ball watt_Green""><div class = watt_ball_label>G</div></div></div><div id = watt_peg_2><div class = watt_peg></div></div><div class = special id = watt_peg_2 onclick = ""pegClick(this.id)""></div><div id = watt_peg_3><div class = watt_peg></div></div><div class = special id = watt_peg_3 onclick = ""pegClick(this.id)""></div></div><div class = watt_peg_board><div class = watt_base></div><div class = watt_board_label><strong>Planche Cible</strong></div><div id = watt_peg_1><div class = watt_peg></div></div><div id = watt_peg_1 ><div class = ""watt_ball watt_Blue""><div class = watt_ball_label>B</div></div><div class = ""watt_ball watt_Green""><div class = watt_ball_label>G</div></div><div class = ""watt_ball watt_Red""><div class = watt_ball_label>R</div></div></div><div id = watt_peg_2><div class = watt_peg></div></div><div id = watt_peg_2 ></div><div id = watt_peg_3><div class = watt_peg></div></div><div id = watt_peg_3 ></div></div><div class = watt_hand_box><div class = ""watt_hand_ball watt_Red""><div class = watt_ball_label>R</div></div></div><div class = watt_hand_label><strong>Boule en main</strong></div>","89,71,82","471","2,3,1,0,0,0,0,0,0","3","3","0,0,0,1,2,0,3,0,0","2,3,1,0,0,0,0,0,0","UA_without_intermediate","3","practice","","",""
"-1","-1","poldrack-single-stim","36","168939","0.0-9.3-1.3","sub-13-ses-03_1","","2000","0","feedback","<div class = watt_canvas><div class=""watt_vertical_line""></div></div><div class = watt_your_board><div class = watt_base></div><div class = watt_board_label><strong>Votre Planche</strong></div><div id = watt_peg_1><div class = watt_peg></div></div><div id = watt_peg_1 ><div class = ""watt_ball watt_Blue""><div class = watt_ball_label>B</div></div><div class = ""watt_ball watt_Green""><div class = watt_ball_label>G</div></div><div class = ""watt_ball watt_Red""><div class = watt_ball_label>R</div></div></div><div id = watt_peg_2><div class = watt_peg></div></div><div id = watt_peg_2 ></div><div id = watt_peg_3><div class = watt_peg></div></div><div id = watt_peg_3 ></div></div><div class = watt_peg_board><div class = watt_base></div><div class = watt_board_label><strong>Planche Cible</strong></div><div id = watt_peg_1><div class = watt_peg></div></div><div id = watt_peg_1 ><div class = ""watt_ball watt_Blue""><div class = watt_ball_label>B</div></div><div class = ""watt_ball watt_Green""><div class = watt_ball_label>G</div></div><div class = ""watt_ball watt_Red""><div class = watt_ball_label>R</div></div></div><div id = watt_peg_2><div class = watt_peg></div></div><div id = watt_peg_2 ></div><div id = watt_peg_3><div class = watt_peg></div></div><div id = watt_peg_3 ></div></div><div class = watt_feedbackbox><p class = center-text>Complete</p></div>","none","1000","","3","3","","","","","practice","10249","true",""
"-1","-1","poldrack-single-stim","37","170459","0.0-10.0","sub-13-ses-03_1","","1500","500","test_start_block","<div class = centerbox><div class = center-text>Preparez-vous!</p></div>","none","1500","","","","","","","","","","",""
"4603","82","poldrack-single-stim","38","175586","0.0-11.0-0.0-0.0","sub-13-ses-03_1","","4603","0","to_hand","<div class = watt_canvas><div class=""watt_vertical_line""></div></div><div class = watt_your_board><div class = watt_base></div><div class = watt_board_label><strong>Votre Planche</strong></div><div id = watt_peg_1><div class = watt_peg></div></div><div id = watt_peg_1 onclick = ""pegClick(this.id)""></div><div id = watt_peg_2><div class = watt_peg></div></div><div id = watt_peg_2 onclick = ""pegClick(this.id)""></div><div id = watt_peg_3><div class = watt_peg></div></div><div class = special id = watt_peg_3 onclick = ""pegClick(this.id)""><div class = ""watt_ball watt_Green""><div class = watt_ball_label>G</div></div><div class = ""watt_ball watt_Red""><div class = watt_ball_label>R</div></div><div class = ""watt_ball watt_Blue""><div class = watt_ball_label>B</div></div></div></div><div class = watt_peg_board><div class = watt_base></div><div class = watt_board_label><strong>Planche Cible</strong></div><div id = watt_peg_1><div class = watt_peg></div></div><div id = watt_peg_1 ><div class = ""watt_ball watt_Blue""><div class = watt_ball_label>B</div></div><div class = ""watt_ball watt_Green""><div class = watt_ball_label>G</div></div></div><div id = watt_peg_2><div class = watt_peg></div></div><div id = watt_peg_2 ><div class = ""watt_ball watt_Red""><div class = watt_ball_label>R</div></div></div><div id = watt_peg_3><div class = watt_peg></div></div><div id = watt_peg_3 ></div></div><div class = watt_hand_box></div><div class = watt_hand_label><strong>Boule en main</strong></div>","82","4603","0,0,0,0,0,0,1,2,0","1","3","0,0,0,0,0,0,1,2,3","3,1,0,2,0,0,0,0,0","PA_without_intermediate","0","test","","",""
"1099","89","poldrack-single-stim","39","176692","0.0-11.0-0.0-1.0","sub-13-ses-03_1","","1099","0","to_board","<div class = watt_canvas><div class=""watt_vertical_line""></div></div><div class = watt_your_board><div class = watt_base></div><div class = watt_board_label><strong>Votre Planche</strong></div><div id = watt_peg_1><div class = watt_peg></div></div><div class = special id = watt_peg_1 onclick = ""pegClick(this.id)""></div><div id = watt_peg_2><div class = watt_peg></div></div><div class = special id = watt_peg_2 onclick = ""pegClick(this.id)""></div><div id = watt_peg_3><div class = watt_peg></div></div><div class = special id = watt_peg_3 onclick = ""pegClick(this.id)""><div class = ""watt_ball watt_Green""><div class = watt_ball_label>G</div></div><div class = ""watt_ball watt_Red""><div class = watt_ball_label>R</div></div></div></div><div class = watt_peg_board><div class = watt_base></div><div class = watt_board_label><strong>Planche Cible</strong></div><div id = watt_peg_1><div class = watt_peg></div></div><div id = watt_peg_1 ><div class = ""watt_ball watt_Blue""><div class = watt_ball_label>B</div></div><div class = ""watt_ball watt_Green""><div class = watt_ball_label>G</div></div></div><div id = watt_peg_2><div class = watt_peg></div></div><div id = watt_peg_2 ><div class = ""watt_ball watt_Red""><div class = watt_ball_label>R</div></div></div><div id = watt_peg_3><div class = watt_peg></div></div><div id = watt_peg_3 ></div></div><div class = watt_hand_box><div class = ""watt_hand_ball watt_Blue""><div class = watt_ball_label>B</div></div></div><div class = watt_hand_label><strong>Boule en main</strong></div>","89,71,82","1099","3,0,0,0,0,0,1,2,0","1","3","0,0,0,0,0,0,1,2,3","3,1,0,2,0,0,0,0,0","PA_without_intermediate","0","test","","",""
"3421","82","poldrack-single-stim","40","180128","0.0-11.0-0.1-0.1","sub-13-ses-03_1","","3421","0","to_hand","<div class = watt_canvas><div class=""watt_vertical_line""></div></div><div class = watt_your_board><div class = watt_base></div><div class = watt_board_label><strong>Votre Planche</strong></div><div id = watt_peg_1><div class = watt_peg></div></div><div class = special id = watt_peg_1 onclick = ""pegClick(this.id)""><div class = ""watt_ball watt_Blue""><div class = watt_ball_label>B</div></div></div><div id = watt_peg_2><div class = watt_peg></div></div><div id = watt_peg_2 onclick = ""pegClick(this.id)""></div><div id = watt_peg_3><div class = watt_peg></div></div><div class = special id = watt_peg_3 onclick = ""pegClick(this.id)""><div class = ""watt_ball watt_Green""><div class = watt_ball_label>G</div></div><div class = ""watt_ball watt_Red""><div class = watt_ball_label>R</div></div></div></div><div class = watt_peg_board><div class = watt_base></div><div class = watt_board_label><strong>Planche Cible</strong></div><div id = watt_peg_1><div class = watt_peg></div></div><div id = watt_peg_1 ><div class = ""watt_ball watt_Blue""><div class = watt_ball_label>B</div></div><div class = ""watt_ball watt_Green""><div class = watt_ball_label>G</div></div></div><div id = watt_peg_2><div class = watt_peg></div></div><div id = watt_peg_2 ><div class = ""watt_ball watt_Red""><div class = watt_ball_label>R</div></div></div><div id = watt_peg_3><div class = watt_peg></div></div><div id = watt_peg_3 ></div></div><div class = watt_hand_box></div><div class = watt_hand_label><strong>Boule en main</strong></div>","89,82","3421","3,0,0,0,0,0,1,0,0","2","3","0,0,0,0,0,0,1,2,3","3,1,0,2,0,0,0,0,0","PA_without_intermediate","0","test","","",""
"507","71","poldrack-single-stim","41","180640","0.0-11.0-0.1-1.1","sub-13-ses-03_1","","507","0","to_board","<div class = watt_canvas><div class=""watt_vertical_line""></div></div><div class = watt_your_board><div class = watt_base></div><div class = watt_board_label><strong>Votre Planche</strong></div><div id = watt_peg_1><div class = watt_peg></div></div><div class = special id = watt_peg_1 onclick = ""pegClick(this.id)""><div class = ""watt_ball watt_Blue""><div class = watt_ball_label>B</div></div></div><div id = watt_peg_2><div class = watt_peg></div></div><div class = special id = watt_peg_2 onclick = ""pegClick(this.id)""></div><div id = watt_peg_3><div class = watt_peg></div></div><div class = special id = watt_peg_3 onclick = ""pegClick(this.id)""><div class = ""watt_ball watt_Green""><div class = watt_ball_label>G</div></div></div></div><div class = watt_peg_board><div class = watt_base></div><div class = watt_board_label><strong>Planche Cible</strong></div><div id = watt_peg_1><div class = watt_peg></div></div><div id = watt_peg_1 ><div class = ""watt_ball watt_Blue""><div class = watt_ball_label>B</div></div><div class = ""watt_ball watt_Green""><div class = watt_ball_label>G</div></div></div><div id = watt_peg_2><div class = watt_peg></div></div><div id = watt_peg_2 ><div class = ""watt_ball watt_Red""><div class = watt_ball_label>R</div></div></div><div id = watt_peg_3><div class = watt_peg></div></div><div id = watt_peg_3 ></div></div><div class = watt_hand_box><div class = ""watt_hand_ball watt_Red""><div class = watt_ball_label>R</div></div></div><div class = watt_hand_label><strong>Boule en main</strong></div>","89,71,82","507","3,0,0,2,0,0,1,0,0","2","3","0,0,0,0,0,0,1,2,3","3,1,0,2,0,0,0,0,0","PA_without_intermediate","0","test","","",""
"1957","82","poldrack-single-stim","42","182606","0.0-11.0-0.2-0.2","sub-13-ses-03_1","","1957","0","to_hand","<div class = watt_canvas><div class=""watt_vertical_line""></div></div><div class = watt_your_board><div class = watt_base></div><div class = watt_board_label><strong>Votre Planche</strong></div><div id = watt_peg_1><div class = watt_peg></div></div><div class = special id = watt_peg_1 onclick = ""pegClick(this.id)""><div class = ""watt_ball watt_Blue""><div class = watt_ball_label>B</div></div></div><div id = watt_peg_2><div class = watt_peg></div></div><div class = special id = watt_peg_2 onclick = ""pegClick(this.id)""><div class = ""watt_ball watt_Red""><div class = watt_ball_label>R</div></div></div><div id = watt_peg_3><div class = watt_peg></div></div><div class = special id = watt_peg_3 onclick = ""pegClick(this.id)""><div class = ""watt_ball watt_Green""><div class = watt_ball_label>G</div></div></div></div><div class = watt_peg_board><div class = watt_base></div><div class = watt_board_label><strong>Planche Cible</strong></div><div id = watt_peg_1><div class = watt_peg></div></div><div id = watt_peg_1 ><div class = ""watt_ball watt_Blue""><div class = watt_ball_label>B</div></div><div class = ""watt_ball watt_Green""><div class = watt_ball_label>G</div></div></div><div id = watt_peg_2><div class = watt_peg></div></div><div id = watt_peg_2 ><div class = ""watt_ball watt_Red""><div class = watt_ball_label>R</div></div></div><div id = watt_peg_3><div class = watt_peg></div></div><div id = watt_peg_3 ></div></div><div class = watt_hand_box></div><div class = watt_hand_label><strong>Boule en main</strong></div>","89,71,82","1957","3,0,0,2,0,0,0,0,0","3","3","0,0,0,0,0,0,1,2,3","3,1,0,2,0,0,0,0,0","PA_without_intermediate","0","test","","",""
"660","89","poldrack-single-stim","43","183271","0.0-11.0-0.2-1.2","sub-13-ses-03_1","","660","0","to_board","<div class = watt_canvas><div class=""watt_vertical_line""></div></div><div class = watt_your_board><div class = watt_base></div><div class = watt_board_label><strong>Votre Planche</strong></div><div id = watt_peg_1><div class = watt_peg></div></div><div class = special id = watt_peg_1 onclick = ""pegClick(this.id)""><div class = ""watt_ball watt_Blue""><div class = watt_ball_label>B</div></div></div><div id = watt_peg_2><div class = watt_peg></div></div><div class = special id = watt_peg_2 onclick = ""pegClick(this.id)""><div class = ""watt_ball watt_Red""><div class = watt_ball_label>R</div></div></div><div id = watt_peg_3><div class = watt_peg></div></div><div class = special id = watt_peg_3 onclick = ""pegClick(this.id)""></div></div><div class = watt_peg_board><div class = watt_base></div><div class = watt_board_label><strong>Planche Cible</strong></div><div id = watt_peg_1><div class = watt_peg></div></div><div id = watt_peg_1 ><div class = ""watt_ball watt_Blue""><div class = watt_ball_label>B</div></div><div class = ""watt_ball watt_Green""><div class = watt_ball_label>G</div></div></div><div id = watt_peg_2><div class = watt_peg></div></div><div id = watt_peg_2 ><div class = ""watt_ball watt_Red""><div class = watt_ball_label>R</div></div></div><div id = watt_peg_3><div class = watt_peg></div></div><div id = watt_peg_3 ></div></div><div class = watt_hand_box><div class = ""watt_hand_ball watt_Green""><div class = watt_ball_label>G</div></div></div><div class = watt_hand_label><strong>Boule en main</strong></div>","89,71,82","660","3,1,0,2,0,0,0,0,0","3","3","0,0,0,0,0,0,1,2,3","3,1,0,2,0,0,0,0,0","PA_without_intermediate","0","test","","",""
"-1","-1","poldrack-single-stim","44","186378","0.0-11.0-1.0","sub-13-ses-03_1","","3088","0","feedback","<div class = watt_canvas><div class=""watt_vertical_line""></div></div><div class = watt_your_board><div class = watt_base></div><div class = watt_board_label><strong>Votre Planche</strong></div><div id = watt_peg_1><div class = watt_peg></div></div><div id = watt_peg_1 ><div class = ""watt_ball watt_Blue""><div class = watt_ball_label>B</div></div><div class = ""watt_ball watt_Green""><div class = watt_ball_label>G</div></div></div><div id = watt_peg_2><div class = watt_peg></div></div><div id = watt_peg_2 ><div class = ""watt_ball watt_Red""><div class = watt_ball_label>R</div></div></div><div id = watt_peg_3><div class = watt_peg></div></div><div id = watt_peg_3 ></div></div><div class = watt_peg_board><div class = watt_base></div><div class = watt_board_label><strong>Planche Cible</strong></div><div id = watt_peg_1><div class = watt_peg></div></div><div id = watt_peg_1 ><div class = ""watt_ball watt_Blue""><div class = watt_ball_label>B</div></div><div class = ""watt_ball watt_Green""><div class = watt_ball_label>G</div></div></div><div id = watt_peg_2><div class = watt_peg></div></div><div id = watt_peg_2 ><div class = ""watt_ball watt_Red""><div class = watt_ball_label>R</div></div></div><div id = watt_peg_3><div class = watt_peg></div></div><div id = watt_peg_3 ></div></div><div class = watt_feedbackbox><p class = center-text>Complete</p></div>","none","1000","","3","3","","","","","test","15920","true",""
"2468","89","poldrack-single-stim","45","188860","0.0-11.1-0.3-0.3","sub-13-ses-03_1","","2468","0","to_hand","<div class = watt_canvas><div class=""watt_vertical_line""></div></div><div class = watt_your_board><div class = watt_base></div><div class = watt_board_label><strong>Votre Planche</strong></div><div id = watt_peg_1><div class = watt_peg></div></div><div class = special id = watt_peg_1 onclick = ""pegClick(this.id)""><div class = ""watt_ball watt_Red""><div class = watt_ball_label>R</div></div><div class = ""watt_ball watt_Green""><div class = watt_ball_label>G</div></div><div class = ""watt_ball watt_Blue""><div class = watt_ball_label>B</div></div></div><div id = watt_peg_2><div class = watt_peg></div></div><div id = watt_peg_2 onclick = ""pegClick(this.id)""></div><div id = watt_peg_3><div class = watt_peg></div></div><div id = watt_peg_3 onclick = ""pegClick(this.id)""></div></div><div class = watt_peg_board><div class = watt_base></div><div class = watt_board_label><strong>Planche Cible</strong></div><div id = watt_peg_1><div class = watt_peg></div></div><div id = watt_peg_1 ><div class = ""watt_ball watt_Red""><div class = watt_ball_label>R</div></div><div class = ""watt_ball watt_Blue""><div class = watt_ball_label>B</div></div></div><div id = watt_peg_2><div class = watt_peg></div></div><div id = watt_peg_2 ></div><div id = watt_peg_3><div class = watt_peg></div></div><div id = watt_peg_3 ><div class = ""watt_ball watt_Green""><div class = watt_ball_label>G</div></div></div></div><div class = watt_hand_box></div><div class = watt_hand_label><strong>Boule en main</strong></div>","89","2468","1,2,0,0,0,0,0,0,0","1","3","1,2,3,0,0,0,0,0,0","1,3,0,0,0,0,2,0,0","PA_with_intermediate","1","test","","",""
"1500","71","poldrack-single-stim","46","190364","0.0-11.1-0.3-1.3","sub-13-ses-03_1","","1500","0","to_board","<div class = watt_canvas><div class=""watt_vertical_line""></div></div><div class = watt_your_board><div class = watt_base></div><div class = watt_board_label><strong>Votre Planche</strong></div><div id = watt_peg_1><div class = watt_peg></div></div><div class = special id = watt_peg_1 onclick = ""pegClick(this.id)""><div class = ""watt_ball watt_Red""><div class = watt_ball_label>R</div></div><div class = ""watt_ball watt_Green""><div class = watt_ball_label>G</div></div></div><div id = watt_peg_2><div class = watt_peg></div></div><div class = special id = watt_peg_2 onclick = ""pegClick(this.id)""></div><div id = watt_peg_3><div class = watt_peg></div></div><div class = special id = watt_peg_3 onclick = ""pegClick(this.id)""></div></div><div class = watt_peg_board><div class = watt_base></div><div class = watt_board_label><strong>Planche Cible</strong></div><div id = watt_peg_1><div class = watt_peg></div></div><div id = watt_peg_1 ><div class = ""watt_ball watt_Red""><div class = watt_ball_label>R</div></div><div class = ""watt_ball watt_Blue""><div class = watt_ball_label>B</div></div></div><div id = watt_peg_2><div class = watt_peg></div></div><div id = watt_peg_2 ></div><div id = watt_peg_3><div class = watt_peg></div></div><div id = watt_peg_3 ><div class = ""watt_ball watt_Green""><div class = watt_ball_label>G</div></div></div></div><div class = watt_hand_box><div class = ""watt_hand_ball watt_Blue""><div class = watt_ball_label>B</div></div></div><div class = watt_hand_label><strong>Boule en main</strong></div>","89,71,82","1500","1,2,0,3,0,0,0,0,0","1","3","1,2,3,0,0,0,0,0,0","1,3,0,0,0,0,2,0,0","PA_with_intermediate","1","test","","",""
"1005","89","poldrack-single-stim","47","191382","0.0-11.1-0.4-0.4","sub-13-ses-03_1","","1005","0","to_hand","<div class = watt_canvas><div class=""watt_vertical_line""></div></div><div class = watt_your_board><div class = watt_base></div><div class = watt_board_label><strong>Votre Planche</strong></div><div id = watt_peg_1><div class = watt_peg></div></div><div class = special id = watt_peg_1 onclick = ""pegClick(this.id)""><div class = ""watt_ball watt_Red""><div class = watt_ball_label>R</div></div><div class = ""watt_ball watt_Green""><div class = watt_ball_label>G</div></div></div><div id = watt_peg_2><div class = watt_peg></div></div><div class = special id = watt_peg_2 onclick = ""pegClick(this.id)""><div class = ""watt_ball watt_Blue""><div class = watt_ball_label>B</div></div></div><div id = watt_peg_3><div class = watt_peg></div></div><div id = watt_peg_3 onclick = ""pegClick(this.id)""></div></div><div class = watt_peg_board><div class = watt_base></div><div class = watt_board_label><strong>Planche Cible</strong></div><div id = watt_peg_1><div class = watt_peg></div></div><div id = watt_peg_1 ><div class = ""watt_ball watt_Red""><div class = watt_ball_label>R</div></div><div class = ""watt_ball watt_Blue""><div class = watt_ball_label>B</div></div></div><div id = watt_peg_2><div class = watt_peg></div></div><div id = watt_peg_2 ></div><div id = watt_peg_3><div class = watt_peg></div></div><div id = watt_peg_3 ><div class = ""watt_ball watt_Green""><div class = watt_ball_label>G</div></div></div></div><div class = watt_hand_box></div><div class = watt_hand_label><strong>Boule en main</strong></div>","89,71","1005","1,0,0,3,0,0,0,0,0","2","3","1,2,3,0,0,0,0,0,0","1,3,0,0,0,0,2,0,0","PA_with_intermediate","1","test","","",""
"1022","82","poldrack-single-stim","48","192464","0.0-11.1-0.4-1.4","sub-13-ses-03_1","","1022","0","to_board","<div class = watt_canvas><div class=""watt_vertical_line""></div></div><div class = watt_your_board><div class = watt_base></div><div class = watt_board_label><strong>Votre Planche</strong></div><div id = watt_peg_1><div class = watt_peg></div></div><div class = special id = watt_peg_1 onclick = ""pegClick(this.id)""><div class = ""watt_ball watt_Red""><div class = watt_ball_label>R</div></div></div><div id = watt_peg_2><div class = watt_peg></div></div><div class = special id = watt_peg_2 onclick = ""pegClick(this.id)""><div class = ""watt_ball watt_Blue""><div class = watt_ball_label>B</div></div></div><div id = watt_peg_3><div class = watt_peg></div></div><div class = special id = watt_peg_3 onclick = ""pegClick(this.id)""></div></div><div class = watt_peg_board><div class = watt_base></div><div class = watt_board_label><strong>Planche Cible</strong></div><div id = watt_peg_1><div class = watt_peg></div></div><div id = watt_peg_1 ><div class = ""watt_ball watt_Red""><div class = watt_ball_label>R</div></div><div class = ""watt_ball watt_Blue""><div class = watt_ball_label>B</div></div></div><div id = watt_peg_2><div class = watt_peg></div></div><div id = watt_peg_2 ></div><div id = watt_peg_3><div class = watt_peg></div></div><div id = watt_peg_3 ><div class = ""watt_ball watt_Green""><div class = watt_ball_label>G</div></div></div></div><div class = watt_hand_box><div class = ""watt_hand_ball watt_Green""><div class = watt_ball_label>G</div></div></div><div class = watt_hand_label><strong>Boule en main</strong></div>","89,71,82","1022","1,0,0,3,0,0,2,0,0","2","3","1,2,3,0,0,0,0,0,0","1,3,0,0,0,0,2,0,0","PA_with_intermediate","1","test","","",""
"1282","71","poldrack-single-stim","49","193756","0.0-11.1-0.5-0.5","sub-13-ses-03_1","","1282","0","to_hand","<div class = watt_canvas><div class=""watt_vertical_line""></div></div><div class = watt_your_board><div class = watt_base></div><div class = watt_board_label><strong>Votre Planche</strong></div><div id = watt_peg_1><div class = watt_peg></div></div><div class = special id = watt_peg_1 onclick = ""pegClick(this.id)""><div class = ""watt_ball watt_Red""><div class = watt_ball_label>R</div></div></div><div id = watt_peg_2><div class = watt_peg></div></div><div class = special id = watt_peg_2 onclick = ""pegClick(this.id)""><div class = ""watt_ball watt_Blue""><div class = watt_ball_label>B</div></div></div><div id = watt_peg_3><div class = watt_peg></div></div><div class = special id = watt_peg_3 onclick = ""pegClick(this.id)""><div class = ""watt_ball watt_Green""><div class = watt_ball_label>G</div></div></div></div><div class = watt_peg_board><div class = watt_base></div><div class = watt_board_label><strong>Planche Cible</strong></div><div id = watt_peg_1><div class = watt_peg></div></div><div id = watt_peg_1 ><div class = ""watt_ball watt_Red""><div class = watt_ball_label>R</div></div><div class = ""watt_ball watt_Blue""><div class = watt_ball_label>B</div></div></div><div id = watt_peg_2><div class = watt_peg></div></div><div id = watt_peg_2 ></div><div id = watt_peg_3><div class = watt_peg></div></div><div id = watt_peg_3 ><div class = ""watt_ball watt_Green""><div class = watt_ball_label>G</div></div></div></div><div class = watt_hand_box></div><div class = watt_hand_label><strong>Boule en main</strong></div>","89,71,82","1282","1,0,0,0,0,0,2,0,0","3","3","1,2,3,0,0,0,0,0,0","1,3,0,0,0,0,2,0,0","PA_with_intermediate","1","test","","",""
"353","89","poldrack-single-stim","50","194113","0.0-11.1-0.5-1.5","sub-13-ses-03_1","","353","0","to_board","<div class = watt_canvas><div class=""watt_vertical_line""></div></div><div class = watt_your_board><div class = watt_base></div><div class = watt_board_label><strong>Votre Planche</strong></div><div id = watt_peg_1><div class = watt_peg></div></div><div class = special id = watt_peg_1 onclick = ""pegClick(this.id)""><div class = ""watt_ball watt_Red""><div class = watt_ball_label>R</div></div></div><div id = watt_peg_2><div class = watt_peg></div></div><div class = special id = watt_peg_2 onclick = ""pegClick(this.id)""></div><div id = watt_peg_3><div class = watt_peg></div></div><div class = special id = watt_peg_3 onclick = ""pegClick(this.id)""><div class = ""watt_ball watt_Green""><div class = watt_ball_label>G</div></div></div></div><div class = watt_peg_board><div class = watt_base></div><div class = watt_board_label><strong>Planche Cible</strong></div><div id = watt_peg_1><div class = watt_peg></div></div><div id = watt_peg_1 ><div class = ""watt_ball watt_Red""><div class = watt_ball_label>R</div></div><div class = ""watt_ball watt_Blue""><div class = watt_ball_label>B</div></div></div><div id = watt_peg_2><div class = watt_peg></div></div><div id = watt_peg_2 ></div><div id = watt_peg_3><div class = watt_peg></div></div><div id = watt_peg_3 ><div class = ""watt_ball watt_Green""><div class = watt_ball_label>G</div></div></div></div><div class = watt_hand_box><div class = ""watt_hand_ball watt_Blue""><div class = watt_ball_label>B</div></div></div><div class = watt_hand_label><strong>Boule en main</strong></div>","89,71,82","353","1,3,0,0,0,0,2,0,0","3","3","1,2,3,0,0,0,0,0,0","1,3,0,0,0,0,2,0,0","PA_with_intermediate","1","test","","",""
"-1","-1","poldrack-single-stim","51","196130","0.0-11.1-1.1","sub-13-ses-03_1","","2000","0","feedback","<div class = watt_canvas><div class=""watt_vertical_line""></div></div><div class = watt_your_board><div class = watt_base></div><div class = watt_board_label><strong>Votre Planche</strong></div><div id = watt_peg_1><div class = watt_peg></div></div><div id = watt_peg_1 ><div class = ""watt_ball watt_Red""><div class = watt_ball_label>R</div></div><div class = ""watt_ball watt_Blue""><div class = watt_ball_label>B</div></div></div><div id = watt_peg_2><div class = watt_peg></div></div><div id = watt_peg_2 ></div><div id = watt_peg_3><div class = watt_peg></div></div><div id = watt_peg_3 ><div class = ""watt_ball watt_Green""><div class = watt_ball_label>G</div></div></div></div><div class = watt_peg_board><div class = watt_base></div><div class = watt_board_label><strong>Planche Cible</strong></div><div id = watt_peg_1><div class = watt_peg></div></div><div id = watt_peg_1 ><div class = ""watt_ball watt_Red""><div class = watt_ball_label>R</div></div><div class = ""watt_ball watt_Blue""><div class = watt_ball_label>B</div></div></div><div id = watt_peg_2><div class = watt_peg></div></div><div id = watt_peg_2 ></div><div id = watt_peg_3><div class = watt_peg></div></div><div id = watt_peg_3 ><div class = ""watt_ball watt_Green""><div class = watt_ball_label>G</div></div></div></div><div class = watt_feedbackbox><p class = center-text>Complete</p></div>","none","1000","","3","3","","","","","test","9751","true",""
"3532","89","poldrack-single-stim","52","199673","0.0-11.2-0.6-0.6","sub-13-ses-03_1","","3532","0","to_hand","<div class = watt_canvas><div class=""watt_vertical_line""></div></div><div class = watt_your_board><div class = watt_base></div><div class = watt_board_label><strong>Votre Planche</strong></div><div id = watt_peg_1><div class = watt_peg></div></div><div class = special id = watt_peg_1 onclick = ""pegClick(this.id)""><div class = ""watt_ball watt_Blue""><div class = watt_ball_label>B</div></div><div class = ""watt_ball watt_Red""><div class = watt_ball_label>R</div></div><div class = ""watt_ball watt_Green""><div class = watt_ball_label>G</div></div></div><div id = watt_peg_2><div class = watt_peg></div></div><div id = watt_peg_2 onclick = ""pegClick(this.id)""></div><div id = watt_peg_3><div class = watt_peg></div></div><div id = watt_peg_3 onclick = ""pegClick(this.id)""></div></div><div class = watt_peg_board><div class = watt_base></div><div class = watt_board_label><strong>Planche Cible</strong></div><div id = watt_peg_1><div class = watt_peg></div></div><div id = watt_peg_1 ></div><div id = watt_peg_2><div class = watt_peg></div></div><div id = watt_peg_2 ><div class = ""watt_ball watt_Green""><div class = watt_ball_label>G</div></div><div class = ""watt_ball watt_Blue""><div class = watt_ball_label>B</div></div></div><div id = watt_peg_3><div class = watt_peg></div></div><div id = watt_peg_3 ><div class = ""watt_ball watt_Red""><div class = watt_ball_label>R</div></div></div></div><div class = watt_hand_box></div><div class = watt_hand_label><strong>Boule en main</strong></div>","89","3532","1,2,0,0,0,0,0,0,0","1","3","1,2,3,0,0,0,0,0,0","0,0,0,3,1,0,2,0,0","PA_without_intermediate","2","test","","",""
"483","71","poldrack-single-stim","53","200158","0.0-11.2-0.6-1.6","sub-13-ses-03_1","","483","0","to_board","<div class = watt_canvas><div class=""watt_vertical_line""></div></div><div class = watt_your_board><div class = watt_base></div><div class = watt_board_label><strong>Votre Planche</strong></div><div id = watt_peg_1><div class = watt_peg></div></div><div class = special id = watt_peg_1 onclick = ""pegClick(this.id)""><div class = ""watt_ball watt_Blue""><div class = watt_ball_label>B</div></div><div class = ""watt_ball watt_Red""><div class = watt_ball_label>R</div></div></div><div id = watt_peg_2><div class = watt_peg></div></div><div class = special id = watt_peg_2 onclick = ""pegClick(this.id)""></div><div id = watt_peg_3><div class = watt_peg></div></div><div class = special id = watt_peg_3 onclick = ""pegClick(this.id)""></div></div><div class = watt_peg_board><div class = watt_base></div><div class = watt_board_label><strong>Planche Cible</strong></div><div id = watt_peg_1><div class = watt_peg></div></div><div id = watt_peg_1 ></div><div id = watt_peg_2><div class = watt_peg></div></div><div id = watt_peg_2 ><div class = ""watt_ball watt_Green""><div class = watt_ball_label>G</div></div><div class = ""watt_ball watt_Blue""><div class = watt_ball_label>B</div></div></div><div id = watt_peg_3><div class = watt_peg></div></div><div id = watt_peg_3 ><div class = ""watt_ball watt_Red""><div class = watt_ball_label>R</div></div></div></div><div class = watt_hand_box><div class = ""watt_hand_ball watt_Green""><div class = watt_ball_label>G</div></div></div><div class = watt_hand_label><strong>Boule en main</strong></div>","89,71,82","483","1,2,0,3,0,0,0,0,0","1","3","1,2,3,0,0,0,0,0,0","0,0,0,3,1,0,2,0,0","PA_without_intermediate","2","test","","",""
"1067","89","poldrack-single-stim","54","201235","0.0-11.2-0.7-0.7","sub-13-ses-03_1","","1067","0","to_hand","<div class = watt_canvas><div class=""watt_vertical_line""></div></div><div class = watt_your_board><div class = watt_base></div><div class = watt_board_label><strong>Votre Planche</strong></div><div id = watt_peg_1><div class = watt_peg></div></div><div class = special id = watt_peg_1 onclick = ""pegClick(this.id)""><div class = ""watt_ball watt_Blue""><div class = watt_ball_label>B</div></div><div class = ""watt_ball watt_Red""><div class = watt_ball_label>R</div></div></div><div id = watt_peg_2><div class = watt_peg></div></div><div class = special id = watt_peg_2 onclick = ""pegClick(this.id)""><div class = ""watt_ball watt_Green""><div class = watt_ball_label>G</div></div></div><div id = watt_peg_3><div class = watt_peg></div></div><div id = watt_peg_3 onclick = ""pegClick(this.id)""></div></div><div class = watt_peg_board><div class = watt_base></div><div class = watt_board_label><strong>Planche Cible</strong></div><div id = watt_peg_1><div class = watt_peg></div></div><div id = watt_peg_1 ></div><div id = watt_peg_2><div class = watt_peg></div></div><div id = watt_peg_2 ><div class = ""watt_ball watt_Green""><div class = watt_ball_label>G</div></div><div class = ""watt_ball watt_Blue""><div class = watt_ball_label>B</div></div></div><div id = watt_peg_3><div class = watt_peg></div></div><div id = watt_peg_3 ><div class = ""watt_ball watt_Red""><div class = watt_ball_label>R</div></div></div></div><div class = watt_hand_box></div><div class = watt_hand_label><strong>Boule en main</strong></div>","89,71","1067","1,0,0,3,0,0,0,0,0","2","3","1,2,3,0,0,0,0,0,0","0,0,0,3,1,0,2,0,0","PA_without_intermediate","2","test","","",""
"1037","82","poldrack-single-stim","55","202277","0.0-11.2-0.7-1.7","sub-13-ses-03_1","","1037","0","to_board","<div class = watt_canvas><div class=""watt_vertical_line""></div></div><div class = watt_your_board><div class = watt_base></div><div class = watt_board_label><strong>Votre Planche</strong></div><div id = watt_peg_1><div class = watt_peg></div></div><div class = special id = watt_peg_1 onclick = ""pegClick(this.id)""><div class = ""watt_ball watt_Blue""><div class = watt_ball_label>B</div></div></div><div id = watt_peg_2><div class = watt_peg></div></div><div class = special id = watt_peg_2 onclick = ""pegClick(this.id)""><div class = ""watt_ball watt_Green""><div class = watt_ball_label>G</div></div></div><div id = watt_peg_3><div class = watt_peg></div></div><div class = special id = watt_peg_3 onclick = ""pegClick(this.id)""></div></div><div class = watt_peg_board><div class = watt_base></div><div class = watt_board_label><strong>Planche Cible</strong></div><div id = watt_peg_1><div class = watt_peg></div></div><div id = watt_peg_1 ></div><div id = watt_peg_2><div class = watt_peg></div></div><div id = watt_peg_2 ><div class = ""watt_ball watt_Green""><div class = watt_ball_label>G</div></div><div class = ""watt_ball watt_Blue""><div class = watt_ball_label>B</div></div></div><div id = watt_peg_3><div class = watt_peg></div></div><div id = watt_peg_3 ><div class = ""watt_ball watt_Red""><div class = watt_ball_label>R</div></div></div></div><div class = watt_hand_box><div class = ""watt_hand_ball watt_Red""><div class = watt_ball_label>R</div></div></div><div class = watt_hand_label><strong>Boule en main</strong></div>","89,71,82","1037","1,0,0,3,0,0,2,0,0","2","3","1,2,3,0,0,0,0,0,0","0,0,0,3,1,0,2,0,0","PA_without_intermediate","2","test","","",""
"833","89","poldrack-single-stim","56","203122","0.0-11.2-0.8-0.8","sub-13-ses-03_1","","833","0","to_hand","<div class = watt_canvas><div class=""watt_vertical_line""></div></div><div class = watt_your_board><div class = watt_base></div><div class = watt_board_label><strong>Votre Planche</strong></div><div id = watt_peg_1><div class = watt_peg></div></div><div class = special id = watt_peg_1 onclick = ""pegClick(this.id)""><div class = ""watt_ball watt_Blue""><div class = watt_ball_label>B</div></div></div><div id = watt_peg_2><div class = watt_peg></div></div><div class = special id = watt_peg_2 onclick = ""pegClick(this.id)""><div class = ""watt_ball watt_Green""><div class = watt_ball_label>G</div></div></div><div id = watt_peg_3><div class = watt_peg></div></div><div class = special id = watt_peg_3 onclick = ""pegClick(this.id)""><div class = ""watt_ball watt_Red""><div class = watt_ball_label>R</div></div></div></div><div class = watt_peg_board><div class = watt_base></div><div class = watt_board_label><strong>Planche Cible</strong></div><div id = watt_peg_1><div class = watt_peg></div></div><div id = watt_peg_1 ></div><div id = watt_peg_2><div class = watt_peg></div></div><div id = watt_peg_2 ><div class = ""watt_ball watt_Green""><div class = watt_ball_label>G</div></div><div class = ""watt_ball watt_Blue""><div class = watt_ball_label>B</div></div></div><div id = watt_peg_3><div class = watt_peg></div></div><div id = watt_peg_3 ><div class = ""watt_ball watt_Red""><div class = watt_ball_label>R</div></div></div></div><div class = watt_hand_box></div><div class = watt_hand_label><strong>Boule en main</strong></div>","89,71,82","833","0,0,0,3,0,0,2,0,0","3","3","1,2,3,0,0,0,0,0,0","0,0,0,3,1,0,2,0,0","PA_without_intermediate","2","test","","",""
"401","71","poldrack-single-stim","57","203527","0.0-11.2-0.8-1.8","sub-13-ses-03_1","","401","0","to_board","<div class = watt_canvas><div class=""watt_vertical_line""></div></div><div class = watt_your_board><div class = watt_base></div><div class = watt_board_label><strong>Votre Planche</strong></div><div id = watt_peg_1><div class = watt_peg></div></div><div class = special id = watt_peg_1 onclick = ""pegClick(this.id)""></div><div id = watt_peg_2><div class = watt_peg></div></div><div class = special id = watt_peg_2 onclick = ""pegClick(this.id)""><div class = ""watt_ball watt_Green""><div class = watt_ball_label>G</div></div></div><div id = watt_peg_3><div class = watt_peg></div></div><div class = special id = watt_peg_3 onclick = ""pegClick(this.id)""><div class = ""watt_ball watt_Red""><div class = watt_ball_label>R</div></div></div></div><div class = watt_peg_board><div class = watt_base></div><div class = watt_board_label><strong>Planche Cible</strong></div><div id = watt_peg_1><div class = watt_peg></div></div><div id = watt_peg_1 ></div><div id = watt_peg_2><div class = watt_peg></div></div><div id = watt_peg_2 ><div class = ""watt_ball watt_Green""><div class = watt_ball_label>G</div></div><div class = ""watt_ball watt_Blue""><div class = watt_ball_label>B</div></div></div><div id = watt_peg_3><div class = watt_peg></div></div><div id = watt_peg_3 ><div class = ""watt_ball watt_Red""><div class = watt_ball_label>R</div></div></div></div><div class = watt_hand_box><div class = ""watt_hand_ball watt_Blue""><div class = watt_ball_label>B</div></div></div><div class = watt_hand_label><strong>Boule en main</strong></div>","89,71,82","401","0,0,0,3,1,0,2,0,0","3","3","1,2,3,0,0,0,0,0,0","0,0,0,3,1,0,2,0,0","PA_without_intermediate","2","test","","",""
"-1","-1","poldrack-single-stim","58","205548","0.0-11.2-1.2","sub-13-ses-03_1","","2000","0","feedback","<div class = watt_canvas><div class=""watt_vertical_line""></div></div><div class = watt_your_board><div class = watt_base></div><div class = watt_board_label><strong>Votre Planche</strong></div><div id = watt_peg_1><div class = watt_peg></div></div><div id = watt_peg_1 ></div><div id = watt_peg_2><div class = watt_peg></div></div><div id = watt_peg_2 ><div class = ""watt_ball watt_Green""><div class = watt_ball_label>G</div></div><div class = ""watt_ball watt_Blue""><div class = watt_ball_label>B</div></div></div><div id = watt_peg_3><div class = watt_peg></div></div><div id = watt_peg_3 ><div class = ""watt_ball watt_Red""><div class = watt_ball_label>R</div></div></div></div><div class = watt_peg_board><div class = watt_base></div><div class = watt_board_label><strong>Planche Cible</strong></div><div id = watt_peg_1><div class = watt_peg></div></div><div id = watt_peg_1 ></div><div id = watt_peg_2><div class = watt_peg></div></div><div id = watt_peg_2 ><div class = ""watt_ball watt_Green""><div class = watt_ball_label>G</div></div><div class = ""watt_ball watt_Blue""><div class = watt_ball_label>B</div></div></div><div id = watt_peg_3><div class = watt_peg></div></div><div id = watt_peg_3 ><div class = ""watt_ball watt_Red""><div class = watt_ball_label>R</div></div></div></div><div class = watt_feedbackbox><p class = center-text>Complete</p></div>","none","1000","","3","3","","","","","test","9417","true",""
"2054","71","poldrack-single-stim","59","207614","0.0-11.3-0.9-0.9","sub-13-ses-03_1","","2054","0","to_hand","<div class = watt_canvas><div class=""watt_vertical_line""></div></div><div class = watt_your_board><div class = watt_base></div><div class = watt_board_label><strong>Votre Planche</strong></div><div id = watt_peg_1><div class = watt_peg></div></div><div id = watt_peg_1 onclick = ""pegClick(this.id)""></div><div id = watt_peg_2><div class = watt_peg></div></div><div class = special id = watt_peg_2 onclick = ""pegClick(this.id)""><div class = ""watt_ball watt_Green""><div class = watt_ball_label>G</div></div><div class = ""watt_ball watt_Red""><div class = watt_ball_label>R</div></div><div class = ""watt_ball watt_Blue""><div class = watt_ball_label>B</div></div></div><div id = watt_peg_3><div class = watt_peg></div></div><div id = watt_peg_3 onclick = ""pegClick(this.id)""></div></div><div class = watt_peg_board><div class = watt_base></div><div class = watt_board_label><strong>Planche Cible</strong></div><div id = watt_peg_1><div class = watt_peg></div></div><div id = watt_peg_1 ><div class = ""watt_ball watt_Blue""><div class = watt_ball_label>B</div></div><div class = ""watt_ball watt_Green""><div class = watt_ball_label>G</div></div></div><div id = watt_peg_2><div class = watt_peg></div></div><div id = watt_peg_2 ></div><div id = watt_peg_3><div class = watt_peg></div></div><div id = watt_peg_3 ><div class = ""watt_ball watt_Red""><div class = watt_ball_label>R</div></div></div></div><div class = watt_hand_box></div><div class = watt_hand_label><strong>Boule en main</strong></div>","71","2054","0,0,0,1,2,0,0,0,0","1","3","0,0,0,1,2,3,0,0,0","3,1,0,0,0,0,2,0,0","PA_without_intermediate","3","test","","",""
"425","89","poldrack-single-stim","60","208043","0.0-11.3-0.9-1.9","sub-13-ses-03_1","","425","0","to_board","<div class = watt_canvas><div class=""watt_vertical_line""></div></div><div class = watt_your_board><div class = watt_base></div><div class = watt_board_label><strong>Votre Planche</strong></div><div id = watt_peg_1><div class = watt_peg></div></div><div class = special id = watt_peg_1 onclick = ""pegClick(this.id)""></div><div id = watt_peg_2><div class = watt_peg></div></div><div class = special id = watt_peg_2 onclick = ""pegClick(this.id)""><div class = ""watt_ball watt_Green""><div class = watt_ball_label>G</div></div><div class = ""watt_ball watt_Red""><div class = watt_ball_label>R</div></div></div><div id = watt_peg_3><div class = watt_peg></div></div><div class = special id = watt_peg_3 onclick = ""pegClick(this.id)""></div></div><div class = watt_peg_board><div class = watt_base></div><div class = watt_board_label><strong>Planche Cible</strong></div><div id = watt_peg_1><div class = watt_peg></div></div><div id = watt_peg_1 ><div class = ""watt_ball watt_Blue""><div class = watt_ball_label>B</div></div><div class = ""watt_ball watt_Green""><div class = watt_ball_label>G</div></div></div><div id = watt_peg_2><div class = watt_peg></div></div><div id = watt_peg_2 ></div><div id = watt_peg_3><div class = watt_peg></div></div><div id = watt_peg_3 ><div class = ""watt_ball watt_Red""><div class = watt_ball_label>R</div></div></div></div><div class = watt_hand_box><div class = ""watt_hand_ball watt_Blue""><div class = watt_ball_label>B</div></div></div><div class = watt_hand_label><strong>Boule en main</strong></div>","89,71,82","425","3,0,0,1,2,0,0,0,0","1","3","0,0,0,1,2,3,0,0,0","3,1,0,0,0,0,2,0,0","PA_without_intermediate","3","test","","",""
"1290","71","poldrack-single-stim","61","209347","0.0-11.3-0.10-0.10","sub-13-ses-03_1","","1290","0","to_hand","<div class = watt_canvas><div class=""watt_vertical_line""></div></div><div class = watt_your_board><div class = watt_base></div><div class = watt_board_label><strong>Votre Planche</strong></div><div id = watt_peg_1><div class = watt_peg></div></div><div class = special id = watt_peg_1 onclick = ""pegClick(this.id)""><div class = ""watt_ball watt_Blue""><div class = watt_ball_label>B</div></div></div><div id = watt_peg_2><div class = watt_peg></div></div><div class = special id = watt_peg_2 onclick = ""pegClick(this.id)""><div class = ""watt_ball watt_Green""><div class = watt_ball_label>G</div></div><div class = ""watt_ball watt_Red""><div class = watt_ball_label>R</div></div></div><div id = watt_peg_3><div class = watt_peg></div></div><div id = watt_peg_3 onclick = ""pegClick(this.id)""></div></div><div class = watt_peg_board><div class = watt_base></div><div class = watt_board_label><strong>Planche Cible</strong></div><div id = watt_peg_1><div class = watt_peg></div></div><div id = watt_peg_1 ><div class = ""watt_ball watt_Blue""><div class = watt_ball_label>B</div></div><div class = ""watt_ball watt_Green""><div class = watt_ball_label>G</div></div></div><div id = watt_peg_2><div class = watt_peg></div></div><div id = watt_peg_2 ></div><div id = watt_peg_3><div class = watt_peg></div></div><div id = watt_peg_3 ><div class = ""watt_ball watt_Red""><div class = watt_ball_label>R</div></div></div></div><div class = watt_hand_box></div><div class = watt_hand_label><strong>Boule en main</strong></div>","89,71","1290","3,0,0,1,0,0,0,0,0","2","3","0,0,0,1,2,3,0,0,0","3,1,0,0,0,0,2,0,0","PA_without_intermediate","3","test","","",""
"518","82","poldrack-single-stim","62","209870","0.0-11.3-0.10-1.10","sub-13-ses-03_1","","518","0","to_board","<div class = watt_canvas><div class=""watt_vertical_line""></div></div><div class = watt_your_board><div class = watt_base></div><div class = watt_board_label><strong>Votre Planche</strong></div><div id = watt_peg_1><div class = watt_peg></div></div><div class = special id = watt_peg_1 onclick = ""pegClick(this.id)""><div class = ""watt_ball watt_Blue""><div class = watt_ball_label>B</div></div></div><div id = watt_peg_2><div class = watt_peg></div></div><div class = special id = watt_peg_2 onclick = ""pegClick(this.id)""><div class = ""watt_ball watt_Green""><div class = watt_ball_label>G</div></div></div><div id = watt_peg_3><div class = watt_peg></div></div><div class = special id = watt_peg_3 onclick = ""pegClick(this.id)""></div></div><div class = watt_peg_board><div class = watt_base></div><div class = watt_board_label><strong>Planche Cible</strong></div><div id = watt_peg_1><div class = watt_peg></div></div><div id = watt_peg_1 ><div class = ""watt_ball watt_Blue""><div class = watt_ball_label>B</div></div><div class = ""watt_ball watt_Green""><div class = watt_ball_label>G</div></div></div><div id = watt_peg_2><div class = watt_peg></div></div><div id = watt_peg_2 ></div><div id = watt_peg_3><div class = watt_peg></div></div><div id = watt_peg_3 ><div class = ""watt_ball watt_Red""><div class = watt_ball_label>R</div></div></div></div><div class = watt_hand_box><div class = ""watt_hand_ball watt_Red""><div class = watt_ball_label>R</div></div></div><div class = watt_hand_label><strong>Boule en main</strong></div>","89,71,82","518","3,0,0,1,0,0,2,0,0","2","3","0,0,0,1,2,3,0,0,0","3,1,0,0,0,0,2,0,0","PA_without_intermediate","3","test","","",""
"634","71","poldrack-single-stim","63","210517","0.0-11.3-0.11-0.11","sub-13-ses-03_1","","634","0","to_hand","<div class = watt_canvas><div class=""watt_vertical_line""></div></div><div class = watt_your_board><div class = watt_base></div><div class = watt_board_label><strong>Votre Planche</strong></div><div id = watt_peg_1><div class = watt_peg></div></div><div class = special id = watt_peg_1 onclick = ""pegClick(this.id)""><div class = ""watt_ball watt_Blue""><div class = watt_ball_label>B</div></div></div><div id = watt_peg_2><div class = watt_peg></div></div><div class = special id = watt_peg_2 onclick = ""pegClick(this.id)""><div class = ""watt_ball watt_Green""><div class = watt_ball_label>G</div></div></div><div id = watt_peg_3><div class = watt_peg></div></div><div class = special id = watt_peg_3 onclick = ""pegClick(this.id)""><div class = ""watt_ball watt_Red""><div class = watt_ball_label>R</div></div></div></div><div class = watt_peg_board><div class = watt_base></div><div class = watt_board_label><strong>Planche Cible</strong></div><div id = watt_peg_1><div class = watt_peg></div></div><div id = watt_peg_1 ><div class = ""watt_ball watt_Blue""><div class = watt_ball_label>B</div></div><div class = ""watt_ball watt_Green""><div class = watt_ball_label>G</div></div></div><div id = watt_peg_2><div class = watt_peg></div></div><div id = watt_peg_2 ></div><div id = watt_peg_3><div class = watt_peg></div></div><div id = watt_peg_3 ><div class = ""watt_ball watt_Red""><div class = watt_ball_label>R</div></div></div></div><div class = watt_hand_box></div><div class = watt_hand_label><strong>Boule en main</strong></div>","89,71,82","634","3,0,0,0,0,0,2,0,0","3","3","0,0,0,1,2,3,0,0,0","3,1,0,0,0,0,2,0,0","PA_without_intermediate","3","test","","",""
"402","89","poldrack-single-stim","64","210924","0.0-11.3-0.11-1.11","sub-13-ses-03_1","","402","0","to_board","<div class = watt_canvas><div class=""watt_vertical_line""></div></div><div class = watt_your_board><div class = watt_base></div><div class = watt_board_label><strong>Votre Planche</strong></div><div id = watt_peg_1><div class = watt_peg></div></div><div class = special id = watt_peg_1 onclick = ""pegClick(this.id)""><div class = ""watt_ball watt_Blue""><div class = watt_ball_label>B</div></div></div><div id = watt_peg_2><div class = watt_peg></div></div><div class = special id = watt_peg_2 onclick = ""pegClick(this.id)""></div><div id = watt_peg_3><div class = watt_peg></div></div><div class = special id = watt_peg_3 onclick = ""pegClick(this.id)""><div class = ""watt_ball watt_Red""><div class = watt_ball_label>R</div></div></div></div><div class = watt_peg_board><div class = watt_base></div><div class = watt_board_label><strong>Planche Cible</strong></div><div id = watt_peg_1><div class = watt_peg></div></div><div id = watt_peg_1 ><div class = ""watt_ball watt_Blue""><div class = watt_ball_label>B</div></div><div class = ""watt_ball watt_Green""><div class = watt_ball_label>G</div></div></div><div id = watt_peg_2><div class = watt_peg></div></div><div id = watt_peg_2 ></div><div id = watt_peg_3><div class = watt_peg></div></div><div id = watt_peg_3 ><div class = ""watt_ball watt_Red""><div class = watt_ball_label>R</div></div></div></div><div class = watt_hand_box><div class = ""watt_hand_ball watt_Green""><div class = watt_ball_label>G</div></div></div><div class = watt_hand_label><strong>Boule en main</strong></div>","89,71,82","402","3,1,0,0,0,0,2,0,0","3","3","0,0,0,1,2,3,0,0,0","3,1,0,0,0,0,2,0,0","PA_without_intermediate","3","test","","",""
