"rt","key_press","trial_type","trial_index","time_elapsed","internal_node_id","subject","text","block_duration","timing_post_trial","trial_id","responses","stimulus","possible_responses","stim_duration","correct","correct_response","feedback_duration","exp_stage","trial_num","SS_stimulus","SS_delay","SS_trial_type","SS_duration","exp_id"
"3509","13","text","0","3514","0.0-0.0","sub-12_ses-01_2","","","","","","","","","","","","","","","","","",""
"865","89","poldrack-text","1","5386","0.0-1.0","sub-12_ses-01_2","<div class = centerbox><div style = 'font-size: 50px' class = center-text>Veuillez appuyer avec votre index</p></div>","865","500","fmri_response_test","","","","","","","","","","","","","",""
"698","71","poldrack-text","2","6594","0.0-2.0","sub-12_ses-01_2","<div class = centerbox><div style = 'font-size: 50px' class = center-text>Veuillez appuyer avec votre majeur</p></div>","698","500","fmri_response_test","","","","","","","","","","","","","",""
"6258","","survey-text","3","13372","0.0-3.0","sub-12_ses-01_2","","","","task_setup","{""Q0"":""250""}","","","","","","","","","","","","",""
"10868","32","poldrack-single-stim","4","25320","0.0-4.0","sub-12_ses-01_2","","10868","0","instructions","","<div class = instructbox><p class = instruct-text><font size=""+2"">Une seule cle est correcte pour chaque forme. Ne repondez pas si vous voyez l'etoile rouge! Les cles correctes son les suivantes:</font><ul list-text><li><div class = prompt_container><img class = prompt_stim src = /static/experiments/stop_signal/images/moon.png width= ""50%"" height= ""50%""></img>Index</div></li></li><li><div class = prompt_container><img class = prompt_stim src = /static/experiments/stop_signal/images/oval.png width= ""50%"" height= ""50%""></img>Index</div></li> </li><li><div class = prompt_container><img class = prompt_stim src = /static/experiments/stop_signal/images/rectangle.png width= ""50%"" height= ""50%""></img>Majeur</div></li> </li><li><div class = prompt_container><img class = prompt_stim src = /static/experiments/stop_signal/images/trapezoid.png width= ""50%"" height= ""50%""></img>Majeur</div></li></ul></div>","32","10868","","","","","","","","","",""
"1344","71","poldrack-categorize","5","27691","0.0-5.0-0.0-0.0","sub-12_ses-01_2","","1850","250","stim","","<div class = coverbox></div><div class = shapebox><img class = stim src = /static/experiments/stop_signal/images/rectangle.png></img></div>","89,71","850","true","71","500","practice","0","","","","",""
"918","89","poldrack-categorize","6","30326","0.0-5.0-0.0-1.0","sub-12_ses-01_2","","1850","250","stim","","<div class = coverbox></div><div class = shapebox><img class = stim src = /static/experiments/stop_signal/images/moon.png></img></div>","89,71","850","true","89","500","practice","1","","","","",""
"678","71","poldrack-categorize","7","32955","0.0-5.0-0.0-2.0","sub-12_ses-01_2","","1850","250","stim","","<div class = coverbox></div><div class = shapebox><img class = stim src = /static/experiments/stop_signal/images/trapezoid.png></img></div>","89,71","850","true","71","500","practice","2","","","","",""
"604","71","poldrack-categorize","8","35585","0.0-5.0-0.0-3.0","sub-12_ses-01_2","","1850","250","stim","","<div class = coverbox></div><div class = shapebox><img class = stim src = /static/experiments/stop_signal/images/rectangle.png></img></div>","89,71","850","true","71","500","practice","3","","","","",""
"464","89","poldrack-categorize","9","38211","0.0-5.0-0.0-4.0","sub-12_ses-01_2","","1850","250","stim","","<div class = coverbox></div><div class = shapebox><img class = stim src = /static/experiments/stop_signal/images/moon.png></img></div>","89,71","850","true","89","500","practice","4","","","","",""
"525","89","poldrack-categorize","10","40841","0.0-5.0-0.0-5.0","sub-12_ses-01_2","","1850","250","stim","","<div class = coverbox></div><div class = shapebox><img class = stim src = /static/experiments/stop_signal/images/moon.png></img></div>","89,71","850","true","89","500","practice","5","","","","",""
"460","71","poldrack-categorize","11","43483","0.0-5.0-0.0-6.0","sub-12_ses-01_2","","1850","250","stim","","<div class = coverbox></div><div class = shapebox><img class = stim src = /static/experiments/stop_signal/images/rectangle.png></img></div>","89,71","850","true","71","500","practice","6","","","","",""
"486","71","poldrack-categorize","12","46111","0.0-5.0-0.0-7.0","sub-12_ses-01_2","","1850","250","stim","","<div class = coverbox></div><div class = shapebox><img class = stim src = /static/experiments/stop_signal/images/trapezoid.png></img></div>","89,71","850","true","71","500","practice","7","","","","",""
"508","71","poldrack-categorize","13","48744","0.0-5.0-0.0-8.0","sub-12_ses-01_2","","1850","250","stim","","<div class = coverbox></div><div class = shapebox><img class = stim src = /static/experiments/stop_signal/images/trapezoid.png></img></div>","89,71","850","true","71","500","practice","8","","","","",""
"613","89","poldrack-categorize","14","51382","0.0-5.0-0.0-9.0","sub-12_ses-01_2","","1850","250","stim","","<div class = coverbox></div><div class = shapebox><img class = stim src = /static/experiments/stop_signal/images/oval.png></img></div>","89,71","850","true","89","500","practice","9","","","","",""
"594","89","poldrack-categorize","15","54009","0.0-5.0-0.0-10.0","sub-12_ses-01_2","","1850","250","stim","","<div class = coverbox></div><div class = shapebox><img class = stim src = /static/experiments/stop_signal/images/oval.png></img></div>","89,71","850","true","89","500","practice","10","","","","",""
"511","89","poldrack-categorize","16","56641","0.0-5.0-0.0-11.0","sub-12_ses-01_2","","1850","250","stim","","<div class = coverbox></div><div class = shapebox><img class = stim src = /static/experiments/stop_signal/images/oval.png></img></div>","89,71","850","true","89","500","practice","11","","","","",""
"2752","32","poldrack-text","17","59661","0.0-6.0","sub-12_ses-01_2","<div class = centerbox><div  class = center-text>Scanner Setup</div></div>","2752","0","fmri_scanner_wait","","","","","","","","","","","","","",""
"55405","84","poldrack-text","18","115070","0.0-7.0","sub-12_ses-01_2","<div class = centerbox><div style='color:red'; class = center-text>+</div></div>","55405","0","fmri_trigger_wait","","","","","","","","","","","","","",""
"-1","-1","poldrack-single-stim","19","116078","0.0-8.0","sub-12_ses-01_2","","1000","0","fmri_buffer","","","none","1000","","","","","","","","","",""
"-1","-1","poldrack-single-stim","20","117585","0.0-9.0","sub-12_ses-01_2","","1500","500","test_start_block","","<div class = centerbox><div class = center-text>Preparez-vous!</p></div>","none","1500","","","","","","","","","",""
"528","89","stop-signal","21","120359","0.0-10.0-0.0","sub-12_ses-01_2","","2250","0","stim","","<div class = coverbox></div><div class = shapebox><img class = stim src = /static/experiments/stop_signal/images/moon.png></img></div>","89,71","850","true","89","","test","0","<div class = coverbox></div><div class = stopbox><div class = centered-shape id = stop-signal></div><div class = centered-shape id = stop-signal-inner></div></div>","250","stop","500",""
"956","89","stop-signal","22","123024","0.0-10.0-1.0","sub-12_ses-01_2","","2658","0","stim","","<div class = coverbox></div><div class = shapebox><img class = stim src = /static/experiments/stop_signal/images/oval.png></img></div>","89,71","850","true","89","","test","1","<div class = coverbox></div><div class = stopbox><div class = centered-shape id = stop-signal></div><div class = centered-shape id = stop-signal-inner></div></div>","200","go","500",""
"1039","71","stop-signal","23","125695","0.0-10.0-2.0","sub-12_ses-01_2","","2658","0","stim","","<div class = coverbox></div><div class = shapebox><img class = stim src = /static/experiments/stop_signal/images/trapezoid.png></img></div>","89,71","850","true","71","","test","2","<div class = coverbox></div><div class = stopbox><div class = centered-shape id = stop-signal></div><div class = centered-shape id = stop-signal-inner></div></div>","200","go","500",""
"993","71","stop-signal","24","127963","0.0-10.0-3.0","sub-12_ses-01_2","","2250","0","stim","","<div class = coverbox></div><div class = shapebox><img class = stim src = /static/experiments/stop_signal/images/trapezoid.png></img></div>","89,71","850","true","71","","test","3","<div class = coverbox></div><div class = stopbox><div class = centered-shape id = stop-signal></div><div class = centered-shape id = stop-signal-inner></div></div>","200","go","500",""
"1050","71","stop-signal","25","130225","0.0-10.0-4.0","sub-12_ses-01_2","","2250","0","stim","","<div class = coverbox></div><div class = shapebox><img class = stim src = /static/experiments/stop_signal/images/rectangle.png></img></div>","89,71","850","true","71","","test","4","<div class = coverbox></div><div class = stopbox><div class = centered-shape id = stop-signal></div><div class = centered-shape id = stop-signal-inner></div></div>","200","go","500",""
"764","89","stop-signal","26","132620","0.0-10.0-5.0","sub-12_ses-01_2","","2386","0","stim","","<div class = coverbox></div><div class = shapebox><img class = stim src = /static/experiments/stop_signal/images/oval.png></img></div>","89,71","850","true","89","","test","5","<div class = coverbox></div><div class = stopbox><div class = centered-shape id = stop-signal></div><div class = centered-shape id = stop-signal-inner></div></div>","200","go","500",""
"-1","-1","stop-signal","27","135418","0.0-10.0-6.0","sub-12_ses-01_2","","2794","0","stim","","<div class = coverbox></div><div class = shapebox><img class = stim src = /static/experiments/stop_signal/images/trapezoid.png></img></div>","89,71","850","false","71","","test","6","<div class = coverbox></div><div class = stopbox><div class = centered-shape id = stop-signal></div><div class = centered-shape id = stop-signal-inner></div></div>","200","stop","500",""
"-1","-1","stop-signal","28","137808","0.0-10.0-7.0","sub-12_ses-01_2","","2386","0","stim","","<div class = coverbox></div><div class = shapebox><img class = stim src = /static/experiments/stop_signal/images/rectangle.png></img></div>","89,71","850","false","71","","test","7","<div class = coverbox></div><div class = stopbox><div class = centered-shape id = stop-signal></div><div class = centered-shape id = stop-signal-inner></div></div>","250","stop","500",""
"-1","-1","stop-signal","29","140077","0.0-10.0-8.0","sub-12_ses-01_2","","2250","0","stim","","<div class = coverbox></div><div class = shapebox><img class = stim src = /static/experiments/stop_signal/images/trapezoid.png></img></div>","89,71","850","false","71","","test","8","<div class = coverbox></div><div class = stopbox><div class = centered-shape id = stop-signal></div><div class = centered-shape id = stop-signal-inner></div></div>","300","stop","500",""
"-1","-1","stop-signal","30","142332","0.0-10.0-9.0","sub-12_ses-01_2","","2250","0","stim","","<div class = coverbox></div><div class = shapebox><img class = stim src = /static/experiments/stop_signal/images/trapezoid.png></img></div>","89,71","850","false","71","","test","9","<div class = coverbox></div><div class = stopbox><div class = centered-shape id = stop-signal></div><div class = centered-shape id = stop-signal-inner></div></div>","350","stop","500",""
"-1","-1","stop-signal","31","144587","0.0-10.0-10.0","sub-12_ses-01_2","","2250","0","stim","","<div class = coverbox></div><div class = shapebox><img class = stim src = /static/experiments/stop_signal/images/oval.png></img></div>","89,71","850","false","89","","test","10","<div class = coverbox></div><div class = stopbox><div class = centered-shape id = stop-signal></div><div class = centered-shape id = stop-signal-inner></div></div>","400","stop","500",""
"736","89","stop-signal","32","147250","0.0-10.0-11.0","sub-12_ses-01_2","","2658","0","stim","","<div class = coverbox></div><div class = shapebox><img class = stim src = /static/experiments/stop_signal/images/oval.png></img></div>","89,71","850","true","89","","test","11","<div class = coverbox></div><div class = stopbox><div class = centered-shape id = stop-signal></div><div class = centered-shape id = stop-signal-inner></div></div>","450","go","500",""
"944","71","stop-signal","33","149917","0.0-10.0-12.0","sub-12_ses-01_2","","2658","0","stim","","<div class = coverbox></div><div class = shapebox><img class = stim src = /static/experiments/stop_signal/images/rectangle.png></img></div>","89,71","850","true","71","","test","12","<div class = coverbox></div><div class = stopbox><div class = centered-shape id = stop-signal></div><div class = centered-shape id = stop-signal-inner></div></div>","450","go","500",""
"855","89","stop-signal","34","152180","0.0-10.0-13.0","sub-12_ses-01_2","","2250","0","stim","","<div class = coverbox></div><div class = shapebox><img class = stim src = /static/experiments/stop_signal/images/moon.png></img></div>","89,71","850","true","89","","test","13","<div class = coverbox></div><div class = stopbox><div class = centered-shape id = stop-signal></div><div class = centered-shape id = stop-signal-inner></div></div>","450","go","500",""
"925","89","stop-signal","35","154709","0.0-10.0-14.0","sub-12_ses-01_2","","2522","0","stim","","<div class = coverbox></div><div class = shapebox><img class = stim src = /static/experiments/stop_signal/images/moon.png></img></div>","89,71","850","true","89","","test","14","<div class = coverbox></div><div class = stopbox><div class = centered-shape id = stop-signal></div><div class = centered-shape id = stop-signal-inner></div></div>","450","go","500",""
"895","71","stop-signal","36","156973","0.0-10.0-15.0","sub-12_ses-01_2","","2250","0","stim","","<div class = coverbox></div><div class = shapebox><img class = stim src = /static/experiments/stop_signal/images/trapezoid.png></img></div>","89,71","850","true","71","","test","15","<div class = coverbox></div><div class = stopbox><div class = centered-shape id = stop-signal></div><div class = centered-shape id = stop-signal-inner></div></div>","450","go","500",""
"-1","-1","stop-signal","37","159501","0.0-10.0-16.0","sub-12_ses-01_2","","2522","0","stim","","<div class = coverbox></div><div class = shapebox><img class = stim src = /static/experiments/stop_signal/images/rectangle.png></img></div>","89,71","850","false","71","","test","16","<div class = coverbox></div><div class = stopbox><div class = centered-shape id = stop-signal></div><div class = centered-shape id = stop-signal-inner></div></div>","450","stop","500",""
"822","71","stop-signal","38","162028","0.0-10.0-17.0","sub-12_ses-01_2","","2522","0","stim","","<div class = coverbox></div><div class = shapebox><img class = stim src = /static/experiments/stop_signal/images/trapezoid.png></img></div>","89,71","850","true","71","","test","17","<div class = coverbox></div><div class = stopbox><div class = centered-shape id = stop-signal></div><div class = centered-shape id = stop-signal-inner></div></div>","500","go","500",""
"-1","-1","stop-signal","39","164555","0.0-10.0-18.0","sub-12_ses-01_2","","2522","0","stim","","<div class = coverbox></div><div class = shapebox><img class = stim src = /static/experiments/stop_signal/images/oval.png></img></div>","89,71","850","false","89","","test","18","<div class = coverbox></div><div class = stopbox><div class = centered-shape id = stop-signal></div><div class = centered-shape id = stop-signal-inner></div></div>","500","stop","500",""
"-1","-1","stop-signal","40","166955","0.0-10.0-19.0","sub-12_ses-01_2","","2386","0","stim","","<div class = coverbox></div><div class = shapebox><img class = stim src = /static/experiments/stop_signal/images/trapezoid.png></img></div>","89,71","850","false","71","","test","19","<div class = coverbox></div><div class = stopbox><div class = centered-shape id = stop-signal></div><div class = centered-shape id = stop-signal-inner></div></div>","550","stop","500",""
"-1","-1","stop-signal","41","169484","0.0-10.0-20.0","sub-12_ses-01_2","","2522","0","stim","","<div class = coverbox></div><div class = shapebox><img class = stim src = /static/experiments/stop_signal/images/trapezoid.png></img></div>","89,71","850","false","71","","test","20","<div class = coverbox></div><div class = stopbox><div class = centered-shape id = stop-signal></div><div class = centered-shape id = stop-signal-inner></div></div>","600","stop","500",""
"874","71","stop-signal","42","172017","0.0-10.0-21.0","sub-12_ses-01_2","","2522","0","stim","","<div class = coverbox></div><div class = shapebox><img class = stim src = /static/experiments/stop_signal/images/trapezoid.png></img></div>","89,71","850","true","71","","test","21","<div class = coverbox></div><div class = stopbox><div class = centered-shape id = stop-signal></div><div class = centered-shape id = stop-signal-inner></div></div>","650","go","500",""
"991","71","stop-signal","43","174411","0.0-10.0-22.0","sub-12_ses-01_2","","2386","0","stim","","<div class = coverbox></div><div class = shapebox><img class = stim src = /static/experiments/stop_signal/images/trapezoid.png></img></div>","89,71","850","true","71","","test","22","<div class = coverbox></div><div class = stopbox><div class = centered-shape id = stop-signal></div><div class = centered-shape id = stop-signal-inner></div></div>","650","go","500",""
"949","89","stop-signal","44","176675","0.0-10.0-23.0","sub-12_ses-01_2","","2250","0","stim","","<div class = coverbox></div><div class = shapebox><img class = stim src = /static/experiments/stop_signal/images/moon.png></img></div>","89,71","850","true","89","","test","23","<div class = coverbox></div><div class = stopbox><div class = centered-shape id = stop-signal></div><div class = centered-shape id = stop-signal-inner></div></div>","650","go","500",""
"815","89","stop-signal","45","179209","0.0-10.0-24.0","sub-12_ses-01_2","","2522","0","stim","","<div class = coverbox></div><div class = shapebox><img class = stim src = /static/experiments/stop_signal/images/moon.png></img></div>","89,71","850","true","89","","test","24","<div class = coverbox></div><div class = stopbox><div class = centered-shape id = stop-signal></div><div class = centered-shape id = stop-signal-inner></div></div>","650","go","500",""
"978","89","stop-signal","46","182009","0.0-10.0-25.0","sub-12_ses-01_2","","2794","0","stim","","<div class = coverbox></div><div class = shapebox><img class = stim src = /static/experiments/stop_signal/images/moon.png></img></div>","89,71","850","true","89","","test","25","<div class = coverbox></div><div class = stopbox><div class = centered-shape id = stop-signal></div><div class = centered-shape id = stop-signal-inner></div></div>","650","go","500",""
"780","71","stop-signal","47","184536","0.0-10.0-26.0","sub-12_ses-01_2","","2522","0","stim","","<div class = coverbox></div><div class = shapebox><img class = stim src = /static/experiments/stop_signal/images/rectangle.png></img></div>","89,71","850","true","71","","test","26","<div class = coverbox></div><div class = stopbox><div class = centered-shape id = stop-signal></div><div class = centered-shape id = stop-signal-inner></div></div>","650","stop","500",""
"-1","-1","stop-signal","48","186932","0.0-10.0-27.0","sub-12_ses-01_2","","2386","0","stim","","<div class = coverbox></div><div class = shapebox><img class = stim src = /static/experiments/stop_signal/images/trapezoid.png></img></div>","89,71","850","false","71","","test","27","<div class = coverbox></div><div class = stopbox><div class = centered-shape id = stop-signal></div><div class = centered-shape id = stop-signal-inner></div></div>","600","stop","500",""
"1200","71","stop-signal","49","189185","0.0-10.0-28.0","sub-12_ses-01_2","","2250","0","stim","","<div class = coverbox></div><div class = shapebox><img class = stim src = /static/experiments/stop_signal/images/rectangle.png></img></div>","89,71","850","true","71","","test","28","<div class = coverbox></div><div class = stopbox><div class = centered-shape id = stop-signal></div><div class = centered-shape id = stop-signal-inner></div></div>","650","go","500",""
"-1","-1","stop-signal","50","191448","0.0-10.0-29.0","sub-12_ses-01_2","","2250","0","stim","","<div class = coverbox></div><div class = shapebox><img class = stim src = /static/experiments/stop_signal/images/moon.png></img></div>","89,71","850","false","89","","test","29","<div class = coverbox></div><div class = stopbox><div class = centered-shape id = stop-signal></div><div class = centered-shape id = stop-signal-inner></div></div>","650","stop","500",""
"967","71","stop-signal","51","193709","0.0-10.0-30.0","sub-12_ses-01_2","","2250","0","stim","","<div class = coverbox></div><div class = shapebox><img class = stim src = /static/experiments/stop_signal/images/trapezoid.png></img></div>","89,71","850","true","71","","test","30","<div class = coverbox></div><div class = stopbox><div class = centered-shape id = stop-signal></div><div class = centered-shape id = stop-signal-inner></div></div>","700","stop","500",""
"-1","-1","stop-signal","52","195969","0.0-10.0-31.0","sub-12_ses-01_2","","2250","0","stim","","<div class = coverbox></div><div class = shapebox><img class = stim src = /static/experiments/stop_signal/images/moon.png></img></div>","89,71","850","false","89","","test","31","<div class = coverbox></div><div class = stopbox><div class = centered-shape id = stop-signal></div><div class = centered-shape id = stop-signal-inner></div></div>","650","stop","500",""
"1056","89","stop-signal","53","198504","0.0-10.0-32.0","sub-12_ses-01_2","","2522","0","stim","","<div class = coverbox></div><div class = shapebox><img class = stim src = /static/experiments/stop_signal/images/moon.png></img></div>","89,71","850","true","89","","test","32","<div class = coverbox></div><div class = stopbox><div class = centered-shape id = stop-signal></div><div class = centered-shape id = stop-signal-inner></div></div>","700","go","500",""
"992","71","stop-signal","54","200769","0.0-10.0-33.0","sub-12_ses-01_2","","2250","0","stim","","<div class = coverbox></div><div class = shapebox><img class = stim src = /static/experiments/stop_signal/images/trapezoid.png></img></div>","89,71","850","true","71","","test","33","<div class = coverbox></div><div class = stopbox><div class = centered-shape id = stop-signal></div><div class = centered-shape id = stop-signal-inner></div></div>","700","go","500",""
"-1","-1","stop-signal","55","203035","0.0-10.0-34.0","sub-12_ses-01_2","","2250","0","stim","","<div class = coverbox></div><div class = shapebox><img class = stim src = /static/experiments/stop_signal/images/oval.png></img></div>","89,71","850","false","89","","test","34","<div class = coverbox></div><div class = stopbox><div class = centered-shape id = stop-signal></div><div class = centered-shape id = stop-signal-inner></div></div>","700","stop","500",""
"988","71","stop-signal","56","205301","0.0-10.0-35.0","sub-12_ses-01_2","","2250","0","stim","","<div class = coverbox></div><div class = shapebox><img class = stim src = /static/experiments/stop_signal/images/rectangle.png></img></div>","89,71","850","true","71","","test","35","<div class = coverbox></div><div class = stopbox><div class = centered-shape id = stop-signal></div><div class = centered-shape id = stop-signal-inner></div></div>","750","go","500",""
"1034","71","stop-signal","57","207569","0.0-10.0-36.0","sub-12_ses-01_2","","2250","0","stim","","<div class = coverbox></div><div class = shapebox><img class = stim src = /static/experiments/stop_signal/images/rectangle.png></img></div>","89,71","850","true","71","","test","36","<div class = coverbox></div><div class = stopbox><div class = centered-shape id = stop-signal></div><div class = centered-shape id = stop-signal-inner></div></div>","750","go","500",""
"949","89","stop-signal","58","209970","0.0-10.0-37.0","sub-12_ses-01_2","","2386","0","stim","","<div class = coverbox></div><div class = shapebox><img class = stim src = /static/experiments/stop_signal/images/oval.png></img></div>","89,71","850","true","89","","test","37","<div class = coverbox></div><div class = stopbox><div class = centered-shape id = stop-signal></div><div class = centered-shape id = stop-signal-inner></div></div>","750","go","500",""
"944","71","stop-signal","59","212234","0.0-10.0-38.0","sub-12_ses-01_2","","2250","0","stim","","<div class = coverbox></div><div class = shapebox><img class = stim src = /static/experiments/stop_signal/images/trapezoid.png></img></div>","89,71","850","true","71","","test","38","<div class = coverbox></div><div class = stopbox><div class = centered-shape id = stop-signal></div><div class = centered-shape id = stop-signal-inner></div></div>","750","go","500",""
"937","89","stop-signal","60","214500","0.0-10.0-39.0","sub-12_ses-01_2","","2250","0","stim","","<div class = coverbox></div><div class = shapebox><img class = stim src = /static/experiments/stop_signal/images/oval.png></img></div>","89,71","850","true","89","","test","39","<div class = coverbox></div><div class = stopbox><div class = centered-shape id = stop-signal></div><div class = centered-shape id = stop-signal-inner></div></div>","750","stop","500",""
"1287","71","stop-signal","61","216762","0.0-10.0-40.0","sub-12_ses-01_2","","2250","0","stim","","<div class = coverbox></div><div class = shapebox><img class = stim src = /static/experiments/stop_signal/images/rectangle.png></img></div>","89,71","850","true","71","","test","40","<div class = coverbox></div><div class = stopbox><div class = centered-shape id = stop-signal></div><div class = centered-shape id = stop-signal-inner></div></div>","700","go","500",""
"-1","-1","poldrack-single-stim","62","224270","0.0-11.0","sub-12_ses-01_2","","7500","1000","rest_block","","<div class = centerbox><div class = center-text>+</div></div>","none","7500","","","","","","","","","",""
"-1","-1","poldrack-single-stim","63","226779","0.0-12.0","sub-12_ses-01_2","","1500","500","test_start_block","","<div class = centerbox><div class = center-text>Preparez-vous!</p></div>","none","1500","","","","","","","","","",""
"-1","-1","stop-signal","64","229555","0.0-13.0-0.0","sub-12_ses-01_2","","2250","0","stim","","<div class = coverbox></div><div class = shapebox><img class = stim src = /static/experiments/stop_signal/images/oval.png></img></div>","89,71","850","false","89","","test","41","<div class = coverbox></div><div class = stopbox><div class = centered-shape id = stop-signal></div><div class = centered-shape id = stop-signal-inner></div></div>","700","stop","500",""
"-1","-1","stop-signal","65","232096","0.0-13.0-1.0","sub-12_ses-01_2","","2522","0","stim","","<div class = coverbox></div><div class = shapebox><img class = stim src = /static/experiments/stop_signal/images/trapezoid.png></img></div>","89,71","850","false","71","","test","42","<div class = coverbox></div><div class = stopbox><div class = centered-shape id = stop-signal></div><div class = centered-shape id = stop-signal-inner></div></div>","750","stop","500",""
"1002","89","stop-signal","66","234500","0.0-13.0-2.0","sub-12_ses-01_2","","2386","0","stim","","<div class = coverbox></div><div class = shapebox><img class = stim src = /static/experiments/stop_signal/images/moon.png></img></div>","89,71","850","true","89","","test","43","<div class = coverbox></div><div class = stopbox><div class = centered-shape id = stop-signal></div><div class = centered-shape id = stop-signal-inner></div></div>","800","go","500",""
"949","71","stop-signal","67","237027","0.0-13.0-3.0","sub-12_ses-01_2","","2522","0","stim","","<div class = coverbox></div><div class = shapebox><img class = stim src = /static/experiments/stop_signal/images/oval.png></img></div>","89,71","850","false","89","","test","44","<div class = coverbox></div><div class = stopbox><div class = centered-shape id = stop-signal></div><div class = centered-shape id = stop-signal-inner></div></div>","800","go","500",""
"-1","-1","stop-signal","68","239293","0.0-13.0-4.0","sub-12_ses-01_2","","2250","0","stim","","<div class = coverbox></div><div class = shapebox><img class = stim src = /static/experiments/stop_signal/images/moon.png></img></div>","89,71","850","false","89","","test","45","<div class = coverbox></div><div class = stopbox><div class = centered-shape id = stop-signal></div><div class = centered-shape id = stop-signal-inner></div></div>","800","stop","500",""
"1221","71","stop-signal","69","241694","0.0-13.0-5.0","sub-12_ses-01_2","","2386","0","stim","","<div class = coverbox></div><div class = shapebox><img class = stim src = /static/experiments/stop_signal/images/rectangle.png></img></div>","89,71","850","true","71","","test","46","<div class = coverbox></div><div class = stopbox><div class = centered-shape id = stop-signal></div><div class = centered-shape id = stop-signal-inner></div></div>","850","go","500",""
"1249","71","stop-signal","70","244095","0.0-13.0-6.0","sub-12_ses-01_2","","2386","0","stim","","<div class = coverbox></div><div class = shapebox><img class = stim src = /static/experiments/stop_signal/images/trapezoid.png></img></div>","89,71","850","true","71","","test","47","<div class = coverbox></div><div class = stopbox><div class = centered-shape id = stop-signal></div><div class = centered-shape id = stop-signal-inner></div></div>","850","go","500",""
"1229","71","stop-signal","71","246359","0.0-13.0-7.0","sub-12_ses-01_2","","2250","0","stim","","<div class = coverbox></div><div class = shapebox><img class = stim src = /static/experiments/stop_signal/images/trapezoid.png></img></div>","89,71","850","true","71","","test","48","<div class = coverbox></div><div class = stopbox><div class = centered-shape id = stop-signal></div><div class = centered-shape id = stop-signal-inner></div></div>","850","go","500",""
"1030","89","stop-signal","72","248749","0.0-13.0-8.0","sub-12_ses-01_2","","2386","0","stim","","<div class = coverbox></div><div class = shapebox><img class = stim src = /static/experiments/stop_signal/images/moon.png></img></div>","89,71","850","true","89","","test","49","<div class = coverbox></div><div class = stopbox><div class = centered-shape id = stop-signal></div><div class = centered-shape id = stop-signal-inner></div></div>","850","go","500",""
"1176","89","stop-signal","73","251141","0.0-13.0-9.0","sub-12_ses-01_2","","2386","0","stim","","<div class = coverbox></div><div class = shapebox><img class = stim src = /static/experiments/stop_signal/images/moon.png></img></div>","89,71","850","true","89","","test","50","<div class = coverbox></div><div class = stopbox><div class = centered-shape id = stop-signal></div><div class = centered-shape id = stop-signal-inner></div></div>","850","go","500",""
"924","71","stop-signal","74","253545","0.0-13.0-10.0","sub-12_ses-01_2","","2386","0","stim","","<div class = coverbox></div><div class = shapebox><img class = stim src = /static/experiments/stop_signal/images/rectangle.png></img></div>","89,71","850","true","71","","test","51","<div class = coverbox></div><div class = stopbox><div class = centered-shape id = stop-signal></div><div class = centered-shape id = stop-signal-inner></div></div>","850","stop","500",""
"1218","71","stop-signal","75","256206","0.0-13.0-11.0","sub-12_ses-01_2","","2658","0","stim","","<div class = coverbox></div><div class = shapebox><img class = stim src = /static/experiments/stop_signal/images/rectangle.png></img></div>","89,71","850","true","71","","test","52","<div class = coverbox></div><div class = stopbox><div class = centered-shape id = stop-signal></div><div class = centered-shape id = stop-signal-inner></div></div>","800","go","500",""
"1071","71","stop-signal","76","258743","0.0-13.0-12.0","sub-12_ses-01_2","","2522","0","stim","","<div class = coverbox></div><div class = shapebox><img class = stim src = /static/experiments/stop_signal/images/rectangle.png></img></div>","89,71","850","true","71","","test","53","<div class = coverbox></div><div class = stopbox><div class = centered-shape id = stop-signal></div><div class = centered-shape id = stop-signal-inner></div></div>","800","go","500",""
"-1","-1","stop-signal","77","261005","0.0-13.0-13.0","sub-12_ses-01_2","","2250","0","stim","","<div class = coverbox></div><div class = shapebox><img class = stim src = /static/experiments/stop_signal/images/moon.png></img></div>","89,71","850","false","89","","test","54","<div class = coverbox></div><div class = stopbox><div class = centered-shape id = stop-signal></div><div class = centered-shape id = stop-signal-inner></div></div>","800","stop","500",""
"-1","-1","stop-signal","78","263952","0.0-13.0-14.0","sub-12_ses-01_2","","2930","0","stim","","<div class = coverbox></div><div class = shapebox><img class = stim src = /static/experiments/stop_signal/images/oval.png></img></div>","89,71","850","false","89","","test","55","<div class = coverbox></div><div class = stopbox><div class = centered-shape id = stop-signal></div><div class = centered-shape id = stop-signal-inner></div></div>","850","stop","500",""
"1135","71","stop-signal","79","266217","0.0-13.0-15.0","sub-12_ses-01_2","","2250","0","stim","","<div class = coverbox></div><div class = shapebox><img class = stim src = /static/experiments/stop_signal/images/rectangle.png></img></div>","89,71","850","true","71","","test","56","<div class = coverbox></div><div class = stopbox><div class = centered-shape id = stop-signal></div><div class = centered-shape id = stop-signal-inner></div></div>","900","go","500",""
"1171","89","stop-signal","80","268745","0.0-13.0-16.0","sub-12_ses-01_2","","2522","0","stim","","<div class = coverbox></div><div class = shapebox><img class = stim src = /static/experiments/stop_signal/images/oval.png></img></div>","89,71","850","true","89","","test","57","<div class = coverbox></div><div class = stopbox><div class = centered-shape id = stop-signal></div><div class = centered-shape id = stop-signal-inner></div></div>","900","go","500",""
"1207","71","stop-signal","81","271005","0.0-13.0-17.0","sub-12_ses-01_2","","2250","0","stim","","<div class = coverbox></div><div class = shapebox><img class = stim src = /static/experiments/stop_signal/images/trapezoid.png></img></div>","89,71","850","true","71","","test","58","<div class = coverbox></div><div class = stopbox><div class = centered-shape id = stop-signal></div><div class = centered-shape id = stop-signal-inner></div></div>","900","stop","500",""
"1327","89","stop-signal","82","273264","0.0-13.0-18.0","sub-12_ses-01_2","","2250","0","stim","","<div class = coverbox></div><div class = shapebox><img class = stim src = /static/experiments/stop_signal/images/moon.png></img></div>","89,71","850","true","89","","test","59","<div class = coverbox></div><div class = stopbox><div class = centered-shape id = stop-signal></div><div class = centered-shape id = stop-signal-inner></div></div>","850","go","500",""
"1387","89","stop-signal","83","275516","0.0-13.0-19.0","sub-12_ses-01_2","","2250","0","stim","","<div class = coverbox></div><div class = shapebox><img class = stim src = /static/experiments/stop_signal/images/moon.png></img></div>","89,71","850","true","89","","test","60","<div class = coverbox></div><div class = stopbox><div class = centered-shape id = stop-signal></div><div class = centered-shape id = stop-signal-inner></div></div>","850","go","500",""
"1316","89","stop-signal","84","277774","0.0-13.0-20.0","sub-12_ses-01_2","","2250","0","stim","","<div class = coverbox></div><div class = shapebox><img class = stim src = /static/experiments/stop_signal/images/moon.png></img></div>","89,71","850","true","89","","test","61","<div class = coverbox></div><div class = stopbox><div class = centered-shape id = stop-signal></div><div class = centered-shape id = stop-signal-inner></div></div>","850","go","500",""
"1053","89","stop-signal","85","280310","0.0-13.0-21.0","sub-12_ses-01_2","","2522","0","stim","","<div class = coverbox></div><div class = shapebox><img class = stim src = /static/experiments/stop_signal/images/oval.png></img></div>","89,71","850","true","89","","test","62","<div class = coverbox></div><div class = stopbox><div class = centered-shape id = stop-signal></div><div class = centered-shape id = stop-signal-inner></div></div>","850","go","500",""
"-1","-1","stop-signal","86","283389","0.0-13.0-22.0","sub-12_ses-01_2","","3066","0","stim","","<div class = coverbox></div><div class = shapebox><img class = stim src = /static/experiments/stop_signal/images/oval.png></img></div>","89,71","850","false","89","","test","63","<div class = coverbox></div><div class = stopbox><div class = centered-shape id = stop-signal></div><div class = centered-shape id = stop-signal-inner></div></div>","850","stop","500",""
"-1","-1","stop-signal","87","285656","0.0-13.0-23.0","sub-12_ses-01_2","","2250","0","stim","","<div class = coverbox></div><div class = shapebox><img class = stim src = /static/experiments/stop_signal/images/rectangle.png></img></div>","89,71","850","false","71","","test","64","<div class = coverbox></div><div class = stopbox><div class = centered-shape id = stop-signal></div><div class = centered-shape id = stop-signal-inner></div></div>","900","stop","500",""
"1484","89","stop-signal","88","288051","0.0-13.0-24.0","sub-12_ses-01_2","","2386","0","stim","","<div class = coverbox></div><div class = shapebox><img class = stim src = /static/experiments/stop_signal/images/oval.png></img></div>","89,71","850","true","89","","test","65","<div class = coverbox></div><div class = stopbox><div class = centered-shape id = stop-signal></div><div class = centered-shape id = stop-signal-inner></div></div>","950","go","500",""
"-1","-1","stop-signal","89","290447","0.0-13.0-25.0","sub-12_ses-01_2","","2386","0","stim","","<div class = coverbox></div><div class = shapebox><img class = stim src = /static/experiments/stop_signal/images/rectangle.png></img></div>","89,71","850","false","71","","test","66","<div class = coverbox></div><div class = stopbox><div class = centered-shape id = stop-signal></div><div class = centered-shape id = stop-signal-inner></div></div>","950","stop","500",""
"1523","71","stop-signal","90","292984","0.0-13.0-26.0","sub-12_ses-01_2","","2522","0","stim","","<div class = coverbox></div><div class = shapebox><img class = stim src = /static/experiments/stop_signal/images/trapezoid.png></img></div>","89,71","850","true","71","","test","67","<div class = coverbox></div><div class = stopbox><div class = centered-shape id = stop-signal></div><div class = centered-shape id = stop-signal-inner></div></div>","1000","go","500",""
"1614","71","stop-signal","91","295386","0.0-13.0-27.0","sub-12_ses-01_2","","2386","0","stim","","<div class = coverbox></div><div class = shapebox><img class = stim src = /static/experiments/stop_signal/images/trapezoid.png></img></div>","89,71","850","true","71","","test","68","<div class = coverbox></div><div class = stopbox><div class = centered-shape id = stop-signal></div><div class = centered-shape id = stop-signal-inner></div></div>","1000","go","500",""
"1361","89","stop-signal","92","297790","0.0-13.0-28.0","sub-12_ses-01_2","","2386","0","stim","","<div class = coverbox></div><div class = shapebox><img class = stim src = /static/experiments/stop_signal/images/moon.png></img></div>","89,71","850","true","89","","test","69","<div class = coverbox></div><div class = stopbox><div class = centered-shape id = stop-signal></div><div class = centered-shape id = stop-signal-inner></div></div>","1000","go","500",""
"-1","-1","stop-signal","93","300604","0.0-13.0-29.0","sub-12_ses-01_2","","2794","0","stim","","<div class = coverbox></div><div class = shapebox><img class = stim src = /static/experiments/stop_signal/images/rectangle.png></img></div>","89,71","850","false","71","","test","70","<div class = coverbox></div><div class = stopbox><div class = centered-shape id = stop-signal></div><div class = centered-shape id = stop-signal-inner></div></div>","1000","stop","500",""
"1204","71","stop-signal","94","302994","0.0-13.0-30.0","sub-12_ses-01_2","","2386","0","stim","","<div class = coverbox></div><div class = shapebox><img class = stim src = /static/experiments/stop_signal/images/rectangle.png></img></div>","89,71","850","true","71","","test","71","<div class = coverbox></div><div class = stopbox><div class = centered-shape id = stop-signal></div><div class = centered-shape id = stop-signal-inner></div></div>","1000","go","500",""
"-1","-1","stop-signal","95","305257","0.0-13.0-31.0","sub-12_ses-01_2","","2250","0","stim","","<div class = coverbox></div><div class = shapebox><img class = stim src = /static/experiments/stop_signal/images/rectangle.png></img></div>","89,71","850","false","71","","test","72","<div class = coverbox></div><div class = stopbox><div class = centered-shape id = stop-signal></div><div class = centered-shape id = stop-signal-inner></div></div>","1000","stop","500",""
"1181","89","stop-signal","96","307791","0.0-13.0-32.0","sub-12_ses-01_2","","2522","0","stim","","<div class = coverbox></div><div class = shapebox><img class = stim src = /static/experiments/stop_signal/images/oval.png></img></div>","89,71","850","true","89","","test","73","<div class = coverbox></div><div class = stopbox><div class = centered-shape id = stop-signal></div><div class = centered-shape id = stop-signal-inner></div></div>","1000","stop","500",""
"-1","-1","stop-signal","97","310197","0.0-13.0-33.0","sub-12_ses-01_2","","2386","0","stim","","<div class = coverbox></div><div class = shapebox><img class = stim src = /static/experiments/stop_signal/images/moon.png></img></div>","89,71","850","false","89","","test","74","<div class = coverbox></div><div class = stopbox><div class = centered-shape id = stop-signal></div><div class = centered-shape id = stop-signal-inner></div></div>","950","stop","500",""
"1381","89","stop-signal","98","312590","0.0-13.0-34.0","sub-12_ses-01_2","","2386","0","stim","","<div class = coverbox></div><div class = shapebox><img class = stim src = /static/experiments/stop_signal/images/oval.png></img></div>","89,71","850","true","89","","test","75","<div class = coverbox></div><div class = stopbox><div class = centered-shape id = stop-signal></div><div class = centered-shape id = stop-signal-inner></div></div>","1000","go","500",""
"-1","-1","stop-signal","99","314854","0.0-13.0-35.0","sub-12_ses-01_2","","2250","0","stim","","<div class = coverbox></div><div class = shapebox><img class = stim src = /static/experiments/stop_signal/images/rectangle.png></img></div>","89,71","850","false","71","","test","76","<div class = coverbox></div><div class = stopbox><div class = centered-shape id = stop-signal></div><div class = centered-shape id = stop-signal-inner></div></div>","1000","stop","500",""
"1598","71","stop-signal","100","317257","0.0-13.0-36.0","sub-12_ses-01_2","","2386","0","stim","","<div class = coverbox></div><div class = shapebox><img class = stim src = /static/experiments/stop_signal/images/rectangle.png></img></div>","89,71","850","true","71","","test","77","<div class = coverbox></div><div class = stopbox><div class = centered-shape id = stop-signal></div><div class = centered-shape id = stop-signal-inner></div></div>","1000","go","500",""
"1847","71","stop-signal","101","319514","0.0-13.0-37.0","sub-12_ses-01_2","","2250","0","stim","","<div class = coverbox></div><div class = shapebox><img class = stim src = /static/experiments/stop_signal/images/rectangle.png></img></div>","89,71","850","true","71","","test","78","<div class = coverbox></div><div class = stopbox><div class = centered-shape id = stop-signal></div><div class = centered-shape id = stop-signal-inner></div></div>","1000","go","500",""
"-1","-1","stop-signal","102","321780","0.0-13.0-38.0","sub-12_ses-01_2","","2250","0","stim","","<div class = coverbox></div><div class = shapebox><img class = stim src = /static/experiments/stop_signal/images/moon.png></img></div>","89,71","850","false","89","","test","79","<div class = coverbox></div><div class = stopbox><div class = centered-shape id = stop-signal></div><div class = centered-shape id = stop-signal-inner></div></div>","1000","stop","500",""
"1506","71","stop-signal","103","324047","0.0-13.0-39.0","sub-12_ses-01_2","","2250","0","stim","","<div class = coverbox></div><div class = shapebox><img class = stim src = /static/experiments/stop_signal/images/trapezoid.png></img></div>","89,71","850","true","71","","test","80","<div class = coverbox></div><div class = stopbox><div class = centered-shape id = stop-signal></div><div class = centered-shape id = stop-signal-inner></div></div>","1000","go","500",""
"1715","89","stop-signal","104","326449","0.0-13.0-40.0","sub-12_ses-01_2","","2386","0","stim","","<div class = coverbox></div><div class = shapebox><img class = stim src = /static/experiments/stop_signal/images/oval.png></img></div>","89,71","850","true","89","","test","81","<div class = coverbox></div><div class = stopbox><div class = centered-shape id = stop-signal></div><div class = centered-shape id = stop-signal-inner></div></div>","1000","go","500",""
"-1","-1","stop-signal","105","328711","0.0-13.0-41.0","sub-12_ses-01_2","","2250","0","stim","","<div class = coverbox></div><div class = shapebox><img class = stim src = /static/experiments/stop_signal/images/rectangle.png></img></div>","89,71","850","false","71","","test","82","<div class = coverbox></div><div class = stopbox><div class = centered-shape id = stop-signal></div><div class = centered-shape id = stop-signal-inner></div></div>","1000","stop","500",""
"-1","-1","poldrack-single-stim","106","336230","0.0-14.0","sub-12_ses-01_2","","7500","1000","rest_block","","<div class = centerbox><div class = center-text>+</div></div>","none","7500","","","","","","","","","",""
"-1","-1","poldrack-single-stim","107","338747","0.0-15.0","sub-12_ses-01_2","","1500","500","test_start_block","","<div class = centerbox><div class = center-text>Preparez-vous!</p></div>","none","1500","","","","","","","","","",""
"-1","-1","stop-signal","108","341518","0.0-16.0-0.0","sub-12_ses-01_2","","2250","0","stim","","<div class = coverbox></div><div class = shapebox><img class = stim src = /static/experiments/stop_signal/images/trapezoid.png></img></div>","89,71","850","false","71","","test","83","<div class = coverbox></div><div class = stopbox><div class = centered-shape id = stop-signal></div><div class = centered-shape id = stop-signal-inner></div></div>","1000","stop","500",""
"1284","89","stop-signal","109","343922","0.0-16.0-1.0","sub-12_ses-01_2","","2386","0","stim","","<div class = coverbox></div><div class = shapebox><img class = stim src = /static/experiments/stop_signal/images/moon.png></img></div>","89,71","850","true","89","","test","84","<div class = coverbox></div><div class = stopbox><div class = centered-shape id = stop-signal></div><div class = centered-shape id = stop-signal-inner></div></div>","1000","stop","500",""
"-1","-1","stop-signal","110","346324","0.0-16.0-2.0","sub-12_ses-01_2","","2386","0","stim","","<div class = coverbox></div><div class = shapebox><img class = stim src = /static/experiments/stop_signal/images/moon.png></img></div>","89,71","850","false","89","","test","85","<div class = coverbox></div><div class = stopbox><div class = centered-shape id = stop-signal></div><div class = centered-shape id = stop-signal-inner></div></div>","950","stop","500",""
"1264","89","stop-signal","111","348590","0.0-16.0-3.0","sub-12_ses-01_2","","2250","0","stim","","<div class = coverbox></div><div class = shapebox><img class = stim src = /static/experiments/stop_signal/images/oval.png></img></div>","89,71","850","true","89","","test","86","<div class = coverbox></div><div class = stopbox><div class = centered-shape id = stop-signal></div><div class = centered-shape id = stop-signal-inner></div></div>","1000","go","500",""
"-1","-1","stop-signal","112","351121","0.0-16.0-4.0","sub-12_ses-01_2","","2522","0","stim","","<div class = coverbox></div><div class = shapebox><img class = stim src = /static/experiments/stop_signal/images/moon.png></img></div>","89,71","850","false","89","","test","87","<div class = coverbox></div><div class = stopbox><div class = centered-shape id = stop-signal></div><div class = centered-shape id = stop-signal-inner></div></div>","1000","stop","500",""
"1345","71","stop-signal","113","353376","0.0-16.0-5.0","sub-12_ses-01_2","","2250","0","stim","","<div class = coverbox></div><div class = shapebox><img class = stim src = /static/experiments/stop_signal/images/trapezoid.png></img></div>","89,71","850","true","71","","test","88","<div class = coverbox></div><div class = stopbox><div class = centered-shape id = stop-signal></div><div class = centered-shape id = stop-signal-inner></div></div>","1000","go","500",""
"1283","89","stop-signal","114","355780","0.0-16.0-6.0","sub-12_ses-01_2","","2386","0","stim","","<div class = coverbox></div><div class = shapebox><img class = stim src = /static/experiments/stop_signal/images/oval.png></img></div>","89,71","850","true","89","","test","89","<div class = coverbox></div><div class = stopbox><div class = centered-shape id = stop-signal></div><div class = centered-shape id = stop-signal-inner></div></div>","1000","go","500",""
"1369","71","stop-signal","115","358036","0.0-16.0-7.0","sub-12_ses-01_2","","2250","0","stim","","<div class = coverbox></div><div class = shapebox><img class = stim src = /static/experiments/stop_signal/images/rectangle.png></img></div>","89,71","850","true","71","","test","90","<div class = coverbox></div><div class = stopbox><div class = centered-shape id = stop-signal></div><div class = centered-shape id = stop-signal-inner></div></div>","1000","go","500",""
"-1","-1","stop-signal","116","360291","0.0-16.0-8.0","sub-12_ses-01_2","","2250","0","stim","","<div class = coverbox></div><div class = shapebox><img class = stim src = /static/experiments/stop_signal/images/trapezoid.png></img></div>","89,71","850","false","71","","test","91","<div class = coverbox></div><div class = stopbox><div class = centered-shape id = stop-signal></div><div class = centered-shape id = stop-signal-inner></div></div>","1000","stop","500",""
"1584","71","stop-signal","117","362692","0.0-16.0-9.0","sub-12_ses-01_2","","2386","0","stim","","<div class = coverbox></div><div class = shapebox><img class = stim src = /static/experiments/stop_signal/images/rectangle.png></img></div>","89,71","850","true","71","","test","92","<div class = coverbox></div><div class = stopbox><div class = centered-shape id = stop-signal></div><div class = centered-shape id = stop-signal-inner></div></div>","1000","go","500",""
"1423","89","stop-signal","118","365226","0.0-16.0-10.0","sub-12_ses-01_2","","2522","0","stim","","<div class = coverbox></div><div class = shapebox><img class = stim src = /static/experiments/stop_signal/images/moon.png></img></div>","89,71","850","true","89","","test","93","<div class = coverbox></div><div class = stopbox><div class = centered-shape id = stop-signal></div><div class = centered-shape id = stop-signal-inner></div></div>","1000","go","500",""
"1372","89","stop-signal","119","367626","0.0-16.0-11.0","sub-12_ses-01_2","","2386","0","stim","","<div class = coverbox></div><div class = shapebox><img class = stim src = /static/experiments/stop_signal/images/moon.png></img></div>","89,71","850","true","89","","test","94","<div class = coverbox></div><div class = stopbox><div class = centered-shape id = stop-signal></div><div class = centered-shape id = stop-signal-inner></div></div>","1000","go","500",""
"1246","71","stop-signal","120","370163","0.0-16.0-12.0","sub-12_ses-01_2","","2522","0","stim","","<div class = coverbox></div><div class = shapebox><img class = stim src = /static/experiments/stop_signal/images/trapezoid.png></img></div>","89,71","850","true","71","","test","95","<div class = coverbox></div><div class = stopbox><div class = centered-shape id = stop-signal></div><div class = centered-shape id = stop-signal-inner></div></div>","1000","go","500",""
"1284","89","stop-signal","121","373101","0.0-16.0-13.0","sub-12_ses-01_2","","2930","0","stim","","<div class = coverbox></div><div class = shapebox><img class = stim src = /static/experiments/stop_signal/images/oval.png></img></div>","89,71","850","true","89","","test","96","<div class = coverbox></div><div class = stopbox><div class = centered-shape id = stop-signal></div><div class = centered-shape id = stop-signal-inner></div></div>","1000","stop","500",""
"1328","89","stop-signal","122","375630","0.0-16.0-14.0","sub-12_ses-01_2","","2522","0","stim","","<div class = coverbox></div><div class = shapebox><img class = stim src = /static/experiments/stop_signal/images/moon.png></img></div>","89,71","850","true","89","","test","97","<div class = coverbox></div><div class = stopbox><div class = centered-shape id = stop-signal></div><div class = centered-shape id = stop-signal-inner></div></div>","950","go","500",""
"1326","71","stop-signal","123","378169","0.0-16.0-15.0","sub-12_ses-01_2","","2522","0","stim","","<div class = coverbox></div><div class = shapebox><img class = stim src = /static/experiments/stop_signal/images/trapezoid.png></img></div>","89,71","850","true","71","","test","98","<div class = coverbox></div><div class = stopbox><div class = centered-shape id = stop-signal></div><div class = centered-shape id = stop-signal-inner></div></div>","950","go","500",""
"1262","89","stop-signal","124","380425","0.0-16.0-16.0","sub-12_ses-01_2","","2250","0","stim","","<div class = coverbox></div><div class = shapebox><img class = stim src = /static/experiments/stop_signal/images/oval.png></img></div>","89,71","850","true","89","","test","99","<div class = coverbox></div><div class = stopbox><div class = centered-shape id = stop-signal></div><div class = centered-shape id = stop-signal-inner></div></div>","950","go","500",""
"1181","89","stop-signal","125","382960","0.0-16.0-17.0","sub-12_ses-01_2","","2522","0","stim","","<div class = coverbox></div><div class = shapebox><img class = stim src = /static/experiments/stop_signal/images/oval.png></img></div>","89,71","850","true","89","","test","100","<div class = coverbox></div><div class = stopbox><div class = centered-shape id = stop-signal></div><div class = centered-shape id = stop-signal-inner></div></div>","950","stop","500",""
"1229","89","stop-signal","126","385354","0.0-16.0-18.0","sub-12_ses-01_2","","2386","0","stim","","<div class = coverbox></div><div class = shapebox><img class = stim src = /static/experiments/stop_signal/images/oval.png></img></div>","89,71","850","true","89","","test","101","<div class = coverbox></div><div class = stopbox><div class = centered-shape id = stop-signal></div><div class = centered-shape id = stop-signal-inner></div></div>","900","go","500",""
"1053","89","stop-signal","127","387613","0.0-16.0-19.0","sub-12_ses-01_2","","2250","0","stim","","<div class = coverbox></div><div class = shapebox><img class = stim src = /static/experiments/stop_signal/images/oval.png></img></div>","89,71","850","true","89","","test","102","<div class = coverbox></div><div class = stopbox><div class = centered-shape id = stop-signal></div><div class = centered-shape id = stop-signal-inner></div></div>","900","go","500",""
"1198","71","stop-signal","128","390007","0.0-16.0-20.0","sub-12_ses-01_2","","2386","0","stim","","<div class = coverbox></div><div class = shapebox><img class = stim src = /static/experiments/stop_signal/images/rectangle.png></img></div>","89,71","850","true","71","","test","103","<div class = coverbox></div><div class = stopbox><div class = centered-shape id = stop-signal></div><div class = centered-shape id = stop-signal-inner></div></div>","900","go","500",""
"1278","71","stop-signal","129","392264","0.0-16.0-21.0","sub-12_ses-01_2","","2250","0","stim","","<div class = coverbox></div><div class = shapebox><img class = stim src = /static/experiments/stop_signal/images/rectangle.png></img></div>","89,71","850","true","71","","test","104","<div class = coverbox></div><div class = stopbox><div class = centered-shape id = stop-signal></div><div class = centered-shape id = stop-signal-inner></div></div>","900","go","500",""
"-1","-1","stop-signal","130","394665","0.0-16.0-22.0","sub-12_ses-01_2","","2386","0","stim","","<div class = coverbox></div><div class = shapebox><img class = stim src = /static/experiments/stop_signal/images/trapezoid.png></img></div>","89,71","850","false","71","","test","105","<div class = coverbox></div><div class = stopbox><div class = centered-shape id = stop-signal></div><div class = centered-shape id = stop-signal-inner></div></div>","900","stop","500",""
"1320","71","stop-signal","131","397199","0.0-16.0-23.0","sub-12_ses-01_2","","2522","0","stim","","<div class = coverbox></div><div class = shapebox><img class = stim src = /static/experiments/stop_signal/images/trapezoid.png></img></div>","89,71","850","true","71","","test","106","<div class = coverbox></div><div class = stopbox><div class = centered-shape id = stop-signal></div><div class = centered-shape id = stop-signal-inner></div></div>","950","go","500",""
"-1","-1","stop-signal","132","399465","0.0-16.0-24.0","sub-12_ses-01_2","","2250","0","stim","","<div class = coverbox></div><div class = shapebox><img class = stim src = /static/experiments/stop_signal/images/rectangle.png></img></div>","89,71","850","false","71","","test","107","<div class = coverbox></div><div class = stopbox><div class = centered-shape id = stop-signal></div><div class = centered-shape id = stop-signal-inner></div></div>","950","stop","500",""
"-1","-1","stop-signal","133","401857","0.0-16.0-25.0","sub-12_ses-01_2","","2386","0","stim","","<div class = coverbox></div><div class = shapebox><img class = stim src = /static/experiments/stop_signal/images/moon.png></img></div>","89,71","850","false","89","","test","108","<div class = coverbox></div><div class = stopbox><div class = centered-shape id = stop-signal></div><div class = centered-shape id = stop-signal-inner></div></div>","1000","stop","500",""
"1302","71","stop-signal","134","404533","0.0-16.0-26.0","sub-12_ses-01_2","","2658","0","stim","","<div class = coverbox></div><div class = shapebox><img class = stim src = /static/experiments/stop_signal/images/trapezoid.png></img></div>","89,71","850","true","71","","test","109","<div class = coverbox></div><div class = stopbox><div class = centered-shape id = stop-signal></div><div class = centered-shape id = stop-signal-inner></div></div>","1000","go","500",""
"1236","71","stop-signal","135","406796","0.0-16.0-27.0","sub-12_ses-01_2","","2250","0","stim","","<div class = coverbox></div><div class = shapebox><img class = stim src = /static/experiments/stop_signal/images/trapezoid.png></img></div>","89,71","850","true","71","","test","110","<div class = coverbox></div><div class = stopbox><div class = centered-shape id = stop-signal></div><div class = centered-shape id = stop-signal-inner></div></div>","1000","stop","500",""
"1461","71","stop-signal","136","410007","0.0-16.0-28.0","sub-12_ses-01_2","","3202","0","stim","","<div class = coverbox></div><div class = shapebox><img class = stim src = /static/experiments/stop_signal/images/rectangle.png></img></div>","89,71","850","true","71","","test","111","<div class = coverbox></div><div class = stopbox><div class = centered-shape id = stop-signal></div><div class = centered-shape id = stop-signal-inner></div></div>","950","go","500",""
"1342","89","stop-signal","137","412398","0.0-16.0-29.0","sub-12_ses-01_2","","2386","0","stim","","<div class = coverbox></div><div class = shapebox><img class = stim src = /static/experiments/stop_signal/images/oval.png></img></div>","89,71","850","true","89","","test","112","<div class = coverbox></div><div class = stopbox><div class = centered-shape id = stop-signal></div><div class = centered-shape id = stop-signal-inner></div></div>","950","go","500",""
"1370","89","stop-signal","138","414802","0.0-16.0-30.0","sub-12_ses-01_2","","2386","0","stim","","<div class = coverbox></div><div class = shapebox><img class = stim src = /static/experiments/stop_signal/images/moon.png></img></div>","89,71","850","true","89","","test","113","<div class = coverbox></div><div class = stopbox><div class = centered-shape id = stop-signal></div><div class = centered-shape id = stop-signal-inner></div></div>","950","go","500",""
"-1","-1","stop-signal","139","417328","0.0-16.0-31.0","sub-12_ses-01_2","","2522","0","stim","","<div class = coverbox></div><div class = shapebox><img class = stim src = /static/experiments/stop_signal/images/moon.png></img></div>","89,71","850","false","89","","test","114","<div class = coverbox></div><div class = stopbox><div class = centered-shape id = stop-signal></div><div class = centered-shape id = stop-signal-inner></div></div>","950","stop","500",""
"1536","71","stop-signal","140","419596","0.0-16.0-32.0","sub-12_ses-01_2","","2250","0","stim","","<div class = coverbox></div><div class = shapebox><img class = stim src = /static/experiments/stop_signal/images/oval.png></img></div>","89,71","850","false","89","","test","115","<div class = coverbox></div><div class = stopbox><div class = centered-shape id = stop-signal></div><div class = centered-shape id = stop-signal-inner></div></div>","1000","go","500",""
"-1","-1","stop-signal","141","421851","0.0-16.0-33.0","sub-12_ses-01_2","","2250","0","stim","","<div class = coverbox></div><div class = shapebox><img class = stim src = /static/experiments/stop_signal/images/oval.png></img></div>","89,71","850","false","89","","test","116","<div class = coverbox></div><div class = stopbox><div class = centered-shape id = stop-signal></div><div class = centered-shape id = stop-signal-inner></div></div>","1000","stop","500",""
"-1","-1","stop-signal","142","424110","0.0-16.0-34.0","sub-12_ses-01_2","","2250","0","stim","","<div class = coverbox></div><div class = shapebox><img class = stim src = /static/experiments/stop_signal/images/rectangle.png></img></div>","89,71","850","false","71","","test","117","<div class = coverbox></div><div class = stopbox><div class = centered-shape id = stop-signal></div><div class = centered-shape id = stop-signal-inner></div></div>","1000","stop","500",""
"1367","71","stop-signal","143","427045","0.0-16.0-35.0","sub-12_ses-01_2","","2930","0","stim","","<div class = coverbox></div><div class = shapebox><img class = stim src = /static/experiments/stop_signal/images/rectangle.png></img></div>","89,71","850","true","71","","test","118","<div class = coverbox></div><div class = stopbox><div class = centered-shape id = stop-signal></div><div class = centered-shape id = stop-signal-inner></div></div>","1000","go","500",""
"1298","89","stop-signal","144","429572","0.0-16.0-36.0","sub-12_ses-01_2","","2522","0","stim","","<div class = coverbox></div><div class = shapebox><img class = stim src = /static/experiments/stop_signal/images/moon.png></img></div>","89,71","850","true","89","","test","119","<div class = coverbox></div><div class = stopbox><div class = centered-shape id = stop-signal></div><div class = centered-shape id = stop-signal-inner></div></div>","1000","go","500",""
"1409","89","stop-signal","145","432108","0.0-16.0-37.0","sub-12_ses-01_2","","2522","0","stim","","<div class = coverbox></div><div class = shapebox><img class = stim src = /static/experiments/stop_signal/images/oval.png></img></div>","89,71","850","true","89","","test","120","<div class = coverbox></div><div class = stopbox><div class = centered-shape id = stop-signal></div><div class = centered-shape id = stop-signal-inner></div></div>","1000","go","500",""
"1353","71","stop-signal","146","434360","0.0-16.0-38.0","sub-12_ses-01_2","","2250","0","stim","","<div class = coverbox></div><div class = shapebox><img class = stim src = /static/experiments/stop_signal/images/trapezoid.png></img></div>","89,71","850","true","71","","test","121","<div class = coverbox></div><div class = stopbox><div class = centered-shape id = stop-signal></div><div class = centered-shape id = stop-signal-inner></div></div>","1000","go","500",""
"-1","-1","stop-signal","147","436897","0.0-16.0-39.0","sub-12_ses-01_2","","2522","0","stim","","<div class = coverbox></div><div class = shapebox><img class = stim src = /static/experiments/stop_signal/images/moon.png></img></div>","89,71","850","false","89","","test","122","<div class = coverbox></div><div class = stopbox><div class = centered-shape id = stop-signal></div><div class = centered-shape id = stop-signal-inner></div></div>","1000","stop","500",""
"-1","-1","stop-signal","148","439163","0.0-16.0-40.0","sub-12_ses-01_2","","2250","0","stim","","<div class = coverbox></div><div class = shapebox><img class = stim src = /static/experiments/stop_signal/images/rectangle.png></img></div>","89,71","850","false","71","","test","123","<div class = coverbox></div><div class = stopbox><div class = centered-shape id = stop-signal></div><div class = centered-shape id = stop-signal-inner></div></div>","1000","stop","500",""
"1228","89","stop-signal","149","441553","0.0-16.0-41.0","sub-12_ses-01_2","","2386","0","stim","","<div class = coverbox></div><div class = shapebox><img class = stim src = /static/experiments/stop_signal/images/oval.png></img></div>","89,71","850","true","89","","test","124","<div class = coverbox></div><div class = stopbox><div class = centered-shape id = stop-signal></div><div class = centered-shape id = stop-signal-inner></div></div>","1000","go","500",""
"10423","32","poldrack-single-stim","150","451980","0.0-17.0","sub-12_ses-01_2","","10423","0","end","","<div class = centerbox><div class = center-text><i>Fin</i></div></div>","32","10423","","","","","","","","","","stop_signal"
"1571","13","text","151","453551","0.0-18.0","sub-12_ses-01_2","","","","","","","","","","","","","","","","","",""
