"rt","key_press","trial_type","trial_index","time_elapsed","internal_node_id","subject","text","block_duration","timing_post_trial","trial_id","responses","stimulus","possible_responses","stim_duration","exp_stage","cue","stim_color","stim_number","task","task_switch","cue_switch","trial_num","correct","correct_response","feedback_duration","exp_id"
"3320","13","text","0","3327","0.0-0.0","sub-12_ses-01_1","","","","","","","","","","","","","","","","","","","",""
"1200","89","poldrack-text","1","5534","0.0-1.0","sub-12_ses-01_1","<div class = centerbox><div style = 'font-size: 50px' class = center-text>Veuillez appuyer avec votre index</p></div>","1200","500","fmri_response_test","","","","","","","","","","","","","","","",""
"790","71","poldrack-text","2","6838","0.0-2.0","sub-12_ses-01_1","<div class = centerbox><div style = 'font-size: 50px' class = center-text>Veuillez appuyer avec votre majeur</p></div>","790","500","fmri_response_test","","","","","","","","","","","","","","","",""
"26454","","survey-text","3","33822","0.0-3.0","sub-12_ses-01_1","","","","task_setup","{""Q0"":"""",""Q1"":""""}","","","","","","","","","","","","","","",""
"52813","32","poldrack-single-stim","4","87651","0.0-4.0","sub-12_ses-01_1","","52813","0","instructions","","<div class = centerbox><div class = center-text style=""font-size:40px""><strong>Couleur</strong> or <strong>Orange-Bleu</strong>: Index si orange et Majeur si bleu.<br><br><strong>Amplitude</strong> ou <strong>Haut-Bas</strong>: Index si >5 et Majeur si <5.</div></div>","32","52813","","","","","","","","","","","",""
"","","call-function","5","87652","0.0-5.0-0.0","sub-12_ses-01_1","","","","set_stims","","","","","","","","","","","","","","","",""
"-1","-1","poldrack-single-stim","6","88166","0.0-5.0-1.0","sub-12_ses-01_1","","500","0","fixation","","<div class = upperbox><div class = fixation>+</div></div><div class = lowerbox><div class = fixation>+</div></div>","none","500","practice","","","","","","","","","","",""
"-1","-1","poldrack-single-stim","7","88274","0.0-5.0-2.0","sub-12_ses-01_1","","100","0","cue","","<div class = upperbox><div class = ""center-text"" >Haut-Bas</div></div><div class = lowerbox><div class = fixation>+</div></div>","none","100","practice","Haut-Bas","#1F45FC","8","magnitude","stay","switch","0","","","",""
"1216","89","poldrack-categorize","8","90788","0.0-5.0-3.0","sub-12_ses-01_1","","2000","0","stim","","<div class = upperbox><div class = ""center-text"" >Haut-Bas</div></div><div class = lowerbox><div class = ""stim-text"" style=color:#1F45FC;>8</div>","89,71","1000","practice","Haut-Bas","#1F45FC","8","magnitude","stay","switch","0","true","89","500",""
"-1","-1","poldrack-single-stim","9","91298","0.0-5.0-4.0","sub-12_ses-01_1","","500","0","gap",""," ","none","500","practice","","","","","","","","","","",""
"","","call-function","10","91300","0.0-5.0-5.0","sub-12_ses-01_1","","","","set_stims","","","","","","","","","","","","","","","",""
"-1","-1","poldrack-single-stim","11","91806","0.0-5.0-6.0","sub-12_ses-01_1","","500","0","fixation","","<div class = upperbox><div class = fixation>+</div></div><div class = lowerbox><div class = fixation>+</div></div>","none","500","practice","","","","","","","","","","",""
"-1","-1","poldrack-single-stim","12","91914","0.0-5.0-7.0","sub-12_ses-01_1","","100","0","cue","","<div class = upperbox><div class = ""center-text"" >Couleur</div></div><div class = lowerbox><div class = fixation>+</div></div>","none","100","practice","Couleur","#1F45FC","2","color","switch","switch","1","","","",""
"1078","71","poldrack-categorize","13","94434","0.0-5.0-8.0","sub-12_ses-01_1","","2000","0","stim","","<div class = upperbox><div class = ""center-text"" >Couleur</div></div><div class = lowerbox><div class = ""stim-text"" style=color:#1F45FC;>2</div>","89,71","1000","practice","Couleur","#1F45FC","2","color","switch","switch","1","true","71","500",""
"-1","-1","poldrack-single-stim","14","94941","0.0-5.0-9.0","sub-12_ses-01_1","","500","0","gap",""," ","none","500","practice","","","","","","","","","","",""
"","","call-function","15","94942","0.0-5.0-10.0","sub-12_ses-01_1","","","","set_stims","","","","","","","","","","","","","","","",""
"-1","-1","poldrack-single-stim","16","95444","0.0-5.0-11.0","sub-12_ses-01_1","","500","0","fixation","","<div class = upperbox><div class = fixation>+</div></div><div class = lowerbox><div class = fixation>+</div></div>","none","500","practice","","","","","","","","","","",""
"-1","-1","poldrack-single-stim","17","96354","0.0-5.0-12.0","sub-12_ses-01_1","","900","0","cue","","<div class = upperbox><div class = ""center-text"" >Orange-Bleu</div></div><div class = lowerbox><div class = fixation>+</div></div>","none","900","practice","Orange-Bleu","#1F45FC","9","color","stay","switch","2","","","",""
"807","89","poldrack-categorize","18","98871","0.0-5.0-13.0","sub-12_ses-01_1","","2000","0","stim","","<div class = upperbox><div class = ""center-text"" >Orange-Bleu</div></div><div class = lowerbox><div class = ""stim-text"" style=color:#1F45FC;>9</div>","89,71","1000","practice","Orange-Bleu","#1F45FC","9","color","stay","switch","2","false","71","500",""
"-1","-1","poldrack-single-stim","19","99381","0.0-5.0-14.0","sub-12_ses-01_1","","500","0","gap",""," ","none","500","practice","","","","","","","","","","",""
"","","call-function","20","99381","0.0-5.0-15.0","sub-12_ses-01_1","","","","set_stims","","","","","","","","","","","","","","","",""
"-1","-1","poldrack-single-stim","21","99890","0.0-5.0-16.0","sub-12_ses-01_1","","500","0","fixation","","<div class = upperbox><div class = fixation>+</div></div><div class = lowerbox><div class = fixation>+</div></div>","none","500","practice","","","","","","","","","","",""
"-1","-1","poldrack-single-stim","22","99998","0.0-5.0-17.0","sub-12_ses-01_1","","100","0","cue","","<div class = upperbox><div class = ""center-text"" >Orange-Bleu</div></div><div class = lowerbox><div class = fixation>+</div></div>","none","100","practice","Orange-Bleu","#1F45FC","7","color","stay","stay","3","","","",""
"1583","71","poldrack-categorize","23","102510","0.0-5.0-18.0","sub-12_ses-01_1","","2000","0","stim","","<div class = upperbox><div class = ""center-text"" >Orange-Bleu</div></div><div class = lowerbox><div class = ""stim-text"" style=color:#1F45FC;>7</div>","89,71","1000","practice","Orange-Bleu","#1F45FC","7","color","stay","stay","3","true","71","500",""
"-1","-1","poldrack-single-stim","24","103020","0.0-5.0-19.0","sub-12_ses-01_1","","500","0","gap",""," ","none","500","practice","","","","","","","","","","",""
"","","call-function","25","103020","0.0-5.0-20.0","sub-12_ses-01_1","","","","set_stims","","","","","","","","","","","","","","","",""
"-1","-1","poldrack-single-stim","26","103528","0.0-5.0-21.0","sub-12_ses-01_1","","500","0","fixation","","<div class = upperbox><div class = fixation>+</div></div><div class = lowerbox><div class = fixation>+</div></div>","none","500","practice","","","","","","","","","","",""
"-1","-1","poldrack-single-stim","27","104438","0.0-5.0-22.0","sub-12_ses-01_1","","900","0","cue","","<div class = upperbox><div class = ""center-text"" >Orange-Bleu</div></div><div class = lowerbox><div class = fixation>+</div></div>","none","900","practice","Orange-Bleu","#1F45FC","7","color","stay","stay","4","","","",""
"832","71","poldrack-categorize","28","106954","0.0-5.0-23.0","sub-12_ses-01_1","","2000","0","stim","","<div class = upperbox><div class = ""center-text"" >Orange-Bleu</div></div><div class = lowerbox><div class = ""stim-text"" style=color:#1F45FC;>7</div>","89,71","1000","practice","Orange-Bleu","#1F45FC","7","color","stay","stay","4","true","71","500",""
"-1","-1","poldrack-single-stim","29","107466","0.0-5.0-24.0","sub-12_ses-01_1","","500","0","gap",""," ","none","500","practice","","","","","","","","","","",""
"","","call-function","30","107466","0.0-5.0-25.0","sub-12_ses-01_1","","","","set_stims","","","","","","","","","","","","","","","",""
"-1","-1","poldrack-single-stim","31","107974","0.0-5.0-26.0","sub-12_ses-01_1","","500","0","fixation","","<div class = upperbox><div class = fixation>+</div></div><div class = lowerbox><div class = fixation>+</div></div>","none","500","practice","","","","","","","","","","",""
"-1","-1","poldrack-single-stim","32","108882","0.0-5.0-27.0","sub-12_ses-01_1","","900","0","cue","","<div class = upperbox><div class = ""center-text"" >Orange-Bleu</div></div><div class = lowerbox><div class = fixation>+</div></div>","none","900","practice","Orange-Bleu","orange","6","color","stay","stay","5","","","",""
"846","89","poldrack-categorize","33","111410","0.0-5.0-28.0","sub-12_ses-01_1","","2000","0","stim","","<div class = upperbox><div class = ""center-text"" >Orange-Bleu</div></div><div class = lowerbox><div class = ""stim-text"" style=color:orange;>6</div>","89,71","1000","practice","Orange-Bleu","orange","6","color","stay","stay","5","true","89","500",""
"-1","-1","poldrack-single-stim","34","111917","0.0-5.0-29.0","sub-12_ses-01_1","","500","0","gap",""," ","none","500","practice","","","","","","","","","","",""
"","","call-function","35","111918","0.0-5.0-30.0","sub-12_ses-01_1","","","","set_stims","","","","","","","","","","","","","","","",""
"-1","-1","poldrack-single-stim","36","112425","0.0-5.0-31.0","sub-12_ses-01_1","","500","0","fixation","","<div class = upperbox><div class = fixation>+</div></div><div class = lowerbox><div class = fixation>+</div></div>","none","500","practice","","","","","","","","","","",""
"-1","-1","poldrack-single-stim","37","112533","0.0-5.0-32.0","sub-12_ses-01_1","","100","0","cue","","<div class = upperbox><div class = ""center-text"" >Haut-Bas</div></div><div class = lowerbox><div class = fixation>+</div></div>","none","100","practice","Haut-Bas","orange","8","magnitude","switch","switch","6","","","",""
"1261","89","poldrack-categorize","38","115044","0.0-5.0-33.0","sub-12_ses-01_1","","2000","0","stim","","<div class = upperbox><div class = ""center-text"" >Haut-Bas</div></div><div class = lowerbox><div class = ""stim-text"" style=color:orange;>8</div>","89,71","1000","practice","Haut-Bas","orange","8","magnitude","switch","switch","6","true","89","500",""
"-1","-1","poldrack-single-stim","39","115549","0.0-5.0-34.0","sub-12_ses-01_1","","500","0","gap",""," ","none","500","practice","","","","","","","","","","",""
"","","call-function","40","115549","0.0-5.0-35.0","sub-12_ses-01_1","","","","set_stims","","","","","","","","","","","","","","","",""
"-1","-1","poldrack-single-stim","41","116061","0.0-5.0-36.0","sub-12_ses-01_1","","500","0","fixation","","<div class = upperbox><div class = fixation>+</div></div><div class = lowerbox><div class = fixation>+</div></div>","none","500","practice","","","","","","","","","","",""
"-1","-1","poldrack-single-stim","42","116170","0.0-5.0-37.0","sub-12_ses-01_1","","100","0","cue","","<div class = upperbox><div class = ""center-text"" >Haut-Bas</div></div><div class = lowerbox><div class = fixation>+</div></div>","none","100","practice","Haut-Bas","#1F45FC","6","magnitude","stay","stay","7","","","",""
"913","89","poldrack-categorize","43","118681","0.0-5.0-38.0","sub-12_ses-01_1","","2000","0","stim","","<div class = upperbox><div class = ""center-text"" >Haut-Bas</div></div><div class = lowerbox><div class = ""stim-text"" style=color:#1F45FC;>6</div>","89,71","1000","practice","Haut-Bas","#1F45FC","6","magnitude","stay","stay","7","true","89","500",""
"-1","-1","poldrack-single-stim","44","119192","0.0-5.0-39.0","sub-12_ses-01_1","","500","0","gap",""," ","none","500","practice","","","","","","","","","","",""
"","","call-function","45","119192","0.0-5.0-40.0","sub-12_ses-01_1","","","","set_stims","","","","","","","","","","","","","","","",""
"-1","-1","poldrack-single-stim","46","119708","0.0-5.0-41.0","sub-12_ses-01_1","","500","0","fixation","","<div class = upperbox><div class = fixation>+</div></div><div class = lowerbox><div class = fixation>+</div></div>","none","500","practice","","","","","","","","","","",""
"-1","-1","poldrack-single-stim","47","119817","0.0-5.0-42.0","sub-12_ses-01_1","","100","0","cue","","<div class = upperbox><div class = ""center-text"" >Orange-Bleu</div></div><div class = lowerbox><div class = fixation>+</div></div>","none","100","practice","Orange-Bleu","#1F45FC","9","color","switch","stay","8","","","",""
"952","71","poldrack-categorize","48","122336","0.0-5.0-43.0","sub-12_ses-01_1","","2000","0","stim","","<div class = upperbox><div class = ""center-text"" >Orange-Bleu</div></div><div class = lowerbox><div class = ""stim-text"" style=color:#1F45FC;>9</div>","89,71","1000","practice","Orange-Bleu","#1F45FC","9","color","switch","stay","8","true","71","500",""
"-1","-1","poldrack-single-stim","49","122846","0.0-5.0-44.0","sub-12_ses-01_1","","500","0","gap",""," ","none","500","practice","","","","","","","","","","",""
"","","call-function","50","122846","0.0-5.0-45.0","sub-12_ses-01_1","","","","set_stims","","","","","","","","","","","","","","","",""
"-1","-1","poldrack-single-stim","51","123355","0.0-5.0-46.0","sub-12_ses-01_1","","500","0","fixation","","<div class = upperbox><div class = fixation>+</div></div><div class = lowerbox><div class = fixation>+</div></div>","none","500","practice","","","","","","","","","","",""
"-1","-1","poldrack-single-stim","52","123462","0.0-5.0-47.0","sub-12_ses-01_1","","100","0","cue","","<div class = upperbox><div class = ""center-text"" >Couleur</div></div><div class = lowerbox><div class = fixation>+</div></div>","none","100","practice","Couleur","orange","4","color","stay","switch","9","","","",""
"1523","71","poldrack-categorize","53","125979","0.0-5.0-48.0","sub-12_ses-01_1","","2000","0","stim","","<div class = upperbox><div class = ""center-text"" >Couleur</div></div><div class = lowerbox><div class = ""stim-text"" style=color:orange;>4</div>","89,71","1000","practice","Couleur","orange","4","color","stay","switch","9","false","89","500",""
"-1","-1","poldrack-single-stim","54","126486","0.0-5.0-49.0","sub-12_ses-01_1","","500","0","gap",""," ","none","500","practice","","","","","","","","","","",""
"","","call-function","55","126487","0.0-5.0-50.0","sub-12_ses-01_1","","","","set_stims","","","","","","","","","","","","","","","",""
"-1","-1","poldrack-single-stim","56","126996","0.0-5.0-51.0","sub-12_ses-01_1","","500","0","fixation","","<div class = upperbox><div class = fixation>+</div></div><div class = lowerbox><div class = fixation>+</div></div>","none","500","practice","","","","","","","","","","",""
"-1","-1","poldrack-single-stim","57","127104","0.0-5.0-52.0","sub-12_ses-01_1","","100","0","cue","","<div class = upperbox><div class = ""center-text"" >Amplitude</div></div><div class = lowerbox><div class = fixation>+</div></div>","none","100","practice","Amplitude","orange","4","magnitude","switch","stay","10","","","",""
"1344","71","poldrack-categorize","58","129624","0.0-5.0-53.0","sub-12_ses-01_1","","2000","0","stim","","<div class = upperbox><div class = ""center-text"" >Amplitude</div></div><div class = lowerbox><div class = ""stim-text"" style=color:orange;>4</div>","89,71","1000","practice","Amplitude","orange","4","magnitude","switch","stay","10","true","71","500",""
"-1","-1","poldrack-single-stim","59","130137","0.0-5.0-54.0","sub-12_ses-01_1","","500","0","gap",""," ","none","500","practice","","","","","","","","","","",""
"","","call-function","60","130138","0.0-5.0-55.0","sub-12_ses-01_1","","","","set_stims","","","","","","","","","","","","","","","",""
"-1","-1","poldrack-single-stim","61","130646","0.0-5.0-56.0","sub-12_ses-01_1","","500","0","fixation","","<div class = upperbox><div class = fixation>+</div></div><div class = lowerbox><div class = fixation>+</div></div>","none","500","practice","","","","","","","","","","",""
"-1","-1","poldrack-single-stim","62","131562","0.0-5.0-57.0","sub-12_ses-01_1","","900","0","cue","","<div class = upperbox><div class = ""center-text"" >Couleur</div></div><div class = lowerbox><div class = fixation>+</div></div>","none","900","practice","Couleur","orange","2","color","switch","stay","11","","","",""
"848","89","poldrack-categorize","63","134074","0.0-5.0-58.0","sub-12_ses-01_1","","2000","0","stim","","<div class = upperbox><div class = ""center-text"" >Couleur</div></div><div class = lowerbox><div class = ""stim-text"" style=color:orange;>2</div>","89,71","1000","practice","Couleur","orange","2","color","switch","stay","11","true","89","500",""
"-1","-1","poldrack-single-stim","64","134633","0.0-5.0-59.0","sub-12_ses-01_1","","500","0","gap",""," ","none","500","practice","","","","","","","","","","",""
"","","call-function","65","134633","0.0-5.0-60.0","sub-12_ses-01_1","","","","set_stims","","","","","","","","","","","","","","","",""
"-1","-1","poldrack-single-stim","66","135138","0.0-5.0-61.0","sub-12_ses-01_1","","500","0","fixation","","<div class = upperbox><div class = fixation>+</div></div><div class = lowerbox><div class = fixation>+</div></div>","none","500","practice","","","","","","","","","","",""
"-1","-1","poldrack-single-stim","67","136041","0.0-5.0-62.0","sub-12_ses-01_1","","900","0","cue","","<div class = upperbox><div class = ""center-text"" >Haut-Bas</div></div><div class = lowerbox><div class = fixation>+</div></div>","none","900","practice","Haut-Bas","#1F45FC","4","magnitude","switch","stay","12","","","",""
"789","71","poldrack-categorize","68","138571","0.0-5.0-63.0","sub-12_ses-01_1","","2000","0","stim","","<div class = upperbox><div class = ""center-text"" >Haut-Bas</div></div><div class = lowerbox><div class = ""stim-text"" style=color:#1F45FC;>4</div>","89,71","1000","practice","Haut-Bas","#1F45FC","4","magnitude","switch","stay","12","true","71","500",""
"-1","-1","poldrack-single-stim","69","139078","0.0-5.0-64.0","sub-12_ses-01_1","","500","0","gap",""," ","none","500","practice","","","","","","","","","","",""
"","","call-function","70","139079","0.0-5.0-65.0","sub-12_ses-01_1","","","","set_stims","","","","","","","","","","","","","","","",""
"-1","-1","poldrack-single-stim","71","139588","0.0-5.0-66.0","sub-12_ses-01_1","","500","0","fixation","","<div class = upperbox><div class = fixation>+</div></div><div class = lowerbox><div class = fixation>+</div></div>","none","500","practice","","","","","","","","","","",""
"-1","-1","poldrack-single-stim","72","140497","0.0-5.0-67.0","sub-12_ses-01_1","","900","0","cue","","<div class = upperbox><div class = ""center-text"" >Couleur</div></div><div class = lowerbox><div class = fixation>+</div></div>","none","900","practice","Couleur","orange","1","color","switch","switch","13","","","",""
"861","89","poldrack-categorize","73","143019","0.0-5.0-68.0","sub-12_ses-01_1","","2000","0","stim","","<div class = upperbox><div class = ""center-text"" >Couleur</div></div><div class = lowerbox><div class = ""stim-text"" style=color:orange;>1</div>","89,71","1000","practice","Couleur","orange","1","color","switch","switch","13","true","89","500",""
"-1","-1","poldrack-single-stim","74","143528","0.0-5.0-69.0","sub-12_ses-01_1","","500","0","gap",""," ","none","500","practice","","","","","","","","","","",""
"","","call-function","75","143528","0.0-5.0-70.0","sub-12_ses-01_1","","","","set_stims","","","","","","","","","","","","","","","",""
"-1","-1","poldrack-single-stim","76","144036","0.0-5.0-71.0","sub-12_ses-01_1","","500","0","fixation","","<div class = upperbox><div class = fixation>+</div></div><div class = lowerbox><div class = fixation>+</div></div>","none","500","practice","","","","","","","","","","",""
"-1","-1","poldrack-single-stim","77","144947","0.0-5.0-72.0","sub-12_ses-01_1","","900","0","cue","","<div class = upperbox><div class = ""center-text"" >Amplitude</div></div><div class = lowerbox><div class = fixation>+</div></div>","none","900","practice","Amplitude","orange","4","magnitude","switch","switch","14","","","",""
"787","71","poldrack-categorize","78","147465","0.0-5.0-73.0","sub-12_ses-01_1","","2000","0","stim","","<div class = upperbox><div class = ""center-text"" >Amplitude</div></div><div class = lowerbox><div class = ""stim-text"" style=color:orange;>4</div>","89,71","1000","practice","Amplitude","orange","4","magnitude","switch","switch","14","true","71","500",""
"-1","-1","poldrack-single-stim","79","147974","0.0-5.0-74.0","sub-12_ses-01_1","","500","0","gap",""," ","none","500","practice","","","","","","","","","","",""
"","","call-function","80","147974","0.0-5.0-75.0","sub-12_ses-01_1","","","","set_stims","","","","","","","","","","","","","","","",""
"-1","-1","poldrack-single-stim","81","148483","0.0-5.0-76.0","sub-12_ses-01_1","","500","0","fixation","","<div class = upperbox><div class = fixation>+</div></div><div class = lowerbox><div class = fixation>+</div></div>","none","500","practice","","","","","","","","","","",""
"-1","-1","poldrack-single-stim","82","149391","0.0-5.0-77.0","sub-12_ses-01_1","","900","0","cue","","<div class = upperbox><div class = ""center-text"" >Haut-Bas</div></div><div class = lowerbox><div class = fixation>+</div></div>","none","900","practice","Haut-Bas","orange","4","magnitude","stay","switch","15","","","",""
"626","71","poldrack-categorize","83","151913","0.0-5.0-78.0","sub-12_ses-01_1","","2000","0","stim","","<div class = upperbox><div class = ""center-text"" >Haut-Bas</div></div><div class = lowerbox><div class = ""stim-text"" style=color:orange;>4</div>","89,71","1000","practice","Haut-Bas","orange","4","magnitude","stay","switch","15","true","71","500",""
"-1","-1","poldrack-single-stim","84","152424","0.0-5.0-79.0","sub-12_ses-01_1","","500","0","gap",""," ","none","500","practice","","","","","","","","","","",""
"4578","32","poldrack-text","85","157011","0.0-6.0","sub-12_ses-01_1","<div class = centerbox><div  class = center-text>Scanner Setup</div></div>","4578","0","fmri_scanner_wait","","","","","","","","","","","","","","","",""
"55245","84","poldrack-text","86","212257","0.0-7.0","sub-12_ses-01_1","<div class = centerbox><div style='color:red'; class = center-text>+</div></div>","55245","0","fmri_trigger_wait","","","","","","","","","","","","","","","",""
"-1","-1","poldrack-single-stim","87","213271","0.0-8.0","sub-12_ses-01_1","","1000","0","fmri_buffer","","","none","1000","","","","","","","","","","","",""
"-1","-1","poldrack-single-stim","88","214788","0.0-9.0","sub-12_ses-01_1","","1500","500","test_start_block","","<div class = centerbox><div class = center-text>Preparez-vous!</p></div>","none","1500","","","","","","","","","","","",""
"-1","-1","poldrack-single-stim","89","215799","0.0-10.0","sub-12_ses-01_1","","500","0","fixation","","<div class = upperbox><div class = fixation>+</div></div><div class = lowerbox><div class = fixation>+</div></div>","none","500","test","","","","","","","","","","",""
"","","call-function","90","215800","0.0-11.0","sub-12_ses-01_1","","","","set_stims","","","","","","","","","","","","","","","",""
"-1","-1","poldrack-single-stim","91","215907","0.0-12.0","sub-12_ses-01_1","","100","0","cue","","<div class = upperbox><div class = ""center-text"" >Haut-Bas</div></div><div class = lowerbox><div class = fixation>+</div></div>","none","100","test","Haut-Bas","#1F45FC","8","magnitude","stay","stay","0","","","",""
"1060","89","poldrack-single-stim","92","219144","0.0-13.0","sub-12_ses-01_1","","3224","0","stim","","<div class = upperbox><div class = ""center-text"" >Haut-Bas</div></div><div class = lowerbox><div class = ""stim-text"" style=color:#1F45FC;>8</div>","89,71","1000","test","Haut-Bas","#1F45FC","8","magnitude","stay","stay","0","true","89","",""
"","","call-function","93","219145","0.0-14.0","sub-12_ses-01_1","","","","set_stims","","","","","","","","","","","","","","","",""
"-1","-1","poldrack-single-stim","94","220055","0.0-15.0","sub-12_ses-01_1","","900","0","cue","","<div class = upperbox><div class = ""center-text"" >Orange-Bleu</div></div><div class = lowerbox><div class = fixation>+</div></div>","none","900","test","Orange-Bleu","#1F45FC","2","color","switch","switch","1","","","",""
"814","71","poldrack-single-stim","95","222472","0.0-16.0","sub-12_ses-01_1","","2408","0","stim","","<div class = upperbox><div class = ""center-text"" >Orange-Bleu</div></div><div class = lowerbox><div class = ""stim-text"" style=color:#1F45FC;>2</div>","89,71","1000","test","Orange-Bleu","#1F45FC","2","color","switch","switch","1","true","71","",""
"","","call-function","96","222474","0.0-17.0","sub-12_ses-01_1","","","","set_stims","","","","","","","","","","","","","","","",""
"-1","-1","poldrack-single-stim","97","222581","0.0-18.0","sub-12_ses-01_1","","100","0","cue","","<div class = upperbox><div class = ""center-text"" >Amplitude</div></div><div class = lowerbox><div class = fixation>+</div></div>","none","100","test","Amplitude","#1F45FC","9","magnitude","switch","stay","2","","","",""
"1039","89","poldrack-single-stim","98","225403","0.0-19.0","sub-12_ses-01_1","","2816","0","stim","","<div class = upperbox><div class = ""center-text"" >Amplitude</div></div><div class = lowerbox><div class = ""stim-text"" style=color:#1F45FC;>9</div>","89,71","1000","test","Amplitude","#1F45FC","9","magnitude","switch","stay","2","true","89","",""
"","","call-function","99","225404","0.0-20.0","sub-12_ses-01_1","","","","set_stims","","","","","","","","","","","","","","","",""
"-1","-1","poldrack-single-stim","100","226311","0.0-21.0","sub-12_ses-01_1","","900","0","cue","","<div class = upperbox><div class = ""center-text"" >Couleur</div></div><div class = lowerbox><div class = fixation>+</div></div>","none","900","test","Couleur","#1F45FC","7","color","switch","switch","3","","","",""
"643","71","poldrack-single-stim","101","228733","0.0-22.0","sub-12_ses-01_1","","2408","0","stim","","<div class = upperbox><div class = ""center-text"" >Couleur</div></div><div class = lowerbox><div class = ""stim-text"" style=color:#1F45FC;>7</div>","89,71","1000","test","Couleur","#1F45FC","7","color","switch","switch","3","true","71","",""
"","","call-function","102","228734","0.0-23.0","sub-12_ses-01_1","","","","set_stims","","","","","","","","","","","","","","","",""
"-1","-1","poldrack-single-stim","103","228841","0.0-24.0","sub-12_ses-01_1","","100","0","cue","","<div class = upperbox><div class = ""center-text"" >Haut-Bas</div></div><div class = lowerbox><div class = fixation>+</div></div>","none","100","test","Haut-Bas","#1F45FC","7","magnitude","switch","stay","4","","","",""
"917","89","poldrack-single-stim","104","230984","0.0-25.0","sub-12_ses-01_1","","2136","0","stim","","<div class = upperbox><div class = ""center-text"" >Haut-Bas</div></div><div class = lowerbox><div class = ""stim-text"" style=color:#1F45FC;>7</div>","89,71","1000","test","Haut-Bas","#1F45FC","7","magnitude","switch","stay","4","true","89","",""
"","","call-function","105","230985","0.0-26.0","sub-12_ses-01_1","","","","set_stims","","","","","","","","","","","","","","","",""
"-1","-1","poldrack-single-stim","106","231909","0.0-27.0","sub-12_ses-01_1","","900","0","cue","","<div class = upperbox><div class = ""center-text"" >Haut-Bas</div></div><div class = lowerbox><div class = fixation>+</div></div>","none","900","test","Haut-Bas","orange","6","magnitude","stay","stay","5","","","",""
"770","89","poldrack-single-stim","107","234053","0.0-28.0","sub-12_ses-01_1","","2136","0","stim","","<div class = upperbox><div class = ""center-text"" >Haut-Bas</div></div><div class = lowerbox><div class = ""stim-text"" style=color:orange;>6</div>","89,71","1000","test","Haut-Bas","orange","6","magnitude","stay","stay","5","true","89","",""
"","","call-function","108","234054","0.0-29.0","sub-12_ses-01_1","","","","set_stims","","","","","","","","","","","","","","","",""
"-1","-1","poldrack-single-stim","109","234962","0.0-30.0","sub-12_ses-01_1","","900","0","cue","","<div class = upperbox><div class = ""center-text"" >Amplitude</div></div><div class = lowerbox><div class = fixation>+</div></div>","none","900","test","Amplitude","orange","8","magnitude","stay","switch","6","","","",""
"670","89","poldrack-single-stim","110","236968","0.0-31.0","sub-12_ses-01_1","","2000","0","stim","","<div class = upperbox><div class = ""center-text"" >Amplitude</div></div><div class = lowerbox><div class = ""stim-text"" style=color:orange;>8</div>","89,71","1000","test","Amplitude","orange","8","magnitude","stay","switch","6","true","89","",""
"","","call-function","111","236968","0.0-32.0","sub-12_ses-01_1","","","","set_stims","","","","","","","","","","","","","","","",""
"-1","-1","poldrack-single-stim","112","237076","0.0-33.0","sub-12_ses-01_1","","100","0","cue","","<div class = upperbox><div class = ""center-text"" >Haut-Bas</div></div><div class = lowerbox><div class = fixation>+</div></div>","none","100","test","Haut-Bas","#1F45FC","6","magnitude","stay","switch","7","","","",""
"987","89","poldrack-single-stim","113","239079","0.0-34.0","sub-12_ses-01_1","","2000","0","stim","","<div class = upperbox><div class = ""center-text"" >Haut-Bas</div></div><div class = lowerbox><div class = ""stim-text"" style=color:#1F45FC;>6</div>","89,71","1000","test","Haut-Bas","#1F45FC","6","magnitude","stay","switch","7","true","89","",""
"","","call-function","114","239080","0.0-35.0","sub-12_ses-01_1","","","","set_stims","","","","","","","","","","","","","","","",""
"-1","-1","poldrack-single-stim","115","239987","0.0-36.0","sub-12_ses-01_1","","900","0","cue","","<div class = upperbox><div class = ""center-text"" >Couleur</div></div><div class = lowerbox><div class = fixation>+</div></div>","none","900","test","Couleur","#1F45FC","9","color","switch","switch","8","","","",""
"665","71","poldrack-single-stim","116","242267","0.0-37.0","sub-12_ses-01_1","","2272","0","stim","","<div class = upperbox><div class = ""center-text"" >Couleur</div></div><div class = lowerbox><div class = ""stim-text"" style=color:#1F45FC;>9</div>","89,71","1000","test","Couleur","#1F45FC","9","color","switch","switch","8","true","71","",""
"","","call-function","117","242268","0.0-38.0","sub-12_ses-01_1","","","","set_stims","","","","","","","","","","","","","","","",""
"-1","-1","poldrack-single-stim","118","242375","0.0-39.0","sub-12_ses-01_1","","100","0","cue","","<div class = upperbox><div class = ""center-text"" >Haut-Bas</div></div><div class = lowerbox><div class = fixation>+</div></div>","none","100","test","Haut-Bas","orange","4","magnitude","switch","switch","9","","","",""
"1294","71","poldrack-single-stim","119","244792","0.0-40.0","sub-12_ses-01_1","","2408","0","stim","","<div class = upperbox><div class = ""center-text"" >Haut-Bas</div></div><div class = lowerbox><div class = ""stim-text"" style=color:orange;>4</div>","89,71","1000","test","Haut-Bas","orange","4","magnitude","switch","switch","9","true","71","",""
"","","call-function","120","244792","0.0-41.0","sub-12_ses-01_1","","","","set_stims","","","","","","","","","","","","","","","",""
"-1","-1","poldrack-single-stim","121","244900","0.0-42.0","sub-12_ses-01_1","","100","0","cue","","<div class = upperbox><div class = ""center-text"" >Couleur</div></div><div class = lowerbox><div class = fixation>+</div></div>","none","100","test","Couleur","orange","4","color","switch","stay","10","","","",""
"1152","89","poldrack-single-stim","122","246903","0.0-43.0","sub-12_ses-01_1","","2000","0","stim","","<div class = upperbox><div class = ""center-text"" >Couleur</div></div><div class = lowerbox><div class = ""stim-text"" style=color:orange;>4</div>","89,71","1000","test","Couleur","orange","4","color","switch","stay","10","true","89","",""
"","","call-function","123","246903","0.0-44.0","sub-12_ses-01_1","","","","set_stims","","","","","","","","","","","","","","","",""
"-1","-1","poldrack-single-stim","124","247011","0.0-45.0","sub-12_ses-01_1","","100","0","cue","","<div class = upperbox><div class = ""center-text"" >Orange-Bleu</div></div><div class = lowerbox><div class = fixation>+</div></div>","none","100","test","Orange-Bleu","orange","2","color","stay","switch","11","","","",""
"1213","89","poldrack-single-stim","125","249154","0.0-46.0","sub-12_ses-01_1","","2136","0","stim","","<div class = upperbox><div class = ""center-text"" >Orange-Bleu</div></div><div class = lowerbox><div class = ""stim-text"" style=color:orange;>2</div>","89,71","1000","test","Orange-Bleu","orange","2","color","stay","switch","11","true","89","",""
"","","call-function","126","249155","0.0-47.0","sub-12_ses-01_1","","","","set_stims","","","","","","","","","","","","","","","",""
"-1","-1","poldrack-single-stim","127","250061","0.0-48.0","sub-12_ses-01_1","","900","0","cue","","<div class = upperbox><div class = ""center-text"" >Amplitude</div></div><div class = lowerbox><div class = fixation>+</div></div>","none","900","test","Amplitude","#1F45FC","4","magnitude","switch","stay","12","","","",""
"633","71","poldrack-single-stim","128","252067","0.0-49.0","sub-12_ses-01_1","","2000","0","stim","","<div class = upperbox><div class = ""center-text"" >Amplitude</div></div><div class = lowerbox><div class = ""stim-text"" style=color:#1F45FC;>4</div>","89,71","1000","test","Amplitude","#1F45FC","4","magnitude","switch","stay","12","true","71","",""
"","","call-function","129","252068","0.0-50.0","sub-12_ses-01_1","","","","set_stims","","","","","","","","","","","","","","","",""
"-1","-1","poldrack-single-stim","130","252979","0.0-51.0","sub-12_ses-01_1","","900","0","cue","","<div class = upperbox><div class = ""center-text"" >Couleur</div></div><div class = lowerbox><div class = fixation>+</div></div>","none","900","test","Couleur","orange","1","color","switch","stay","13","","","",""
"631","89","poldrack-single-stim","131","255404","0.0-52.0","sub-12_ses-01_1","","2408","0","stim","","<div class = upperbox><div class = ""center-text"" >Couleur</div></div><div class = lowerbox><div class = ""stim-text"" style=color:orange;>1</div>","89,71","1000","test","Couleur","orange","1","color","switch","stay","13","true","89","",""
"","","call-function","132","255405","0.0-53.0","sub-12_ses-01_1","","","","set_stims","","","","","","","","","","","","","","","",""
"-1","-1","poldrack-single-stim","133","256314","0.0-54.0","sub-12_ses-01_1","","900","0","cue","","<div class = upperbox><div class = ""center-text"" >Orange-Bleu</div></div><div class = lowerbox><div class = fixation>+</div></div>","none","900","test","Orange-Bleu","orange","4","color","stay","switch","14","","","",""
"730","89","poldrack-single-stim","134","258598","0.0-55.0","sub-12_ses-01_1","","2272","0","stim","","<div class = upperbox><div class = ""center-text"" >Orange-Bleu</div></div><div class = lowerbox><div class = ""stim-text"" style=color:orange;>4</div>","89,71","1000","test","Orange-Bleu","orange","4","color","stay","switch","14","true","89","",""
"","","call-function","135","258598","0.0-56.0","sub-12_ses-01_1","","","","set_stims","","","","","","","","","","","","","","","",""
"-1","-1","poldrack-single-stim","136","259506","0.0-57.0","sub-12_ses-01_1","","900","0","cue","","<div class = upperbox><div class = ""center-text"" >Haut-Bas</div></div><div class = lowerbox><div class = fixation>+</div></div>","none","900","test","Haut-Bas","orange","4","magnitude","switch","switch","15","","","",""
"482","71","poldrack-single-stim","137","261512","0.0-58.0","sub-12_ses-01_1","","2000","0","stim","","<div class = upperbox><div class = ""center-text"" >Haut-Bas</div></div><div class = lowerbox><div class = ""stim-text"" style=color:orange;>4</div>","89,71","1000","test","Haut-Bas","orange","4","magnitude","switch","switch","15","true","71","",""
"","","call-function","138","261513","0.0-59.0","sub-12_ses-01_1","","","","set_stims","","","","","","","","","","","","","","","",""
"-1","-1","poldrack-single-stim","139","262423","0.0-60.0","sub-12_ses-01_1","","900","0","cue","","<div class = upperbox><div class = ""center-text"" >Amplitude</div></div><div class = lowerbox><div class = fixation>+</div></div>","none","900","test","Amplitude","orange","2","magnitude","stay","switch","16","","","",""
"1193","71","poldrack-single-stim","140","264708","0.0-61.0","sub-12_ses-01_1","","2272","0","stim","","<div class = upperbox><div class = ""center-text"" >Amplitude</div></div><div class = lowerbox><div class = ""stim-text"" style=color:orange;>2</div>","89,71","1000","test","Amplitude","orange","2","magnitude","stay","switch","16","true","71","",""
"","","call-function","141","264708","0.0-62.0","sub-12_ses-01_1","","","","set_stims","","","","","","","","","","","","","","","",""
"-1","-1","poldrack-single-stim","142","265617","0.0-63.0","sub-12_ses-01_1","","900","0","cue","","<div class = upperbox><div class = ""center-text"" >Orange-Bleu</div></div><div class = lowerbox><div class = fixation>+</div></div>","none","900","test","Orange-Bleu","orange","1","color","switch","switch","17","","","",""
"820","89","poldrack-single-stim","143","267626","0.0-64.0","sub-12_ses-01_1","","2000","0","stim","","<div class = upperbox><div class = ""center-text"" >Orange-Bleu</div></div><div class = lowerbox><div class = ""stim-text"" style=color:orange;>1</div>","89,71","1000","test","Orange-Bleu","orange","1","color","switch","switch","17","true","89","",""
"","","call-function","144","267627","0.0-65.0","sub-12_ses-01_1","","","","set_stims","","","","","","","","","","","","","","","",""
"-1","-1","poldrack-single-stim","145","268537","0.0-66.0","sub-12_ses-01_1","","900","0","cue","","<div class = upperbox><div class = ""center-text"" >Haut-Bas</div></div><div class = lowerbox><div class = fixation>+</div></div>","none","900","test","Haut-Bas","orange","8","magnitude","switch","stay","18","","","",""
"613","89","poldrack-single-stim","146","270550","0.0-67.0","sub-12_ses-01_1","","2000","0","stim","","<div class = upperbox><div class = ""center-text"" >Haut-Bas</div></div><div class = lowerbox><div class = ""stim-text"" style=color:orange;>8</div>","89,71","1000","test","Haut-Bas","orange","8","magnitude","switch","stay","18","true","89","",""
"","","call-function","147","270551","0.0-68.0","sub-12_ses-01_1","","","","set_stims","","","","","","","","","","","","","","","",""
"-1","-1","poldrack-single-stim","148","270657","0.0-69.0","sub-12_ses-01_1","","100","0","cue","","<div class = upperbox><div class = ""center-text"" >Haut-Bas</div></div><div class = lowerbox><div class = fixation>+</div></div>","none","100","test","Haut-Bas","#1F45FC","3","magnitude","stay","stay","19","","","",""
"974","71","poldrack-single-stim","149","272938","0.0-70.0","sub-12_ses-01_1","","2272","0","stim","","<div class = upperbox><div class = ""center-text"" >Haut-Bas</div></div><div class = lowerbox><div class = ""stim-text"" style=color:#1F45FC;>3</div>","89,71","1000","test","Haut-Bas","#1F45FC","3","magnitude","stay","stay","19","true","71","",""
"","","call-function","150","272939","0.0-71.0","sub-12_ses-01_1","","","","set_stims","","","","","","","","","","","","","","","",""
"-1","-1","poldrack-single-stim","151","273847","0.0-72.0","sub-12_ses-01_1","","900","0","cue","","<div class = upperbox><div class = ""center-text"" >Orange-Bleu</div></div><div class = lowerbox><div class = fixation>+</div></div>","none","900","test","Orange-Bleu","orange","3","color","switch","switch","20","","","",""
"553","89","poldrack-single-stim","152","275987","0.0-73.0","sub-12_ses-01_1","","2136","0","stim","","<div class = upperbox><div class = ""center-text"" >Orange-Bleu</div></div><div class = lowerbox><div class = ""stim-text"" style=color:orange;>3</div>","89,71","1000","test","Orange-Bleu","orange","3","color","switch","switch","20","true","89","",""
"","","call-function","153","275988","0.0-74.0","sub-12_ses-01_1","","","","set_stims","","","","","","","","","","","","","","","",""
"-1","-1","poldrack-single-stim","154","276894","0.0-75.0","sub-12_ses-01_1","","900","0","cue","","<div class = upperbox><div class = ""center-text"" >Haut-Bas</div></div><div class = lowerbox><div class = fixation>+</div></div>","none","900","test","Haut-Bas","orange","6","magnitude","switch","switch","21","","","",""
"528","89","poldrack-single-stim","155","278899","0.0-76.0","sub-12_ses-01_1","","2000","0","stim","","<div class = upperbox><div class = ""center-text"" >Haut-Bas</div></div><div class = lowerbox><div class = ""stim-text"" style=color:orange;>6</div>","89,71","1000","test","Haut-Bas","orange","6","magnitude","switch","switch","21","true","89","",""
"","","call-function","156","278901","0.0-77.0","sub-12_ses-01_1","","","","set_stims","","","","","","","","","","","","","","","",""
"-1","-1","poldrack-single-stim","157","279808","0.0-78.0","sub-12_ses-01_1","","900","0","cue","","<div class = upperbox><div class = ""center-text"" >Haut-Bas</div></div><div class = lowerbox><div class = fixation>+</div></div>","none","900","test","Haut-Bas","orange","4","magnitude","stay","stay","22","","","",""
"634","71","poldrack-single-stim","158","281815","0.0-79.0","sub-12_ses-01_1","","2000","0","stim","","<div class = upperbox><div class = ""center-text"" >Haut-Bas</div></div><div class = lowerbox><div class = ""stim-text"" style=color:orange;>4</div>","89,71","1000","test","Haut-Bas","orange","4","magnitude","stay","stay","22","true","71","",""
"","","call-function","159","281816","0.0-80.0","sub-12_ses-01_1","","","","set_stims","","","","","","","","","","","","","","","",""
"-1","-1","poldrack-single-stim","160","281924","0.0-81.0","sub-12_ses-01_1","","100","0","cue","","<div class = upperbox><div class = ""center-text"" >Couleur</div></div><div class = lowerbox><div class = fixation>+</div></div>","none","100","test","Couleur","#1F45FC","6","color","switch","stay","23","","","",""
"1167","89","poldrack-single-stim","161","283987","0.0-82.0","sub-12_ses-01_1","","2000","0","stim","","<div class = upperbox><div class = ""center-text"" >Couleur</div></div><div class = lowerbox><div class = ""stim-text"" style=color:#1F45FC;>6</div>","89,71","1000","test","Couleur","#1F45FC","6","color","switch","stay","23","false","71","",""
"","","call-function","162","283989","0.0-83.0","sub-12_ses-01_1","","","","set_stims","","","","","","","","","","","","","","","",""
"-1","-1","poldrack-single-stim","163","284915","0.0-84.0","sub-12_ses-01_1","","900","0","cue","","<div class = upperbox><div class = ""center-text"" >Orange-Bleu</div></div><div class = lowerbox><div class = fixation>+</div></div>","none","900","test","Orange-Bleu","#1F45FC","4","color","stay","switch","24","","","",""
"737","71","poldrack-single-stim","164","286931","0.0-85.0","sub-12_ses-01_1","","2000","0","stim","","<div class = upperbox><div class = ""center-text"" >Orange-Bleu</div></div><div class = lowerbox><div class = ""stim-text"" style=color:#1F45FC;>4</div>","89,71","1000","test","Orange-Bleu","#1F45FC","4","color","stay","switch","24","true","71","",""
"","","call-function","165","286931","0.0-86.0","sub-12_ses-01_1","","","","set_stims","","","","","","","","","","","","","","","",""
"-1","-1","poldrack-single-stim","166","287039","0.0-87.0","sub-12_ses-01_1","","100","0","cue","","<div class = upperbox><div class = ""center-text"" >Orange-Bleu</div></div><div class = lowerbox><div class = fixation>+</div></div>","none","100","test","Orange-Bleu","#1F45FC","9","color","stay","stay","25","","","",""
"1238","71","poldrack-single-stim","167","289049","0.0-88.0","sub-12_ses-01_1","","2000","0","stim","","<div class = upperbox><div class = ""center-text"" >Orange-Bleu</div></div><div class = lowerbox><div class = ""stim-text"" style=color:#1F45FC;>9</div>","89,71","1000","test","Orange-Bleu","#1F45FC","9","color","stay","stay","25","true","71","",""
"","","call-function","168","289049","0.0-89.0","sub-12_ses-01_1","","","","set_stims","","","","","","","","","","","","","","","",""
"-1","-1","poldrack-single-stim","169","289957","0.0-90.0","sub-12_ses-01_1","","900","0","cue","","<div class = upperbox><div class = ""center-text"" >Amplitude</div></div><div class = lowerbox><div class = fixation>+</div></div>","none","900","test","Amplitude","orange","2","magnitude","switch","stay","26","","","",""
"892","71","poldrack-single-stim","170","292101","0.0-91.0","sub-12_ses-01_1","","2136","0","stim","","<div class = upperbox><div class = ""center-text"" >Amplitude</div></div><div class = lowerbox><div class = ""stim-text"" style=color:orange;>2</div>","89,71","1000","test","Amplitude","orange","2","magnitude","switch","stay","26","true","71","",""
"","","call-function","171","292101","0.0-92.0","sub-12_ses-01_1","","","","set_stims","","","","","","","","","","","","","","","",""
"-1","-1","poldrack-single-stim","172","293008","0.0-93.0","sub-12_ses-01_1","","900","0","cue","","<div class = upperbox><div class = ""center-text"" >Amplitude</div></div><div class = lowerbox><div class = fixation>+</div></div>","none","900","test","Amplitude","#1F45FC","4","magnitude","stay","stay","27","","","",""
"533","71","poldrack-single-stim","173","295022","0.0-94.0","sub-12_ses-01_1","","2000","0","stim","","<div class = upperbox><div class = ""center-text"" >Amplitude</div></div><div class = lowerbox><div class = ""stim-text"" style=color:#1F45FC;>4</div>","89,71","1000","test","Amplitude","#1F45FC","4","magnitude","stay","stay","27","true","71","",""
"","","call-function","174","295023","0.0-95.0","sub-12_ses-01_1","","","","set_stims","","","","","","","","","","","","","","","",""
"-1","-1","poldrack-single-stim","175","295934","0.0-96.0","sub-12_ses-01_1","","900","0","cue","","<div class = upperbox><div class = ""center-text"" >Couleur</div></div><div class = lowerbox><div class = fixation>+</div></div>","none","900","test","Couleur","orange","2","color","switch","switch","28","","","",""
"503","89","poldrack-single-stim","176","297941","0.0-97.0","sub-12_ses-01_1","","2000","0","stim","","<div class = upperbox><div class = ""center-text"" >Couleur</div></div><div class = lowerbox><div class = ""stim-text"" style=color:orange;>2</div>","89,71","1000","test","Couleur","orange","2","color","switch","switch","28","true","89","",""
"","","call-function","177","297942","0.0-98.0","sub-12_ses-01_1","","","","set_stims","","","","","","","","","","","","","","","",""
"-1","-1","poldrack-single-stim","178","298852","0.0-99.0","sub-12_ses-01_1","","900","0","cue","","<div class = upperbox><div class = ""center-text"" >Orange-Bleu</div></div><div class = lowerbox><div class = fixation>+</div></div>","none","900","test","Orange-Bleu","orange","8","color","stay","switch","29","","","",""
"840","89","poldrack-single-stim","179","300999","0.0-100.0","sub-12_ses-01_1","","2136","0","stim","","<div class = upperbox><div class = ""center-text"" >Orange-Bleu</div></div><div class = lowerbox><div class = ""stim-text"" style=color:orange;>8</div>","89,71","1000","test","Orange-Bleu","orange","8","color","stay","switch","29","true","89","",""
"","","call-function","180","300999","0.0-101.0","sub-12_ses-01_1","","","","set_stims","","","","","","","","","","","","","","","",""
"-1","-1","poldrack-single-stim","181","301907","0.0-102.0","sub-12_ses-01_1","","900","0","cue","","<div class = upperbox><div class = ""center-text"" >Couleur</div></div><div class = lowerbox><div class = fixation>+</div></div>","none","900","test","Couleur","#1F45FC","1","color","stay","switch","30","","","",""
"557","71","poldrack-single-stim","182","303909","0.0-103.0","sub-12_ses-01_1","","2000","0","stim","","<div class = upperbox><div class = ""center-text"" >Couleur</div></div><div class = lowerbox><div class = ""stim-text"" style=color:#1F45FC;>1</div>","89,71","1000","test","Couleur","#1F45FC","1","color","stay","switch","30","true","71","",""
"","","call-function","183","303910","0.0-104.0","sub-12_ses-01_1","","","","set_stims","","","","","","","","","","","","","","","",""
"-1","-1","poldrack-single-stim","184","304017","0.0-105.0","sub-12_ses-01_1","","100","0","cue","","<div class = upperbox><div class = ""center-text"" >Amplitude</div></div><div class = lowerbox><div class = fixation>+</div></div>","none","100","test","Amplitude","orange","3","magnitude","switch","stay","31","","","",""
"1140","71","poldrack-single-stim","185","306158","0.0-106.0","sub-12_ses-01_1","","2136","0","stim","","<div class = upperbox><div class = ""center-text"" >Amplitude</div></div><div class = lowerbox><div class = ""stim-text"" style=color:orange;>3</div>","89,71","1000","test","Amplitude","orange","3","magnitude","switch","stay","31","true","71","",""
"","","call-function","186","306159","0.0-107.0","sub-12_ses-01_1","","","","set_stims","","","","","","","","","","","","","","","",""
"-1","-1","poldrack-single-stim","187","307065","0.0-108.0","sub-12_ses-01_1","","900","0","cue","","<div class = upperbox><div class = ""center-text"" >Couleur</div></div><div class = lowerbox><div class = fixation>+</div></div>","none","900","test","Couleur","#1F45FC","6","color","switch","stay","32","","","",""
"618","71","poldrack-single-stim","188","309761","0.0-109.0","sub-12_ses-01_1","","2680","0","stim","","<div class = upperbox><div class = ""center-text"" >Couleur</div></div><div class = lowerbox><div class = ""stim-text"" style=color:#1F45FC;>6</div>","89,71","1000","test","Couleur","#1F45FC","6","color","switch","stay","32","true","71","",""
"","","call-function","189","309762","0.0-110.0","sub-12_ses-01_1","","","","set_stims","","","","","","","","","","","","","","","",""
"-1","-1","poldrack-single-stim","190","309867","0.0-111.0","sub-12_ses-01_1","","100","0","cue","","<div class = upperbox><div class = ""center-text"" >Couleur</div></div><div class = lowerbox><div class = fixation>+</div></div>","none","100","test","Couleur","#1F45FC","2","color","stay","stay","33","","","",""
"816","71","poldrack-single-stim","191","312155","0.0-112.0","sub-12_ses-01_1","","2272","0","stim","","<div class = upperbox><div class = ""center-text"" >Couleur</div></div><div class = lowerbox><div class = ""stim-text"" style=color:#1F45FC;>2</div>","89,71","1000","test","Couleur","#1F45FC","2","color","stay","stay","33","true","71","",""
"","","call-function","192","312157","0.0-113.0","sub-12_ses-01_1","","","","set_stims","","","","","","","","","","","","","","","",""
"-1","-1","poldrack-single-stim","193","312263","0.0-114.0","sub-12_ses-01_1","","100","0","cue","","<div class = upperbox><div class = ""center-text"" >Couleur</div></div><div class = lowerbox><div class = fixation>+</div></div>","none","100","test","Couleur","orange","8","color","stay","stay","34","","","",""
"844","89","poldrack-single-stim","194","314402","0.0-115.0","sub-12_ses-01_1","","2136","0","stim","","<div class = upperbox><div class = ""center-text"" >Couleur</div></div><div class = lowerbox><div class = ""stim-text"" style=color:orange;>8</div>","89,71","1000","test","Couleur","orange","8","color","stay","stay","34","true","89","",""
"","","call-function","195","314403","0.0-116.0","sub-12_ses-01_1","","","","set_stims","","","","","","","","","","","","","","","",""
"-1","-1","poldrack-single-stim","196","314510","0.0-117.0","sub-12_ses-01_1","","100","0","cue","","<div class = upperbox><div class = ""center-text"" >Amplitude</div></div><div class = lowerbox><div class = fixation>+</div></div>","none","100","test","Amplitude","#1F45FC","2","magnitude","switch","switch","35","","","",""
"824","71","poldrack-single-stim","197","316526","0.0-118.0","sub-12_ses-01_1","","2000","0","stim","","<div class = upperbox><div class = ""center-text"" >Amplitude</div></div><div class = lowerbox><div class = ""stim-text"" style=color:#1F45FC;>2</div>","89,71","1000","test","Amplitude","#1F45FC","2","magnitude","switch","switch","35","true","71","",""
"","","call-function","198","316527","0.0-119.0","sub-12_ses-01_1","","","","set_stims","","","","","","","","","","","","","","","",""
"-1","-1","poldrack-single-stim","199","316634","0.0-120.0","sub-12_ses-01_1","","100","0","cue","","<div class = upperbox><div class = ""center-text"" >Orange-Bleu</div></div><div class = lowerbox><div class = fixation>+</div></div>","none","100","test","Orange-Bleu","#1F45FC","3","color","switch","stay","36","","","",""
"1244","89","poldrack-single-stim","200","318775","0.0-121.0","sub-12_ses-01_1","","2136","0","stim","","<div class = upperbox><div class = ""center-text"" >Orange-Bleu</div></div><div class = lowerbox><div class = ""stim-text"" style=color:#1F45FC;>3</div>","89,71","1000","test","Orange-Bleu","#1F45FC","3","color","switch","stay","36","false","71","",""
"","","call-function","201","318776","0.0-122.0","sub-12_ses-01_1","","","","set_stims","","","","","","","","","","","","","","","",""
"-1","-1","poldrack-single-stim","202","318883","0.0-123.0","sub-12_ses-01_1","","100","0","cue","","<div class = upperbox><div class = ""center-text"" >Haut-Bas</div></div><div class = lowerbox><div class = fixation>+</div></div>","none","100","test","Haut-Bas","orange","6","magnitude","switch","stay","37","","","",""
"1196","71","poldrack-single-stim","203","321572","0.0-124.0","sub-12_ses-01_1","","2680","0","stim","","<div class = upperbox><div class = ""center-text"" >Haut-Bas</div></div><div class = lowerbox><div class = ""stim-text"" style=color:orange;>6</div>","89,71","1000","test","Haut-Bas","orange","6","magnitude","switch","stay","37","false","89","",""
"","","call-function","204","321574","0.0-125.0","sub-12_ses-01_1","","","","set_stims","","","","","","","","","","","","","","","",""
"-1","-1","poldrack-single-stim","205","321681","0.0-126.0","sub-12_ses-01_1","","100","0","cue","","<div class = upperbox><div class = ""center-text"" >Couleur</div></div><div class = lowerbox><div class = fixation>+</div></div>","none","100","test","Couleur","orange","4","color","switch","stay","38","","","",""
"1052","89","poldrack-single-stim","206","323969","0.0-127.0","sub-12_ses-01_1","","2272","0","stim","","<div class = upperbox><div class = ""center-text"" >Couleur</div></div><div class = lowerbox><div class = ""stim-text"" style=color:orange;>4</div>","89,71","1000","test","Couleur","orange","4","color","switch","stay","38","true","89","",""
"","","call-function","207","323971","0.0-128.0","sub-12_ses-01_1","","","","set_stims","","","","","","","","","","","","","","","",""
"-1","-1","poldrack-single-stim","208","324885","0.0-129.0","sub-12_ses-01_1","","900","0","cue","","<div class = upperbox><div class = ""center-text"" >Orange-Bleu</div></div><div class = lowerbox><div class = fixation>+</div></div>","none","900","test","Orange-Bleu","#1F45FC","6","color","stay","switch","39","","","",""
"589","71","poldrack-single-stim","209","326889","0.0-130.0","sub-12_ses-01_1","","2000","0","stim","","<div class = upperbox><div class = ""center-text"" >Orange-Bleu</div></div><div class = lowerbox><div class = ""stim-text"" style=color:#1F45FC;>6</div>","89,71","1000","test","Orange-Bleu","#1F45FC","6","color","stay","switch","39","true","71","",""
"","","call-function","210","326890","0.0-131.0","sub-12_ses-01_1","","","","set_stims","","","","","","","","","","","","","","","",""
"-1","-1","poldrack-single-stim","211","326998","0.0-132.0","sub-12_ses-01_1","","100","0","cue","","<div class = upperbox><div class = ""center-text"" >Amplitude</div></div><div class = lowerbox><div class = fixation>+</div></div>","none","100","test","Amplitude","orange","7","magnitude","switch","switch","40","","","",""
"793","89","poldrack-single-stim","212","329008","0.0-133.0","sub-12_ses-01_1","","2000","0","stim","","<div class = upperbox><div class = ""center-text"" >Amplitude</div></div><div class = lowerbox><div class = ""stim-text"" style=color:orange;>7</div>","89,71","1000","test","Amplitude","orange","7","magnitude","switch","switch","40","true","89","",""
"","","call-function","213","329008","0.0-134.0","sub-12_ses-01_1","","","","set_stims","","","","","","","","","","","","","","","",""
"-1","-1","poldrack-single-stim","214","329914","0.0-135.0","sub-12_ses-01_1","","900","0","cue","","<div class = upperbox><div class = ""center-text"" >Amplitude</div></div><div class = lowerbox><div class = fixation>+</div></div>","none","900","test","Amplitude","orange","6","magnitude","stay","stay","41","","","",""
"570","89","poldrack-single-stim","215","332063","0.0-136.0","sub-12_ses-01_1","","2136","0","stim","","<div class = upperbox><div class = ""center-text"" >Amplitude</div></div><div class = lowerbox><div class = ""stim-text"" style=color:orange;>6</div>","89,71","1000","test","Amplitude","orange","6","magnitude","stay","stay","41","true","89","",""
"","","call-function","216","332064","0.0-137.0","sub-12_ses-01_1","","","","set_stims","","","","","","","","","","","","","","","",""
"-1","-1","poldrack-single-stim","217","332171","0.0-138.0","sub-12_ses-01_1","","100","0","cue","","<div class = upperbox><div class = ""center-text"" >Amplitude</div></div><div class = lowerbox><div class = fixation>+</div></div>","none","100","test","Amplitude","#1F45FC","1","magnitude","stay","stay","42","","","",""
"1045","71","poldrack-single-stim","218","334178","0.0-139.0","sub-12_ses-01_1","","2000","0","stim","","<div class = upperbox><div class = ""center-text"" >Amplitude</div></div><div class = lowerbox><div class = ""stim-text"" style=color:#1F45FC;>1</div>","89,71","1000","test","Amplitude","#1F45FC","1","magnitude","stay","stay","42","true","71","",""
"","","call-function","219","334179","0.0-140.0","sub-12_ses-01_1","","","","set_stims","","","","","","","","","","","","","","","",""
"-1","-1","poldrack-single-stim","220","335086","0.0-141.0","sub-12_ses-01_1","","900","0","cue","","<div class = upperbox><div class = ""center-text"" >Amplitude</div></div><div class = lowerbox><div class = fixation>+</div></div>","none","900","test","Amplitude","orange","9","magnitude","stay","stay","43","","","",""
"693","89","poldrack-single-stim","221","337089","0.0-142.0","sub-12_ses-01_1","","2000","0","stim","","<div class = upperbox><div class = ""center-text"" >Amplitude</div></div><div class = lowerbox><div class = ""stim-text"" style=color:orange;>9</div>","89,71","1000","test","Amplitude","orange","9","magnitude","stay","stay","43","true","89","",""
"","","call-function","222","337090","0.0-143.0","sub-12_ses-01_1","","","","set_stims","","","","","","","","","","","","","","","",""
"-1","-1","poldrack-single-stim","223","337198","0.0-144.0","sub-12_ses-01_1","","100","0","cue","","<div class = upperbox><div class = ""center-text"" >Haut-Bas</div></div><div class = lowerbox><div class = fixation>+</div></div>","none","100","test","Haut-Bas","#1F45FC","2","magnitude","stay","switch","44","","","",""
"1155","71","poldrack-single-stim","224","339213","0.0-145.0","sub-12_ses-01_1","","2000","0","stim","","<div class = upperbox><div class = ""center-text"" >Haut-Bas</div></div><div class = lowerbox><div class = ""stim-text"" style=color:#1F45FC;>2</div>","89,71","1000","test","Haut-Bas","#1F45FC","2","magnitude","stay","switch","44","true","71","",""
"","","call-function","225","339214","0.0-146.0","sub-12_ses-01_1","","","","set_stims","","","","","","","","","","","","","","","",""
"-1","-1","poldrack-single-stim","226","340121","0.0-147.0","sub-12_ses-01_1","","900","0","cue","","<div class = upperbox><div class = ""center-text"" >Couleur</div></div><div class = lowerbox><div class = fixation>+</div></div>","none","900","test","Couleur","#1F45FC","4","color","switch","stay","45","","","",""
"617","71","poldrack-single-stim","227","342401","0.0-148.0","sub-12_ses-01_1","","2272","0","stim","","<div class = upperbox><div class = ""center-text"" >Couleur</div></div><div class = lowerbox><div class = ""stim-text"" style=color:#1F45FC;>4</div>","89,71","1000","test","Couleur","#1F45FC","4","color","switch","stay","45","true","71","",""
"","","call-function","228","342402","0.0-149.0","sub-12_ses-01_1","","","","set_stims","","","","","","","","","","","","","","","",""
"-1","-1","poldrack-single-stim","229","342508","0.0-150.0","sub-12_ses-01_1","","100","0","cue","","<div class = upperbox><div class = ""center-text"" >Haut-Bas</div></div><div class = lowerbox><div class = fixation>+</div></div>","none","100","test","Haut-Bas","orange","8","magnitude","switch","switch","46","","","",""
"820","89","poldrack-single-stim","230","344926","0.0-151.0","sub-12_ses-01_1","","2408","0","stim","","<div class = upperbox><div class = ""center-text"" >Haut-Bas</div></div><div class = lowerbox><div class = ""stim-text"" style=color:orange;>8</div>","89,71","1000","test","Haut-Bas","orange","8","magnitude","switch","switch","46","true","89","",""
"","","call-function","231","344927","0.0-152.0","sub-12_ses-01_1","","","","set_stims","","","","","","","","","","","","","","","",""
"-1","-1","poldrack-single-stim","232","345033","0.0-153.0","sub-12_ses-01_1","","100","0","cue","","<div class = upperbox><div class = ""center-text"" >Haut-Bas</div></div><div class = lowerbox><div class = fixation>+</div></div>","none","100","test","Haut-Bas","orange","4","magnitude","stay","stay","47","","","",""
"778","71","poldrack-single-stim","233","347039","0.0-154.0","sub-12_ses-01_1","","2000","0","stim","","<div class = upperbox><div class = ""center-text"" >Haut-Bas</div></div><div class = lowerbox><div class = ""stim-text"" style=color:orange;>4</div>","89,71","1000","test","Haut-Bas","orange","4","magnitude","stay","stay","47","true","71","",""
"","","call-function","234","347040","0.0-155.0","sub-12_ses-01_1","","","","set_stims","","","","","","","","","","","","","","","",""
"-1","-1","poldrack-single-stim","235","347948","0.0-156.0","sub-12_ses-01_1","","900","0","cue","","<div class = upperbox><div class = ""center-text"" >Haut-Bas</div></div><div class = lowerbox><div class = fixation>+</div></div>","none","900","test","Haut-Bas","orange","4","magnitude","stay","stay","48","","","",""
"625","71","poldrack-single-stim","236","349952","0.0-157.0","sub-12_ses-01_1","","2000","0","stim","","<div class = upperbox><div class = ""center-text"" >Haut-Bas</div></div><div class = lowerbox><div class = ""stim-text"" style=color:orange;>4</div>","89,71","1000","test","Haut-Bas","orange","4","magnitude","stay","stay","48","true","71","",""
"","","call-function","237","349952","0.0-158.0","sub-12_ses-01_1","","","","set_stims","","","","","","","","","","","","","","","",""
"-1","-1","poldrack-single-stim","238","350859","0.0-159.0","sub-12_ses-01_1","","900","0","cue","","<div class = upperbox><div class = ""center-text"" >Couleur</div></div><div class = lowerbox><div class = fixation>+</div></div>","none","900","test","Couleur","#1F45FC","7","color","switch","switch","49","","","",""
"551","71","poldrack-single-stim","239","352876","0.0-160.0","sub-12_ses-01_1","","2000","0","stim","","<div class = upperbox><div class = ""center-text"" >Couleur</div></div><div class = lowerbox><div class = ""stim-text"" style=color:#1F45FC;>7</div>","89,71","1000","test","Couleur","#1F45FC","7","color","switch","switch","49","true","71","",""
"","","call-function","240","352876","0.0-161.0","sub-12_ses-01_1","","","","set_stims","","","","","","","","","","","","","","","",""
"-1","-1","poldrack-single-stim","241","352982","0.0-162.0","sub-12_ses-01_1","","100","0","cue","","<div class = upperbox><div class = ""center-text"" >Amplitude</div></div><div class = lowerbox><div class = fixation>+</div></div>","none","100","test","Amplitude","#1F45FC","3","magnitude","switch","stay","50","","","",""
"1174","71","poldrack-single-stim","242","355268","0.0-163.0","sub-12_ses-01_1","","2272","0","stim","","<div class = upperbox><div class = ""center-text"" >Amplitude</div></div><div class = lowerbox><div class = ""stim-text"" style=color:#1F45FC;>3</div>","89,71","1000","test","Amplitude","#1F45FC","3","magnitude","switch","stay","50","true","71","",""
"","","call-function","243","355269","0.0-164.0","sub-12_ses-01_1","","","","set_stims","","","","","","","","","","","","","","","",""
"-1","-1","poldrack-single-stim","244","356182","0.0-165.0","sub-12_ses-01_1","","900","0","cue","","<div class = upperbox><div class = ""center-text"" >Amplitude</div></div><div class = lowerbox><div class = fixation>+</div></div>","none","900","test","Amplitude","#1F45FC","3","magnitude","stay","stay","51","","","",""
"548","71","poldrack-single-stim","245","358326","0.0-166.0","sub-12_ses-01_1","","2136","0","stim","","<div class = upperbox><div class = ""center-text"" >Amplitude</div></div><div class = lowerbox><div class = ""stim-text"" style=color:#1F45FC;>3</div>","89,71","1000","test","Amplitude","#1F45FC","3","magnitude","stay","stay","51","true","71","",""
"","","call-function","246","358327","0.0-167.0","sub-12_ses-01_1","","","","set_stims","","","","","","","","","","","","","","","",""
"-1","-1","poldrack-single-stim","247","358434","0.0-168.0","sub-12_ses-01_1","","100","0","cue","","<div class = upperbox><div class = ""center-text"" >Orange-Bleu</div></div><div class = lowerbox><div class = fixation>+</div></div>","none","100","test","Orange-Bleu","orange","3","color","switch","stay","52","","","",""
"1113","89","poldrack-single-stim","248","360451","0.0-169.0","sub-12_ses-01_1","","2000","0","stim","","<div class = upperbox><div class = ""center-text"" >Orange-Bleu</div></div><div class = lowerbox><div class = ""stim-text"" style=color:orange;>3</div>","89,71","1000","test","Orange-Bleu","orange","3","color","switch","stay","52","true","89","",""
"","","call-function","249","360453","0.0-170.0","sub-12_ses-01_1","","","","set_stims","","","","","","","","","","","","","","","",""
"-1","-1","poldrack-single-stim","250","360560","0.0-171.0","sub-12_ses-01_1","","100","0","cue","","<div class = upperbox><div class = ""center-text"" >Couleur</div></div><div class = lowerbox><div class = fixation>+</div></div>","none","100","test","Couleur","orange","9","color","stay","switch","53","","","",""
"1240","89","poldrack-single-stim","251","363107","0.0-172.0","sub-12_ses-01_1","","2544","0","stim","","<div class = upperbox><div class = ""center-text"" >Couleur</div></div><div class = lowerbox><div class = ""stim-text"" style=color:orange;>9</div>","89,71","1000","test","Couleur","orange","9","color","stay","switch","53","true","89","",""
"","","call-function","252","363107","0.0-173.0","sub-12_ses-01_1","","","","set_stims","","","","","","","","","","","","","","","",""
"-1","-1","poldrack-single-stim","253","363215","0.0-174.0","sub-12_ses-01_1","","100","0","cue","","<div class = upperbox><div class = ""center-text"" >Amplitude</div></div><div class = lowerbox><div class = fixation>+</div></div>","none","100","test","Amplitude","orange","2","magnitude","switch","switch","54","","","",""
"1170","71","poldrack-single-stim","254","365503","0.0-175.0","sub-12_ses-01_1","","2272","0","stim","","<div class = upperbox><div class = ""center-text"" >Amplitude</div></div><div class = lowerbox><div class = ""stim-text"" style=color:orange;>2</div>","89,71","1000","test","Amplitude","orange","2","magnitude","switch","switch","54","true","71","",""
"","","call-function","255","365504","0.0-176.0","sub-12_ses-01_1","","","","set_stims","","","","","","","","","","","","","","","",""
"-1","-1","poldrack-single-stim","256","366414","0.0-177.0","sub-12_ses-01_1","","900","0","cue","","<div class = upperbox><div class = ""center-text"" >Amplitude</div></div><div class = lowerbox><div class = fixation>+</div></div>","none","900","test","Amplitude","#1F45FC","9","magnitude","stay","stay","55","","","",""
"894","89","poldrack-single-stim","257","368687","0.0-178.0","sub-12_ses-01_1","","2272","0","stim","","<div class = upperbox><div class = ""center-text"" >Amplitude</div></div><div class = lowerbox><div class = ""stim-text"" style=color:#1F45FC;>9</div>","89,71","1000","test","Amplitude","#1F45FC","9","magnitude","stay","stay","55","true","89","",""
"","","call-function","258","368688","0.0-179.0","sub-12_ses-01_1","","","","set_stims","","","","","","","","","","","","","","","",""
"-1","-1","poldrack-single-stim","259","369603","0.0-180.0","sub-12_ses-01_1","","900","0","cue","","<div class = upperbox><div class = ""center-text"" >Haut-Bas</div></div><div class = lowerbox><div class = fixation>+</div></div>","none","900","test","Haut-Bas","#1F45FC","2","magnitude","stay","switch","56","","","",""
"445","71","poldrack-single-stim","260","371610","0.0-181.0","sub-12_ses-01_1","","2000","0","stim","","<div class = upperbox><div class = ""center-text"" >Haut-Bas</div></div><div class = lowerbox><div class = ""stim-text"" style=color:#1F45FC;>2</div>","89,71","1000","test","Haut-Bas","#1F45FC","2","magnitude","stay","switch","56","true","71","",""
"","","call-function","261","371610","0.0-182.0","sub-12_ses-01_1","","","","set_stims","","","","","","","","","","","","","","","",""
"-1","-1","poldrack-single-stim","262","372525","0.0-183.0","sub-12_ses-01_1","","900","0","cue","","<div class = upperbox><div class = ""center-text"" >Haut-Bas</div></div><div class = lowerbox><div class = fixation>+</div></div>","none","900","test","Haut-Bas","#1F45FC","8","magnitude","stay","stay","57","","","",""
"567","89","poldrack-single-stim","263","374538","0.0-184.0","sub-12_ses-01_1","","2000","0","stim","","<div class = upperbox><div class = ""center-text"" >Haut-Bas</div></div><div class = lowerbox><div class = ""stim-text"" style=color:#1F45FC;>8</div>","89,71","1000","test","Haut-Bas","#1F45FC","8","magnitude","stay","stay","57","true","89","",""
"","","call-function","264","374538","0.0-185.0","sub-12_ses-01_1","","","","set_stims","","","","","","","","","","","","","","","",""
"-1","-1","poldrack-single-stim","265","375450","0.0-186.0","sub-12_ses-01_1","","900","0","cue","","<div class = upperbox><div class = ""center-text"" >Orange-Bleu</div></div><div class = lowerbox><div class = fixation>+</div></div>","none","900","test","Orange-Bleu","orange","7","color","switch","switch","58","","","",""
"710","89","poldrack-single-stim","266","377603","0.0-187.0","sub-12_ses-01_1","","2136","0","stim","","<div class = upperbox><div class = ""center-text"" >Orange-Bleu</div></div><div class = lowerbox><div class = ""stim-text"" style=color:orange;>7</div>","89,71","1000","test","Orange-Bleu","orange","7","color","switch","switch","58","true","89","",""
"","","call-function","267","377605","0.0-188.0","sub-12_ses-01_1","","","","set_stims","","","","","","","","","","","","","","","",""
"-1","-1","poldrack-single-stim","268","377711","0.0-189.0","sub-12_ses-01_1","","100","0","cue","","<div class = upperbox><div class = ""center-text"" >Haut-Bas</div></div><div class = lowerbox><div class = fixation>+</div></div>","none","100","test","Haut-Bas","#1F45FC","2","magnitude","switch","stay","59","","","",""
"1030","71","poldrack-single-stim","269","379726","0.0-190.0","sub-12_ses-01_1","","2000","0","stim","","<div class = upperbox><div class = ""center-text"" >Haut-Bas</div></div><div class = lowerbox><div class = ""stim-text"" style=color:#1F45FC;>2</div>","89,71","1000","test","Haut-Bas","#1F45FC","2","magnitude","switch","stay","59","true","71","",""
"","","call-function","270","379728","0.0-191.0","sub-12_ses-01_1","","","","set_stims","","","","","","","","","","","","","","","",""
"-1","-1","poldrack-single-stim","271","380639","0.0-192.0","sub-12_ses-01_1","","900","0","cue","","<div class = upperbox><div class = ""center-text"" >Amplitude</div></div><div class = lowerbox><div class = fixation>+</div></div>","none","900","test","Amplitude","#1F45FC","4","magnitude","stay","switch","60","","","",""
"981","71","poldrack-single-stim","272","382783","0.0-193.0","sub-12_ses-01_1","","2136","0","stim","","<div class = upperbox><div class = ""center-text"" >Amplitude</div></div><div class = lowerbox><div class = ""stim-text"" style=color:#1F45FC;>4</div>","89,71","1000","test","Amplitude","#1F45FC","4","magnitude","stay","switch","60","true","71","",""
"","","call-function","273","382784","0.0-194.0","sub-12_ses-01_1","","","","set_stims","","","","","","","","","","","","","","","",""
"-1","-1","poldrack-single-stim","274","383697","0.0-195.0","sub-12_ses-01_1","","900","0","cue","","<div class = upperbox><div class = ""center-text"" >Couleur</div></div><div class = lowerbox><div class = fixation>+</div></div>","none","900","test","Couleur","#1F45FC","9","color","switch","stay","61","","","",""
"713","71","poldrack-single-stim","275","385982","0.0-196.0","sub-12_ses-01_1","","2272","0","stim","","<div class = upperbox><div class = ""center-text"" >Couleur</div></div><div class = lowerbox><div class = ""stim-text"" style=color:#1F45FC;>9</div>","89,71","1000","test","Couleur","#1F45FC","9","color","switch","stay","61","true","71","",""
"","","call-function","276","385983","0.0-197.0","sub-12_ses-01_1","","","","set_stims","","","","","","","","","","","","","","","",""
"-1","-1","poldrack-single-stim","277","386890","0.0-198.0","sub-12_ses-01_1","","900","0","cue","","<div class = upperbox><div class = ""center-text"" >Amplitude</div></div><div class = lowerbox><div class = fixation>+</div></div>","none","900","test","Amplitude","#1F45FC","8","magnitude","switch","switch","62","","","",""
"551","89","poldrack-single-stim","278","389031","0.0-199.0","sub-12_ses-01_1","","2136","0","stim","","<div class = upperbox><div class = ""center-text"" >Amplitude</div></div><div class = lowerbox><div class = ""stim-text"" style=color:#1F45FC;>8</div>","89,71","1000","test","Amplitude","#1F45FC","8","magnitude","switch","switch","62","true","89","",""
"","","call-function","279","389032","0.0-200.0","sub-12_ses-01_1","","","","set_stims","","","","","","","","","","","","","","","",""
"-1","-1","poldrack-single-stim","280","389139","0.0-201.0","sub-12_ses-01_1","","100","0","cue","","<div class = upperbox><div class = ""center-text"" >Amplitude</div></div><div class = lowerbox><div class = fixation>+</div></div>","none","100","test","Amplitude","#1F45FC","3","magnitude","stay","stay","63","","","",""
"1206","71","poldrack-single-stim","281","391417","0.0-202.0","sub-12_ses-01_1","","2272","0","stim","","<div class = upperbox><div class = ""center-text"" >Amplitude</div></div><div class = lowerbox><div class = ""stim-text"" style=color:#1F45FC;>3</div>","89,71","1000","test","Amplitude","#1F45FC","3","magnitude","stay","stay","63","true","71","",""
"","","call-function","282","391418","0.0-203.0","sub-12_ses-01_1","","","","set_stims","","","","","","","","","","","","","","","",""
"-1","-1","poldrack-single-stim","283","391526","0.0-204.0","sub-12_ses-01_1","","100","0","cue","","<div class = upperbox><div class = ""center-text"" >Orange-Bleu</div></div><div class = lowerbox><div class = fixation>+</div></div>","none","100","test","Orange-Bleu","#1F45FC","8","color","switch","stay","64","","","",""
"1432","89","poldrack-single-stim","284","393532","0.0-205.0","sub-12_ses-01_1","","2000","0","stim","","<div class = upperbox><div class = ""center-text"" >Orange-Bleu</div></div><div class = lowerbox><div class = ""stim-text"" style=color:#1F45FC;>8</div>","89,71","1000","test","Orange-Bleu","#1F45FC","8","color","switch","stay","64","false","71","",""
"","","call-function","285","393533","0.0-206.0","sub-12_ses-01_1","","","","set_stims","","","","","","","","","","","","","","","",""
"-1","-1","poldrack-single-stim","286","394449","0.0-207.0","sub-12_ses-01_1","","900","0","cue","","<div class = upperbox><div class = ""center-text"" >Orange-Bleu</div></div><div class = lowerbox><div class = fixation>+</div></div>","none","900","test","Orange-Bleu","#1F45FC","8","color","stay","stay","65","","","",""
"901","71","poldrack-single-stim","287","397276","0.0-208.0","sub-12_ses-01_1","","2816","0","stim","","<div class = upperbox><div class = ""center-text"" >Orange-Bleu</div></div><div class = lowerbox><div class = ""stim-text"" style=color:#1F45FC;>8</div>","89,71","1000","test","Orange-Bleu","#1F45FC","8","color","stay","stay","65","true","71","",""
"","","call-function","288","397277","0.0-209.0","sub-12_ses-01_1","","","","set_stims","","","","","","","","","","","","","","","",""
"-1","-1","poldrack-single-stim","289","397384","0.0-210.0","sub-12_ses-01_1","","100","0","cue","","<div class = upperbox><div class = ""center-text"" >Couleur</div></div><div class = lowerbox><div class = fixation>+</div></div>","none","100","test","Couleur","#1F45FC","7","color","stay","switch","66","","","",""
"1026","71","poldrack-single-stim","290","399807","0.0-211.0","sub-12_ses-01_1","","2408","0","stim","","<div class = upperbox><div class = ""center-text"" >Couleur</div></div><div class = lowerbox><div class = ""stim-text"" style=color:#1F45FC;>7</div>","89,71","1000","test","Couleur","#1F45FC","7","color","stay","switch","66","true","71","",""
"","","call-function","291","399807","0.0-212.0","sub-12_ses-01_1","","","","set_stims","","","","","","","","","","","","","","","",""
"-1","-1","poldrack-single-stim","292","399914","0.0-213.0","sub-12_ses-01_1","","100","0","cue","","<div class = upperbox><div class = ""center-text"" >Couleur</div></div><div class = lowerbox><div class = fixation>+</div></div>","none","100","test","Couleur","orange","9","color","stay","stay","67","","","",""
"1008","89","poldrack-single-stim","293","401930","0.0-214.0","sub-12_ses-01_1","","2000","0","stim","","<div class = upperbox><div class = ""center-text"" >Couleur</div></div><div class = lowerbox><div class = ""stim-text"" style=color:orange;>9</div>","89,71","1000","test","Couleur","orange","9","color","stay","stay","67","true","89","",""
"","","call-function","294","401930","0.0-215.0","sub-12_ses-01_1","","","","set_stims","","","","","","","","","","","","","","","",""
"-1","-1","poldrack-single-stim","295","402848","0.0-216.0","sub-12_ses-01_1","","900","0","cue","","<div class = upperbox><div class = ""center-text"" >Couleur</div></div><div class = lowerbox><div class = fixation>+</div></div>","none","900","test","Couleur","#1F45FC","1","color","stay","stay","68","","","",""
"969","71","poldrack-single-stim","296","405407","0.0-217.0","sub-12_ses-01_1","","2544","0","stim","","<div class = upperbox><div class = ""center-text"" >Couleur</div></div><div class = lowerbox><div class = ""stim-text"" style=color:#1F45FC;>1</div>","89,71","1000","test","Couleur","#1F45FC","1","color","stay","stay","68","true","71","",""
"","","call-function","297","405408","0.0-218.0","sub-12_ses-01_1","","","","set_stims","","","","","","","","","","","","","","","",""
"-1","-1","poldrack-single-stim","298","405515","0.0-219.0","sub-12_ses-01_1","","100","0","cue","","<div class = upperbox><div class = ""center-text"" >Amplitude</div></div><div class = lowerbox><div class = fixation>+</div></div>","none","100","test","Amplitude","#1F45FC","1","magnitude","switch","stay","69","","","",""
"896","71","poldrack-single-stim","299","407667","0.0-220.0","sub-12_ses-01_1","","2136","0","stim","","<div class = upperbox><div class = ""center-text"" >Amplitude</div></div><div class = lowerbox><div class = ""stim-text"" style=color:#1F45FC;>1</div>","89,71","1000","test","Amplitude","#1F45FC","1","magnitude","switch","stay","69","true","71","",""
"","","call-function","300","407667","0.0-221.0","sub-12_ses-01_1","","","","set_stims","","","","","","","","","","","","","","","",""
"-1","-1","poldrack-single-stim","301","408576","0.0-222.0","sub-12_ses-01_1","","900","0","cue","","<div class = upperbox><div class = ""center-text"" >Couleur</div></div><div class = lowerbox><div class = fixation>+</div></div>","none","900","test","Couleur","#1F45FC","9","color","switch","switch","70","","","",""
"766","89","poldrack-single-stim","302","410593","0.0-223.0","sub-12_ses-01_1","","2000","0","stim","","<div class = upperbox><div class = ""center-text"" >Couleur</div></div><div class = lowerbox><div class = ""stim-text"" style=color:#1F45FC;>9</div>","89,71","1000","test","Couleur","#1F45FC","9","color","switch","switch","70","false","71","",""
"","","call-function","303","410594","0.0-224.0","sub-12_ses-01_1","","","","set_stims","","","","","","","","","","","","","","","",""
"-1","-1","poldrack-single-stim","304","411502","0.0-225.0","sub-12_ses-01_1","","900","0","cue","","<div class = upperbox><div class = ""center-text"" >Couleur</div></div><div class = lowerbox><div class = fixation>+</div></div>","none","900","test","Couleur","orange","7","color","stay","stay","71","","","",""
"619","89","poldrack-single-stim","305","413509","0.0-226.0","sub-12_ses-01_1","","2000","0","stim","","<div class = upperbox><div class = ""center-text"" >Couleur</div></div><div class = lowerbox><div class = ""stim-text"" style=color:orange;>7</div>","89,71","1000","test","Couleur","orange","7","color","stay","stay","71","true","89","",""
"","","call-function","306","413510","0.0-227.0","sub-12_ses-01_1","","","","set_stims","","","","","","","","","","","","","","","",""
"-1","-1","poldrack-single-stim","307","414420","0.0-228.0","sub-12_ses-01_1","","900","0","cue","","<div class = upperbox><div class = ""center-text"" >Orange-Bleu</div></div><div class = lowerbox><div class = fixation>+</div></div>","none","900","test","Orange-Bleu","orange","7","color","stay","switch","72","","","",""
"1034","89","poldrack-single-stim","308","416562","0.0-229.0","sub-12_ses-01_1","","2136","0","stim","","<div class = upperbox><div class = ""center-text"" >Orange-Bleu</div></div><div class = lowerbox><div class = ""stim-text"" style=color:orange;>7</div>","89,71","1000","test","Orange-Bleu","orange","7","color","stay","switch","72","true","89","",""
"","","call-function","309","416564","0.0-230.0","sub-12_ses-01_1","","","","set_stims","","","","","","","","","","","","","","","",""
"-1","-1","poldrack-single-stim","310","417474","0.0-231.0","sub-12_ses-01_1","","900","0","cue","","<div class = upperbox><div class = ""center-text"" >Orange-Bleu</div></div><div class = lowerbox><div class = fixation>+</div></div>","none","900","test","Orange-Bleu","#1F45FC","8","color","stay","stay","73","","","",""
"561","71","poldrack-single-stim","311","419619","0.0-232.0","sub-12_ses-01_1","","2136","0","stim","","<div class = upperbox><div class = ""center-text"" >Orange-Bleu</div></div><div class = lowerbox><div class = ""stim-text"" style=color:#1F45FC;>8</div>","89,71","1000","test","Orange-Bleu","#1F45FC","8","color","stay","stay","73","true","71","",""
"","","call-function","312","419620","0.0-233.0","sub-12_ses-01_1","","","","set_stims","","","","","","","","","","","","","","","",""
"-1","-1","poldrack-single-stim","313","419728","0.0-234.0","sub-12_ses-01_1","","100","0","cue","","<div class = upperbox><div class = ""center-text"" >Haut-Bas</div></div><div class = lowerbox><div class = fixation>+</div></div>","none","100","test","Haut-Bas","#1F45FC","6","magnitude","switch","switch","74","","","",""
"1208","89","poldrack-single-stim","314","422004","0.0-235.0","sub-12_ses-01_1","","2272","0","stim","","<div class = upperbox><div class = ""center-text"" >Haut-Bas</div></div><div class = lowerbox><div class = ""stim-text"" style=color:#1F45FC;>6</div>","89,71","1000","test","Haut-Bas","#1F45FC","6","magnitude","switch","switch","74","true","89","",""
"","","call-function","315","422005","0.0-236.0","sub-12_ses-01_1","","","","set_stims","","","","","","","","","","","","","","","",""
"-1","-1","poldrack-single-stim","316","422111","0.0-237.0","sub-12_ses-01_1","","100","0","cue","","<div class = upperbox><div class = ""center-text"" >Amplitude</div></div><div class = lowerbox><div class = fixation>+</div></div>","none","100","test","Amplitude","#1F45FC","1","magnitude","stay","switch","75","","","",""
"1134","71","poldrack-single-stim","317","425343","0.0-238.0","sub-12_ses-01_1","","3224","0","stim","","<div class = upperbox><div class = ""center-text"" >Amplitude</div></div><div class = lowerbox><div class = ""stim-text"" style=color:#1F45FC;>1</div>","89,71","1000","test","Amplitude","#1F45FC","1","magnitude","stay","switch","75","true","71","",""
"","","call-function","318","425344","0.0-239.0","sub-12_ses-01_1","","","","set_stims","","","","","","","","","","","","","","","",""
"-1","-1","poldrack-single-stim","319","426257","0.0-240.0","sub-12_ses-01_1","","900","0","cue","","<div class = upperbox><div class = ""center-text"" >Haut-Bas</div></div><div class = lowerbox><div class = fixation>+</div></div>","none","900","test","Haut-Bas","orange","6","magnitude","stay","switch","76","","","",""
"598","89","poldrack-single-stim","320","428272","0.0-241.0","sub-12_ses-01_1","","2000","0","stim","","<div class = upperbox><div class = ""center-text"" >Haut-Bas</div></div><div class = lowerbox><div class = ""stim-text"" style=color:orange;>6</div>","89,71","1000","test","Haut-Bas","orange","6","magnitude","stay","switch","76","true","89","",""
"","","call-function","321","428272","0.0-242.0","sub-12_ses-01_1","","","","set_stims","","","","","","","","","","","","","","","",""
"-1","-1","poldrack-single-stim","322","428379","0.0-243.0","sub-12_ses-01_1","","100","0","cue","","<div class = upperbox><div class = ""center-text"" >Orange-Bleu</div></div><div class = lowerbox><div class = fixation>+</div></div>","none","100","test","Orange-Bleu","#1F45FC","4","color","switch","switch","77","","","",""
"1142","71","poldrack-single-stim","323","430386","0.0-244.0","sub-12_ses-01_1","","2000","0","stim","","<div class = upperbox><div class = ""center-text"" >Orange-Bleu</div></div><div class = lowerbox><div class = ""stim-text"" style=color:#1F45FC;>4</div>","89,71","1000","test","Orange-Bleu","#1F45FC","4","color","switch","switch","77","true","71","",""
"","","call-function","324","430386","0.0-245.0","sub-12_ses-01_1","","","","set_stims","","","","","","","","","","","","","","","",""
"-1","-1","poldrack-single-stim","325","431294","0.0-246.0","sub-12_ses-01_1","","900","0","cue","","<div class = upperbox><div class = ""center-text"" >Haut-Bas</div></div><div class = lowerbox><div class = fixation>+</div></div>","none","900","test","Haut-Bas","#1F45FC","4","magnitude","switch","switch","78","","","",""
"524","71","poldrack-single-stim","326","433572","0.0-247.0","sub-12_ses-01_1","","2272","0","stim","","<div class = upperbox><div class = ""center-text"" >Haut-Bas</div></div><div class = lowerbox><div class = ""stim-text"" style=color:#1F45FC;>4</div>","89,71","1000","test","Haut-Bas","#1F45FC","4","magnitude","switch","switch","78","true","71","",""
"","","call-function","327","433573","0.0-248.0","sub-12_ses-01_1","","","","set_stims","","","","","","","","","","","","","","","",""
"-1","-1","poldrack-single-stim","328","434487","0.0-249.0","sub-12_ses-01_1","","900","0","cue","","<div class = upperbox><div class = ""center-text"" >Orange-Bleu</div></div><div class = lowerbox><div class = fixation>+</div></div>","none","900","test","Orange-Bleu","#1F45FC","7","color","switch","stay","79","","","",""
"530","71","poldrack-single-stim","329","436633","0.0-250.0","sub-12_ses-01_1","","2136","0","stim","","<div class = upperbox><div class = ""center-text"" >Orange-Bleu</div></div><div class = lowerbox><div class = ""stim-text"" style=color:#1F45FC;>7</div>","89,71","1000","test","Orange-Bleu","#1F45FC","7","color","switch","stay","79","true","71","",""
"-1","-1","poldrack-single-stim","330","446644","0.0-251.0","sub-12_ses-01_1","","10000","1000","rest_block","","<div class = centerbox><div class = center-text>+</div></div>","none","10000","","","","","","","","","","","",""
"-1","-1","poldrack-single-stim","331","449166","0.0-252.0","sub-12_ses-01_1","","1500","500","test_start_block","","<div class = centerbox><div class = center-text>Preparez-vous!</p></div>","none","1500","","","","","","","","","","","",""
"-1","-1","poldrack-single-stim","332","450182","0.0-253.0","sub-12_ses-01_1","","500","0","fixation","","<div class = upperbox><div class = fixation>+</div></div><div class = lowerbox><div class = fixation>+</div></div>","none","500","test","","","","","","","","","","",""
"","","call-function","333","450182","0.0-254.0","sub-12_ses-01_1","","","","set_stims","","","","","","","","","","","","","","","",""
"-1","-1","poldrack-single-stim","334","450291","0.0-255.0","sub-12_ses-01_1","","100","0","cue","","<div class = upperbox><div class = ""center-text"" >Orange-Bleu</div></div><div class = lowerbox><div class = fixation>+</div></div>","none","100","test","Orange-Bleu","#1F45FC","8","color","stay","stay","0","","","",""
"1104","89","poldrack-single-stim","335","452299","0.0-256.0","sub-12_ses-01_1","","2000","0","stim","","<div class = upperbox><div class = ""center-text"" >Orange-Bleu</div></div><div class = lowerbox><div class = ""stim-text"" style=color:#1F45FC;>8</div>","89,71","1000","test","Orange-Bleu","#1F45FC","8","color","stay","stay","0","false","71","",""
"","","call-function","336","452300","0.0-257.0","sub-12_ses-01_1","","","","set_stims","","","","","","","","","","","","","","","",""
"-1","-1","poldrack-single-stim","337","453208","0.0-258.0","sub-12_ses-01_1","","900","0","cue","","<div class = upperbox><div class = ""center-text"" >Amplitude</div></div><div class = lowerbox><div class = fixation>+</div></div>","none","900","test","Amplitude","#1F45FC","2","magnitude","switch","switch","1","","","",""
"537","71","poldrack-single-stim","338","455221","0.0-259.0","sub-12_ses-01_1","","2000","0","stim","","<div class = upperbox><div class = ""center-text"" >Amplitude</div></div><div class = lowerbox><div class = ""stim-text"" style=color:#1F45FC;>2</div>","89,71","1000","test","Amplitude","#1F45FC","2","magnitude","switch","switch","1","true","71","",""
"","","call-function","339","455222","0.0-260.0","sub-12_ses-01_1","","","","set_stims","","","","","","","","","","","","","","","",""
"-1","-1","poldrack-single-stim","340","455328","0.0-261.0","sub-12_ses-01_1","","100","0","cue","","<div class = upperbox><div class = ""center-text"" >Couleur</div></div><div class = lowerbox><div class = fixation>+</div></div>","none","100","test","Couleur","#1F45FC","9","color","switch","stay","2","","","",""
"1174","89","poldrack-single-stim","341","457334","0.0-262.0","sub-12_ses-01_1","","2000","0","stim","","<div class = upperbox><div class = ""center-text"" >Couleur</div></div><div class = lowerbox><div class = ""stim-text"" style=color:#1F45FC;>9</div>","89,71","1000","test","Couleur","#1F45FC","9","color","switch","stay","2","false","71","",""
"","","call-function","342","457334","0.0-263.0","sub-12_ses-01_1","","","","set_stims","","","","","","","","","","","","","","","",""
"-1","-1","poldrack-single-stim","343","458242","0.0-264.0","sub-12_ses-01_1","","900","0","cue","","<div class = upperbox><div class = ""center-text"" >Haut-Bas</div></div><div class = lowerbox><div class = fixation>+</div></div>","none","900","test","Haut-Bas","#1F45FC","7","magnitude","switch","switch","3","","","",""
"638","89","poldrack-single-stim","344","460937","0.0-265.0","sub-12_ses-01_1","","2680","0","stim","","<div class = upperbox><div class = ""center-text"" >Haut-Bas</div></div><div class = lowerbox><div class = ""stim-text"" style=color:#1F45FC;>7</div>","89,71","1000","test","Haut-Bas","#1F45FC","7","magnitude","switch","switch","3","true","89","",""
"","","call-function","345","460938","0.0-266.0","sub-12_ses-01_1","","","","set_stims","","","","","","","","","","","","","","","",""
"-1","-1","poldrack-single-stim","346","461046","0.0-267.0","sub-12_ses-01_1","","100","0","cue","","<div class = upperbox><div class = ""center-text"" >Couleur</div></div><div class = lowerbox><div class = fixation>+</div></div>","none","100","test","Couleur","#1F45FC","7","color","switch","stay","4","","","",""
"1192","71","poldrack-single-stim","347","463059","0.0-268.0","sub-12_ses-01_1","","2000","0","stim","","<div class = upperbox><div class = ""center-text"" >Couleur</div></div><div class = lowerbox><div class = ""stim-text"" style=color:#1F45FC;>7</div>","89,71","1000","test","Couleur","#1F45FC","7","color","switch","stay","4","true","71","",""
"","","call-function","348","463061","0.0-269.0","sub-12_ses-01_1","","","","set_stims","","","","","","","","","","","","","","","",""
"-1","-1","poldrack-single-stim","349","463972","0.0-270.0","sub-12_ses-01_1","","900","0","cue","","<div class = upperbox><div class = ""center-text"" >Couleur</div></div><div class = lowerbox><div class = fixation>+</div></div>","none","900","test","Couleur","orange","6","color","stay","stay","5","","","",""
"406","89","poldrack-single-stim","350","466249","0.0-271.0","sub-12_ses-01_1","","2272","0","stim","","<div class = upperbox><div class = ""center-text"" >Couleur</div></div><div class = lowerbox><div class = ""stim-text"" style=color:orange;>6</div>","89,71","1000","test","Couleur","orange","6","color","stay","stay","5","true","89","",""
"","","call-function","351","466250","0.0-272.0","sub-12_ses-01_1","","","","set_stims","","","","","","","","","","","","","","","",""
"-1","-1","poldrack-single-stim","352","467156","0.0-273.0","sub-12_ses-01_1","","900","0","cue","","<div class = upperbox><div class = ""center-text"" >Orange-Bleu</div></div><div class = lowerbox><div class = fixation>+</div></div>","none","900","test","Orange-Bleu","orange","8","color","stay","switch","6","","","",""
"636","89","poldrack-single-stim","353","469174","0.0-274.0","sub-12_ses-01_1","","2000","0","stim","","<div class = upperbox><div class = ""center-text"" >Orange-Bleu</div></div><div class = lowerbox><div class = ""stim-text"" style=color:orange;>8</div>","89,71","1000","test","Orange-Bleu","orange","8","color","stay","switch","6","true","89","",""
"","","call-function","354","469175","0.0-275.0","sub-12_ses-01_1","","","","set_stims","","","","","","","","","","","","","","","",""
"-1","-1","poldrack-single-stim","355","469282","0.0-276.0","sub-12_ses-01_1","","100","0","cue","","<div class = upperbox><div class = ""center-text"" >Couleur</div></div><div class = lowerbox><div class = fixation>+</div></div>","none","100","test","Couleur","#1F45FC","6","color","stay","switch","7","","","",""
"866","71","poldrack-single-stim","356","471568","0.0-277.0","sub-12_ses-01_1","","2272","0","stim","","<div class = upperbox><div class = ""center-text"" >Couleur</div></div><div class = lowerbox><div class = ""stim-text"" style=color:#1F45FC;>6</div>","89,71","1000","test","Couleur","#1F45FC","6","color","stay","switch","7","true","71","",""
"","","call-function","357","471569","0.0-278.0","sub-12_ses-01_1","","","","set_stims","","","","","","","","","","","","","","","",""
"-1","-1","poldrack-single-stim","358","472477","0.0-279.0","sub-12_ses-01_1","","900","0","cue","","<div class = upperbox><div class = ""center-text"" >Amplitude</div></div><div class = lowerbox><div class = fixation>+</div></div>","none","900","test","Amplitude","#1F45FC","9","magnitude","switch","switch","8","","","",""
"555","89","poldrack-single-stim","359","475433","0.0-280.0","sub-12_ses-01_1","","2952","0","stim","","<div class = upperbox><div class = ""center-text"" >Amplitude</div></div><div class = lowerbox><div class = ""stim-text"" style=color:#1F45FC;>9</div>","89,71","1000","test","Amplitude","#1F45FC","9","magnitude","switch","switch","8","true","89","",""
"","","call-function","360","475434","0.0-281.0","sub-12_ses-01_1","","","","set_stims","","","","","","","","","","","","","","","",""
"-1","-1","poldrack-single-stim","361","475541","0.0-282.0","sub-12_ses-01_1","","100","0","cue","","<div class = upperbox><div class = ""center-text"" >Couleur</div></div><div class = lowerbox><div class = fixation>+</div></div>","none","100","test","Couleur","orange","4","color","switch","switch","9","","","",""
"932","71","poldrack-single-stim","362","477544","0.0-283.0","sub-12_ses-01_1","","2000","0","stim","","<div class = upperbox><div class = ""center-text"" >Couleur</div></div><div class = lowerbox><div class = ""stim-text"" style=color:orange;>4</div>","89,71","1000","test","Couleur","orange","4","color","switch","switch","9","false","89","",""
"","","call-function","363","477544","0.0-284.0","sub-12_ses-01_1","","","","set_stims","","","","","","","","","","","","","","","",""
"-1","-1","poldrack-single-stim","364","477652","0.0-285.0","sub-12_ses-01_1","","100","0","cue","","<div class = upperbox><div class = ""center-text"" >Amplitude</div></div><div class = lowerbox><div class = fixation>+</div></div>","none","100","test","Amplitude","orange","4","magnitude","switch","stay","10","","","",""
"1084","71","poldrack-single-stim","365","479669","0.0-286.0","sub-12_ses-01_1","","2000","0","stim","","<div class = upperbox><div class = ""center-text"" >Amplitude</div></div><div class = lowerbox><div class = ""stim-text"" style=color:orange;>4</div>","89,71","1000","test","Amplitude","orange","4","magnitude","switch","stay","10","true","71","",""
"","","call-function","366","479670","0.0-287.0","sub-12_ses-01_1","","","","set_stims","","","","","","","","","","","","","","","",""
"-1","-1","poldrack-single-stim","367","479777","0.0-288.0","sub-12_ses-01_1","","100","0","cue","","<div class = upperbox><div class = ""center-text"" >Haut-Bas</div></div><div class = lowerbox><div class = fixation>+</div></div>","none","100","test","Haut-Bas","orange","2","magnitude","stay","switch","11","","","",""
"1122","71","poldrack-single-stim","368","481783","0.0-289.0","sub-12_ses-01_1","","2000","0","stim","","<div class = upperbox><div class = ""center-text"" >Haut-Bas</div></div><div class = lowerbox><div class = ""stim-text"" style=color:orange;>2</div>","89,71","1000","test","Haut-Bas","orange","2","magnitude","stay","switch","11","true","71","",""
"","","call-function","369","481783","0.0-290.0","sub-12_ses-01_1","","","","set_stims","","","","","","","","","","","","","","","",""
"-1","-1","poldrack-single-stim","370","482689","0.0-291.0","sub-12_ses-01_1","","900","0","cue","","<div class = upperbox><div class = ""center-text"" >Couleur</div></div><div class = lowerbox><div class = fixation>+</div></div>","none","900","test","Couleur","#1F45FC","4","color","switch","stay","12","","","",""
"1421","89","poldrack-single-stim","371","484694","0.0-292.0","sub-12_ses-01_1","","2000","0","stim","","<div class = upperbox><div class = ""center-text"" >Couleur</div></div><div class = lowerbox><div class = ""stim-text"" style=color:#1F45FC;>4</div>","89,71","1000","test","Couleur","#1F45FC","4","color","switch","stay","12","false","71","",""
"","","call-function","372","484696","0.0-293.0","sub-12_ses-01_1","","","","set_stims","","","","","","","","","","","","","","","",""
"-1","-1","poldrack-single-stim","373","485604","0.0-294.0","sub-12_ses-01_1","","900","0","cue","","<div class = upperbox><div class = ""center-text"" >Amplitude</div></div><div class = lowerbox><div class = fixation>+</div></div>","none","900","test","Amplitude","orange","1","magnitude","switch","stay","13","","","",""
"791","71","poldrack-single-stim","374","487747","0.0-295.0","sub-12_ses-01_1","","2136","0","stim","","<div class = upperbox><div class = ""center-text"" >Amplitude</div></div><div class = lowerbox><div class = ""stim-text"" style=color:orange;>1</div>","89,71","1000","test","Amplitude","orange","1","magnitude","switch","stay","13","true","71","",""
"","","call-function","375","487749","0.0-296.0","sub-12_ses-01_1","","","","set_stims","","","","","","","","","","","","","","","",""
