"rt","key_press","trial_type","trial_index","time_elapsed","internal_node_id","subject","text","block_duration","timing_post_trial","trial_id","responses","stimulus","possible_responses","stim_duration","exp_stage","cue","stim_color","stim_number","task","task_switch","cue_switch","trial_num","correct","correct_response","feedback_duration","exp_id"
"4441","13","text","0","4446","0.0-0.0","sub-14_ses-01_1","","","","","","","","","","","","","","","","","","","",""
"1421","89","poldrack-text","1","6888","0.0-1.0","sub-14_ses-01_1","<div class = centerbox><div style = 'font-size: 50px' class = center-text>Veuillez appuyer avec votre index</p></div>","1421","500","fmri_response_test","","","","","","","","","","","","","","","",""
"279","71","poldrack-text","2","7683","0.0-2.0","sub-14_ses-01_1","<div class = centerbox><div style = 'font-size: 50px' class = center-text>Veuillez appuyer avec votre majeur</p></div>","279","500","fmri_response_test","","","","","","","","","","","","","","","",""
"7223","","survey-text","3","15448","0.0-3.0","sub-14_ses-01_1","","","","task_setup","{""Q0"":""1"",""Q1"":""2""}","","","","","","","","","","","","","","",""
"3921","32","poldrack-single-stim","4","20377","0.0-4.0","sub-14_ses-01_1","","3921","0","instructions","","<div class = centerbox><div class = center-text style=""font-size:40px""><strong>Color</strong> or <strong>Orange-Blue</strong>: Index if orange and Majeur if blue.<br><br><strong>Magnitude</strong> or <strong>High-Low</strong>: Majeur if >5 and Index if <5.</div></div>","32","3921","","","","","","","","","","","",""
"","","call-function","5","20378","0.0-5.0-0.0","sub-14_ses-01_1","","","","set_stims","","","","","","","","","","","","","","","",""
"-1","-1","poldrack-single-stim","6","20894","0.0-5.0-1.0","sub-14_ses-01_1","","500","0","fixation","","<div class = upperbox><div class = fixation>+</div></div><div class = lowerbox><div class = fixation>+</div></div>","none","500","practice","","","","","","","","","","",""
"-1","-1","poldrack-single-stim","7","21816","0.0-5.0-2.0","sub-14_ses-01_1","","900","0","cue","","<div class = upperbox><div class = ""center-text"" >Orange-Bleu</div></div><div class = lowerbox><div class = fixation>+</div></div>","none","900","practice","Orange-Bleu","orange","9","color","switch","stay","0","","","",""
"-1","-1","poldrack-categorize","8","24351","0.0-5.0-3.0","sub-14_ses-01_1","","2000","0","stim","","<div class = upperbox><div class = ""center-text"" >Orange-Bleu</div></div><div class = lowerbox><div class = ""stim-text"" style=color:orange;>9</div>","89,71","1000","practice","Orange-Bleu","orange","9","color","switch","stay","0","false","89","500",""
"-1","-1","poldrack-single-stim","9","24872","0.0-5.0-4.0","sub-14_ses-01_1","","500","0","gap",""," ","none","500","practice","","","","","","","","","","",""
"","","call-function","10","24873","0.0-5.0-5.0","sub-14_ses-01_1","","","","set_stims","","","","","","","","","","","","","","","",""
"-1","-1","poldrack-single-stim","11","25392","0.0-5.0-6.0","sub-14_ses-01_1","","500","0","fixation","","<div class = upperbox><div class = fixation>+</div></div><div class = lowerbox><div class = fixation>+</div></div>","none","500","practice","","","","","","","","","","",""
"-1","-1","poldrack-single-stim","12","25511","0.0-5.0-7.0","sub-14_ses-01_1","","100","0","cue","","<div class = upperbox><div class = ""center-text"" >Orange-Bleu</div></div><div class = lowerbox><div class = fixation>+</div></div>","none","100","practice","Orange-Bleu","orange","4","color","stay","stay","1","","","",""
"-1","-1","poldrack-categorize","13","28051","0.0-5.0-8.0","sub-14_ses-01_1","","2000","0","stim","","<div class = upperbox><div class = ""center-text"" >Orange-Bleu</div></div><div class = lowerbox><div class = ""stim-text"" style=color:orange;>4</div>","89,71","1000","practice","Orange-Bleu","orange","4","color","stay","stay","1","false","89","500",""
"-1","-1","poldrack-single-stim","14","28572","0.0-5.0-9.0","sub-14_ses-01_1","","500","0","gap",""," ","none","500","practice","","","","","","","","","","",""
"","","call-function","15","28572","0.0-5.0-10.0","sub-14_ses-01_1","","","","set_stims","","","","","","","","","","","","","","","",""
"-1","-1","poldrack-single-stim","16","29091","0.0-5.0-11.0","sub-14_ses-01_1","","500","0","fixation","","<div class = upperbox><div class = fixation>+</div></div><div class = lowerbox><div class = fixation>+</div></div>","none","500","practice","","","","","","","","","","",""
"-1","-1","poldrack-single-stim","17","30002","0.0-5.0-12.0","sub-14_ses-01_1","","900","0","cue","","<div class = upperbox><div class = ""center-text"" >Orange-Bleu</div></div><div class = lowerbox><div class = fixation>+</div></div>","none","900","practice","Orange-Bleu","orange","7","color","stay","stay","2","","","",""
"552","89","poldrack-categorize","18","32531","0.0-5.0-13.0","sub-14_ses-01_1","","2000","0","stim","","<div class = upperbox><div class = ""center-text"" >Orange-Bleu</div></div><div class = lowerbox><div class = ""stim-text"" style=color:orange;>7</div>","89,71","1000","practice","Orange-Bleu","orange","7","color","stay","stay","2","true","89","500",""
"-1","-1","poldrack-single-stim","19","33040","0.0-5.0-14.0","sub-14_ses-01_1","","500","0","gap",""," ","none","500","practice","","","","","","","","","","",""
"","","call-function","20","33041","0.0-5.0-15.0","sub-14_ses-01_1","","","","set_stims","","","","","","","","","","","","","","","",""
"-1","-1","poldrack-single-stim","21","33560","0.0-5.0-16.0","sub-14_ses-01_1","","500","0","fixation","","<div class = upperbox><div class = fixation>+</div></div><div class = lowerbox><div class = fixation>+</div></div>","none","500","practice","","","","","","","","","","",""
"-1","-1","poldrack-single-stim","22","33681","0.0-5.0-17.0","sub-14_ses-01_1","","100","0","cue","","<div class = upperbox><div class = ""center-text"" >Haut-Bas</div></div><div class = lowerbox><div class = fixation>+</div></div>","none","100","practice","Haut-Bas","orange","6","magnitude","switch","switch","3","","","",""
"1099","71","poldrack-categorize","23","36222","0.0-5.0-18.0","sub-14_ses-01_1","","2000","0","stim","","<div class = upperbox><div class = ""center-text"" >Haut-Bas</div></div><div class = lowerbox><div class = ""stim-text"" style=color:orange;>6</div>","89,71","1000","practice","Haut-Bas","orange","6","magnitude","switch","switch","3","true","71","500",""
"-1","-1","poldrack-single-stim","24","36742","0.0-5.0-19.0","sub-14_ses-01_1","","500","0","gap",""," ","none","500","practice","","","","","","","","","","",""
"","","call-function","25","36742","0.0-5.0-20.0","sub-14_ses-01_1","","","","set_stims","","","","","","","","","","","","","","","",""
"-1","-1","poldrack-single-stim","26","37262","0.0-5.0-21.0","sub-14_ses-01_1","","500","0","fixation","","<div class = upperbox><div class = fixation>+</div></div><div class = lowerbox><div class = fixation>+</div></div>","none","500","practice","","","","","","","","","","",""
"-1","-1","poldrack-single-stim","27","38183","0.0-5.0-22.0","sub-14_ses-01_1","","900","0","cue","","<div class = upperbox><div class = ""center-text"" >Orange-Bleu</div></div><div class = lowerbox><div class = fixation>+</div></div>","none","900","practice","Orange-Bleu","#1F45FC","3","color","switch","stay","4","","","",""
"554","71","poldrack-categorize","28","40712","0.0-5.0-23.0","sub-14_ses-01_1","","2000","0","stim","","<div class = upperbox><div class = ""center-text"" >Orange-Bleu</div></div><div class = lowerbox><div class = ""stim-text"" style=color:#1F45FC;>3</div>","89,71","1000","practice","Orange-Bleu","#1F45FC","3","color","switch","stay","4","true","71","500",""
"-1","-1","poldrack-single-stim","29","41232","0.0-5.0-24.0","sub-14_ses-01_1","","500","0","gap",""," ","none","500","practice","","","","","","","","","","",""
"","","call-function","30","41233","0.0-5.0-25.0","sub-14_ses-01_1","","","","set_stims","","","","","","","","","","","","","","","",""
"-1","-1","poldrack-single-stim","31","41742","0.0-5.0-26.0","sub-14_ses-01_1","","500","0","fixation","","<div class = upperbox><div class = fixation>+</div></div><div class = lowerbox><div class = fixation>+</div></div>","none","500","practice","","","","","","","","","","",""
"-1","-1","poldrack-single-stim","32","42662","0.0-5.0-27.0","sub-14_ses-01_1","","900","0","cue","","<div class = upperbox><div class = ""center-text"" >Couleur</div></div><div class = lowerbox><div class = fixation>+</div></div>","none","900","practice","Couleur","orange","8","color","stay","switch","5","","","",""
"1262","89","poldrack-categorize","33","45192","0.0-5.0-28.0","sub-14_ses-01_1","","2000","0","stim","","<div class = upperbox><div class = ""center-text"" >Couleur</div></div><div class = lowerbox><div class = ""stim-text"" style=color:orange;>8</div>","89,71","1000","practice","Couleur","orange","8","color","stay","switch","5","true","89","500",""
"-1","-1","poldrack-single-stim","34","45712","0.0-5.0-29.0","sub-14_ses-01_1","","500","0","gap",""," ","none","500","practice","","","","","","","","","","",""
"","","call-function","35","45712","0.0-5.0-30.0","sub-14_ses-01_1","","","","set_stims","","","","","","","","","","","","","","","",""
"-1","-1","poldrack-single-stim","36","46232","0.0-5.0-31.0","sub-14_ses-01_1","","500","0","fixation","","<div class = upperbox><div class = fixation>+</div></div><div class = lowerbox><div class = fixation>+</div></div>","none","500","practice","","","","","","","","","","",""
"-1","-1","poldrack-single-stim","37","46351","0.0-5.0-32.0","sub-14_ses-01_1","","100","0","cue","","<div class = upperbox><div class = ""center-text"" >Haut-Bas</div></div><div class = lowerbox><div class = fixation>+</div></div>","none","100","practice","Haut-Bas","#1F45FC","4","magnitude","switch","stay","6","","","",""
"904","89","poldrack-categorize","38","48892","0.0-5.0-33.0","sub-14_ses-01_1","","2000","0","stim","","<div class = upperbox><div class = ""center-text"" >Haut-Bas</div></div><div class = lowerbox><div class = ""stim-text"" style=color:#1F45FC;>4</div>","89,71","1000","practice","Haut-Bas","#1F45FC","4","magnitude","switch","stay","6","true","89","500",""
"-1","-1","poldrack-single-stim","39","49410","0.0-5.0-34.0","sub-14_ses-01_1","","500","0","gap",""," ","none","500","practice","","","","","","","","","","",""
"","","call-function","40","49410","0.0-5.0-35.0","sub-14_ses-01_1","","","","set_stims","","","","","","","","","","","","","","","",""
"-1","-1","poldrack-single-stim","41","49931","0.0-5.0-36.0","sub-14_ses-01_1","","500","0","fixation","","<div class = upperbox><div class = fixation>+</div></div><div class = lowerbox><div class = fixation>+</div></div>","none","500","practice","","","","","","","","","","",""
"-1","-1","poldrack-single-stim","42","50052","0.0-5.0-37.0","sub-14_ses-01_1","","100","0","cue","","<div class = upperbox><div class = ""center-text"" >Amplitude</div></div><div class = lowerbox><div class = fixation>+</div></div>","none","100","practice","Amplitude","orange","6","magnitude","stay","switch","7","","","",""
"1054","71","poldrack-categorize","43","52583","0.0-5.0-38.0","sub-14_ses-01_1","","2000","0","stim","","<div class = upperbox><div class = ""center-text"" >Amplitude</div></div><div class = lowerbox><div class = ""stim-text"" style=color:orange;>6</div>","89,71","1000","practice","Amplitude","orange","6","magnitude","stay","switch","7","true","71","500",""
"-1","-1","poldrack-single-stim","44","53102","0.0-5.0-39.0","sub-14_ses-01_1","","500","0","gap",""," ","none","500","practice","","","","","","","","","","",""
"","","call-function","45","53102","0.0-5.0-40.0","sub-14_ses-01_1","","","","set_stims","","","","","","","","","","","","","","","",""
"-1","-1","poldrack-single-stim","46","53620","0.0-5.0-41.0","sub-14_ses-01_1","","500","0","fixation","","<div class = upperbox><div class = fixation>+</div></div><div class = lowerbox><div class = fixation>+</div></div>","none","500","practice","","","","","","","","","","",""
"-1","-1","poldrack-single-stim","47","53743","0.0-5.0-42.0","sub-14_ses-01_1","","100","0","cue","","<div class = upperbox><div class = ""center-text"" >Haut-Bas</div></div><div class = lowerbox><div class = fixation>+</div></div>","none","100","practice","Haut-Bas","#1F45FC","1","magnitude","stay","switch","8","","","",""
"695","89","poldrack-categorize","48","56281","0.0-5.0-43.0","sub-14_ses-01_1","","2000","0","stim","","<div class = upperbox><div class = ""center-text"" >Haut-Bas</div></div><div class = lowerbox><div class = ""stim-text"" style=color:#1F45FC;>1</div>","89,71","1000","practice","Haut-Bas","#1F45FC","1","magnitude","stay","switch","8","true","89","500",""
"-1","-1","poldrack-single-stim","49","56801","0.0-5.0-44.0","sub-14_ses-01_1","","500","0","gap",""," ","none","500","practice","","","","","","","","","","",""
"","","call-function","50","56802","0.0-5.0-45.0","sub-14_ses-01_1","","","","set_stims","","","","","","","","","","","","","","","",""
"-1","-1","poldrack-single-stim","51","57320","0.0-5.0-46.0","sub-14_ses-01_1","","500","0","fixation","","<div class = upperbox><div class = fixation>+</div></div><div class = lowerbox><div class = fixation>+</div></div>","none","500","practice","","","","","","","","","","",""
"-1","-1","poldrack-single-stim","52","57441","0.0-5.0-47.0","sub-14_ses-01_1","","100","0","cue","","<div class = upperbox><div class = ""center-text"" >Haut-Bas</div></div><div class = lowerbox><div class = fixation>+</div></div>","none","100","practice","Haut-Bas","orange","9","magnitude","stay","stay","9","","","",""
"743","71","poldrack-categorize","53","59981","0.0-5.0-48.0","sub-14_ses-01_1","","2000","0","stim","","<div class = upperbox><div class = ""center-text"" >Haut-Bas</div></div><div class = lowerbox><div class = ""stim-text"" style=color:orange;>9</div>","89,71","1000","practice","Haut-Bas","orange","9","magnitude","stay","stay","9","true","71","500",""
"-1","-1","poldrack-single-stim","54","60501","0.0-5.0-49.0","sub-14_ses-01_1","","500","0","gap",""," ","none","500","practice","","","","","","","","","","",""
"","","call-function","55","60503","0.0-5.0-50.0","sub-14_ses-01_1","","","","set_stims","","","","","","","","","","","","","","","",""
"-1","-1","poldrack-single-stim","56","61021","0.0-5.0-51.0","sub-14_ses-01_1","","500","0","fixation","","<div class = upperbox><div class = fixation>+</div></div><div class = lowerbox><div class = fixation>+</div></div>","none","500","practice","","","","","","","","","","",""
"-1","-1","poldrack-single-stim","57","61141","0.0-5.0-52.0","sub-14_ses-01_1","","100","0","cue","","<div class = upperbox><div class = ""center-text"" >Orange-Bleu</div></div><div class = lowerbox><div class = fixation>+</div></div>","none","100","practice","Orange-Bleu","orange","7","color","switch","stay","10","","","",""
"1214","89","poldrack-categorize","58","63681","0.0-5.0-53.0","sub-14_ses-01_1","","2000","0","stim","","<div class = upperbox><div class = ""center-text"" >Orange-Bleu</div></div><div class = lowerbox><div class = ""stim-text"" style=color:orange;>7</div>","89,71","1000","practice","Orange-Bleu","orange","7","color","switch","stay","10","true","89","500",""
"-1","-1","poldrack-single-stim","59","64201","0.0-5.0-54.0","sub-14_ses-01_1","","500","0","gap",""," ","none","500","practice","","","","","","","","","","",""
"","","call-function","60","64202","0.0-5.0-55.0","sub-14_ses-01_1","","","","set_stims","","","","","","","","","","","","","","","",""
"-1","-1","poldrack-single-stim","61","64722","0.0-5.0-56.0","sub-14_ses-01_1","","500","0","fixation","","<div class = upperbox><div class = fixation>+</div></div><div class = lowerbox><div class = fixation>+</div></div>","none","500","practice","","","","","","","","","","",""
"-1","-1","poldrack-single-stim","62","65641","0.0-5.0-57.0","sub-14_ses-01_1","","900","0","cue","","<div class = upperbox><div class = ""center-text"" >Orange-Bleu</div></div><div class = lowerbox><div class = fixation>+</div></div>","none","900","practice","Orange-Bleu","#1F45FC","4","color","stay","stay","11","","","",""
"415","71","poldrack-categorize","63","68182","0.0-5.0-58.0","sub-14_ses-01_1","","2000","0","stim","","<div class = upperbox><div class = ""center-text"" >Orange-Bleu</div></div><div class = lowerbox><div class = ""stim-text"" style=color:#1F45FC;>4</div>","89,71","1000","practice","Orange-Bleu","#1F45FC","4","color","stay","stay","11","true","71","500",""
"-1","-1","poldrack-single-stim","64","68747","0.0-5.0-59.0","sub-14_ses-01_1","","500","0","gap",""," ","none","500","practice","","","","","","","","","","",""
"","","call-function","65","68747","0.0-5.0-60.0","sub-14_ses-01_1","","","","set_stims","","","","","","","","","","","","","","","",""
"-1","-1","poldrack-single-stim","66","69262","0.0-5.0-61.0","sub-14_ses-01_1","","500","0","fixation","","<div class = upperbox><div class = fixation>+</div></div><div class = lowerbox><div class = fixation>+</div></div>","none","500","practice","","","","","","","","","","",""
"-1","-1","poldrack-single-stim","67","70172","0.0-5.0-62.0","sub-14_ses-01_1","","900","0","cue","","<div class = upperbox><div class = ""center-text"" >Amplitude</div></div><div class = lowerbox><div class = fixation>+</div></div>","none","900","practice","Amplitude","#1F45FC","8","magnitude","switch","switch","12","","","",""
"566","71","poldrack-categorize","68","72712","0.0-5.0-63.0","sub-14_ses-01_1","","2000","0","stim","","<div class = upperbox><div class = ""center-text"" >Amplitude</div></div><div class = lowerbox><div class = ""stim-text"" style=color:#1F45FC;>8</div>","89,71","1000","practice","Amplitude","#1F45FC","8","magnitude","switch","switch","12","true","71","500",""
"-1","-1","poldrack-single-stim","69","73232","0.0-5.0-64.0","sub-14_ses-01_1","","500","0","gap",""," ","none","500","practice","","","","","","","","","","",""
"","","call-function","70","73233","0.0-5.0-65.0","sub-14_ses-01_1","","","","set_stims","","","","","","","","","","","","","","","",""
"-1","-1","poldrack-single-stim","71","73752","0.0-5.0-66.0","sub-14_ses-01_1","","500","0","fixation","","<div class = upperbox><div class = fixation>+</div></div><div class = lowerbox><div class = fixation>+</div></div>","none","500","practice","","","","","","","","","","",""
"-1","-1","poldrack-single-stim","72","74662","0.0-5.0-67.0","sub-14_ses-01_1","","900","0","cue","","<div class = upperbox><div class = ""center-text"" >Orange-Bleu</div></div><div class = lowerbox><div class = fixation>+</div></div>","none","900","practice","Orange-Bleu","orange","8","color","switch","switch","13","","","",""
"574","89","poldrack-categorize","73","77190","0.0-5.0-68.0","sub-14_ses-01_1","","2000","0","stim","","<div class = upperbox><div class = ""center-text"" >Orange-Bleu</div></div><div class = lowerbox><div class = ""stim-text"" style=color:orange;>8</div>","89,71","1000","practice","Orange-Bleu","orange","8","color","switch","switch","13","true","89","500",""
"-1","-1","poldrack-single-stim","74","77711","0.0-5.0-69.0","sub-14_ses-01_1","","500","0","gap",""," ","none","500","practice","","","","","","","","","","",""
"","","call-function","75","77712","0.0-5.0-70.0","sub-14_ses-01_1","","","","set_stims","","","","","","","","","","","","","","","",""
"-1","-1","poldrack-single-stim","76","78232","0.0-5.0-71.0","sub-14_ses-01_1","","500","0","fixation","","<div class = upperbox><div class = fixation>+</div></div><div class = lowerbox><div class = fixation>+</div></div>","none","500","practice","","","","","","","","","","",""
"-1","-1","poldrack-single-stim","77","78352","0.0-5.0-72.0","sub-14_ses-01_1","","100","0","cue","","<div class = upperbox><div class = ""center-text"" >Haut-Bas</div></div><div class = lowerbox><div class = fixation>+</div></div>","none","100","practice","Haut-Bas","orange","2","magnitude","switch","switch","14","","","",""
"1430","89","poldrack-categorize","78","80892","0.0-5.0-73.0","sub-14_ses-01_1","","2000","0","stim","","<div class = upperbox><div class = ""center-text"" >Haut-Bas</div></div><div class = lowerbox><div class = ""stim-text"" style=color:orange;>2</div>","89,71","1000","practice","Haut-Bas","orange","2","magnitude","switch","switch","14","true","89","500",""
"-1","-1","poldrack-single-stim","79","81411","0.0-5.0-74.0","sub-14_ses-01_1","","500","0","gap",""," ","none","500","practice","","","","","","","","","","",""
"","","call-function","80","81412","0.0-5.0-75.0","sub-14_ses-01_1","","","","set_stims","","","","","","","","","","","","","","","",""
"-1","-1","poldrack-single-stim","81","81932","0.0-5.0-76.0","sub-14_ses-01_1","","500","0","fixation","","<div class = upperbox><div class = fixation>+</div></div><div class = lowerbox><div class = fixation>+</div></div>","none","500","practice","","","","","","","","","","",""
"-1","-1","poldrack-single-stim","82","82852","0.0-5.0-77.0","sub-14_ses-01_1","","900","0","cue","","<div class = upperbox><div class = ""center-text"" >Amplitude</div></div><div class = lowerbox><div class = fixation>+</div></div>","none","900","practice","Amplitude","#1F45FC","4","magnitude","stay","switch","15","","","",""
"512","89","poldrack-categorize","83","85390","0.0-5.0-78.0","sub-14_ses-01_1","","2000","0","stim","","<div class = upperbox><div class = ""center-text"" >Amplitude</div></div><div class = lowerbox><div class = ""stim-text"" style=color:#1F45FC;>4</div>","89,71","1000","practice","Amplitude","#1F45FC","4","magnitude","stay","switch","15","true","89","500",""
"-1","-1","poldrack-single-stim","84","85910","0.0-5.0-79.0","sub-14_ses-01_1","","500","0","gap",""," ","none","500","practice","","","","","","","","","","",""
"3192","32","poldrack-text","85","89107","0.0-6.0","sub-14_ses-01_1","<div class = centerbox><div  class = center-text>Scanner Setup</div></div>","3192","0","fmri_scanner_wait","","","","","","","","","","","","","","","",""
"53325","84","poldrack-text","86","142435","0.0-7.0","sub-14_ses-01_1","<div class = centerbox><div style='color:red'; class = center-text>+</div></div>","53325","0","fmri_trigger_wait","","","","","","","","","","","","","","","",""
"-1","-1","poldrack-single-stim","87","143453","0.0-8.0","sub-14_ses-01_1","","1000","0","fmri_buffer","","","none","1000","","","","","","","","","","","",""
"-1","-1","poldrack-single-stim","88","144972","0.0-9.0","sub-14_ses-01_1","","1500","500","test_start_block","","<div class = centerbox><div class = center-text>Preparez-vous!</p></div>","none","1500","","","","","","","","","","","",""
"-1","-1","poldrack-single-stim","89","146012","0.0-10.0","sub-14_ses-01_1","","500","0","fixation","","<div class = upperbox><div class = fixation>+</div></div><div class = lowerbox><div class = fixation>+</div></div>","none","500","test","","","","","","","","","","",""
"","","call-function","90","146012","0.0-11.0","sub-14_ses-01_1","","","","set_stims","","","","","","","","","","","","","","","",""
"-1","-1","poldrack-single-stim","91","146932","0.0-12.0","sub-14_ses-01_1","","900","0","cue","","<div class = upperbox><div class = ""center-text"" >Amplitude</div></div><div class = lowerbox><div class = fixation>+</div></div>","none","900","test","Amplitude","orange","9","magnitude","stay","stay","0","","","",""
"615","71","poldrack-single-stim","92","150162","0.0-13.0","sub-14_ses-01_1","","3224","0","stim","","<div class = upperbox><div class = ""center-text"" >Amplitude</div></div><div class = lowerbox><div class = ""stim-text"" style=color:orange;>9</div>","89,71","1000","test","Amplitude","orange","9","magnitude","stay","stay","0","true","71","",""
"","","call-function","93","150164","0.0-14.0","sub-14_ses-01_1","","","","set_stims","","","","","","","","","","","","","","","",""
"-1","-1","poldrack-single-stim","94","151081","0.0-15.0","sub-14_ses-01_1","","900","0","cue","","<div class = upperbox><div class = ""center-text"" >Couleur</div></div><div class = lowerbox><div class = fixation>+</div></div>","none","900","test","Couleur","orange","4","color","switch","switch","1","","","",""
"580","89","poldrack-single-stim","95","153501","0.0-16.0","sub-14_ses-01_1","","2408","0","stim","","<div class = upperbox><div class = ""center-text"" >Couleur</div></div><div class = lowerbox><div class = ""stim-text"" style=color:orange;>4</div>","89,71","1000","test","Couleur","orange","4","color","switch","switch","1","true","89","",""
"","","call-function","96","153502","0.0-17.0","sub-14_ses-01_1","","","","set_stims","","","","","","","","","","","","","","","",""
"-1","-1","poldrack-single-stim","97","154422","0.0-18.0","sub-14_ses-01_1","","900","0","cue","","<div class = upperbox><div class = ""center-text"" >Amplitude</div></div><div class = lowerbox><div class = fixation>+</div></div>","none","900","test","Amplitude","orange","7","magnitude","switch","switch","2","","","",""
"918","71","poldrack-single-stim","98","157261","0.0-19.0","sub-14_ses-01_1","","2816","0","stim","","<div class = upperbox><div class = ""center-text"" >Amplitude</div></div><div class = lowerbox><div class = ""stim-text"" style=color:orange;>7</div>","89,71","1000","test","Amplitude","orange","7","magnitude","switch","switch","2","true","71","",""
"","","call-function","99","157262","0.0-20.0","sub-14_ses-01_1","","","","set_stims","","","","","","","","","","","","","","","",""
"-1","-1","poldrack-single-stim","100","157380","0.0-21.0","sub-14_ses-01_1","","100","0","cue","","<div class = upperbox><div class = ""center-text"" >Orange-Bleu</div></div><div class = lowerbox><div class = fixation>+</div></div>","none","100","test","Orange-Bleu","orange","6","color","switch","switch","3","","","",""
"1113","89","poldrack-single-stim","101","159799","0.0-22.0","sub-14_ses-01_1","","2408","0","stim","","<div class = upperbox><div class = ""center-text"" >Orange-Bleu</div></div><div class = lowerbox><div class = ""stim-text"" style=color:orange;>6</div>","89,71","1000","test","Orange-Bleu","orange","6","color","switch","switch","3","true","89","",""
"","","call-function","102","159800","0.0-23.0","sub-14_ses-01_1","","","","set_stims","","","","","","","","","","","","","","","",""
"-1","-1","poldrack-single-stim","103","160723","0.0-24.0","sub-14_ses-01_1","","900","0","cue","","<div class = upperbox><div class = ""center-text"" >Haut-Bas</div></div><div class = lowerbox><div class = fixation>+</div></div>","none","900","test","Haut-Bas","#1F45FC","3","magnitude","switch","switch","4","","","",""
"808","89","poldrack-single-stim","104","162882","0.0-25.0","sub-14_ses-01_1","","2136","0","stim","","<div class = upperbox><div class = ""center-text"" >Haut-Bas</div></div><div class = lowerbox><div class = ""stim-text"" style=color:#1F45FC;>3</div>","89,71","1000","test","Haut-Bas","#1F45FC","3","magnitude","switch","switch","4","true","89","",""
"","","call-function","105","162882","0.0-26.0","sub-14_ses-01_1","","","","set_stims","","","","","","","","","","","","","","","",""
"-1","-1","poldrack-single-stim","106","163811","0.0-27.0","sub-14_ses-01_1","","900","0","cue","","<div class = upperbox><div class = ""center-text"" >Haut-Bas</div></div><div class = lowerbox><div class = fixation>+</div></div>","none","900","test","Haut-Bas","orange","8","magnitude","stay","stay","5","","","",""
"786","71","poldrack-single-stim","107","165951","0.0-28.0","sub-14_ses-01_1","","2136","0","stim","","<div class = upperbox><div class = ""center-text"" >Haut-Bas</div></div><div class = lowerbox><div class = ""stim-text"" style=color:orange;>8</div>","89,71","1000","test","Haut-Bas","orange","8","magnitude","stay","stay","5","true","71","",""
"","","call-function","108","165952","0.0-29.0","sub-14_ses-01_1","","","","set_stims","","","","","","","","","","","","","","","",""
"-1","-1","poldrack-single-stim","109","166072","0.0-30.0","sub-14_ses-01_1","","100","0","cue","","<div class = upperbox><div class = ""center-text"" >Amplitude</div></div><div class = lowerbox><div class = fixation>+</div></div>","none","100","test","Amplitude","#1F45FC","4","magnitude","stay","switch","6","","","",""
"1121","89","poldrack-single-stim","110","168081","0.0-31.0","sub-14_ses-01_1","","2000","0","stim","","<div class = upperbox><div class = ""center-text"" >Amplitude</div></div><div class = lowerbox><div class = ""stim-text"" style=color:#1F45FC;>4</div>","89,71","1000","test","Amplitude","#1F45FC","4","magnitude","stay","switch","6","true","89","",""
"","","call-function","111","168083","0.0-32.0","sub-14_ses-01_1","","","","set_stims","","","","","","","","","","","","","","","",""
"-1","-1","poldrack-single-stim","112","168201","0.0-33.0","sub-14_ses-01_1","","100","0","cue","","<div class = upperbox><div class = ""center-text"" >Haut-Bas</div></div><div class = lowerbox><div class = fixation>+</div></div>","none","100","test","Haut-Bas","orange","6","magnitude","stay","switch","7","","","",""
"918","71","poldrack-single-stim","113","170211","0.0-34.0","sub-14_ses-01_1","","2000","0","stim","","<div class = upperbox><div class = ""center-text"" >Haut-Bas</div></div><div class = lowerbox><div class = ""stim-text"" style=color:orange;>6</div>","89,71","1000","test","Haut-Bas","orange","6","magnitude","stay","switch","7","true","71","",""
"","","call-function","114","170212","0.0-35.0","sub-14_ses-01_1","","","","set_stims","","","","","","","","","","","","","","","",""
"-1","-1","poldrack-single-stim","115","171132","0.0-36.0","sub-14_ses-01_1","","900","0","cue","","<div class = upperbox><div class = ""center-text"" >Orange-Bleu</div></div><div class = lowerbox><div class = fixation>+</div></div>","none","900","test","Orange-Bleu","#1F45FC","1","color","switch","switch","8","","","",""
"902","71","poldrack-single-stim","116","173411","0.0-37.0","sub-14_ses-01_1","","2272","0","stim","","<div class = upperbox><div class = ""center-text"" >Orange-Bleu</div></div><div class = lowerbox><div class = ""stim-text"" style=color:#1F45FC;>1</div>","89,71","1000","test","Orange-Bleu","#1F45FC","1","color","switch","switch","8","true","71","",""
"","","call-function","117","173411","0.0-38.0","sub-14_ses-01_1","","","","set_stims","","","","","","","","","","","","","","","",""
"-1","-1","poldrack-single-stim","118","173532","0.0-39.0","sub-14_ses-01_1","","100","0","cue","","<div class = upperbox><div class = ""center-text"" >Haut-Bas</div></div><div class = lowerbox><div class = fixation>+</div></div>","none","100","test","Haut-Bas","orange","9","magnitude","switch","switch","9","","","",""
"1222","89","poldrack-single-stim","119","175951","0.0-40.0","sub-14_ses-01_1","","2408","0","stim","","<div class = upperbox><div class = ""center-text"" >Haut-Bas</div></div><div class = lowerbox><div class = ""stim-text"" style=color:orange;>9</div>","89,71","1000","test","Haut-Bas","orange","9","magnitude","switch","switch","9","false","71","",""
"","","call-function","120","175952","0.0-41.0","sub-14_ses-01_1","","","","set_stims","","","","","","","","","","","","","","","",""
"-1","-1","poldrack-single-stim","121","176871","0.0-42.0","sub-14_ses-01_1","","900","0","cue","","<div class = upperbox><div class = ""center-text"" >Orange-Bleu</div></div><div class = lowerbox><div class = fixation>+</div></div>","none","900","test","Orange-Bleu","orange","7","color","switch","stay","10","","","",""
"677","89","poldrack-single-stim","122","178881","0.0-43.0","sub-14_ses-01_1","","2000","0","stim","","<div class = upperbox><div class = ""center-text"" >Orange-Bleu</div></div><div class = lowerbox><div class = ""stim-text"" style=color:orange;>7</div>","89,71","1000","test","Orange-Bleu","orange","7","color","switch","stay","10","true","89","",""
"","","call-function","123","178883","0.0-44.0","sub-14_ses-01_1","","","","set_stims","","","","","","","","","","","","","","","",""
"-1","-1","poldrack-single-stim","124","179001","0.0-45.0","sub-14_ses-01_1","","100","0","cue","","<div class = upperbox><div class = ""center-text"" >Couleur</div></div><div class = lowerbox><div class = fixation>+</div></div>","none","100","test","Couleur","#1F45FC","4","color","stay","switch","11","","","",""
"1327","71","poldrack-single-stim","125","181141","0.0-46.0","sub-14_ses-01_1","","2136","0","stim","","<div class = upperbox><div class = ""center-text"" >Couleur</div></div><div class = lowerbox><div class = ""stim-text"" style=color:#1F45FC;>4</div>","89,71","1000","test","Couleur","#1F45FC","4","color","stay","switch","11","true","71","",""
"","","call-function","126","181142","0.0-47.0","sub-14_ses-01_1","","","","set_stims","","","","","","","","","","","","","","","",""
"-1","-1","poldrack-single-stim","127","182062","0.0-48.0","sub-14_ses-01_1","","900","0","cue","","<div class = upperbox><div class = ""center-text"" >Haut-Bas</div></div><div class = lowerbox><div class = fixation>+</div></div>","none","900","test","Haut-Bas","#1F45FC","8","magnitude","switch","stay","12","","","",""
"557","71","poldrack-single-stim","128","184082","0.0-49.0","sub-14_ses-01_1","","2000","0","stim","","<div class = upperbox><div class = ""center-text"" >Haut-Bas</div></div><div class = lowerbox><div class = ""stim-text"" style=color:#1F45FC;>8</div>","89,71","1000","test","Haut-Bas","#1F45FC","8","magnitude","switch","stay","12","true","71","",""
"","","call-function","129","184082","0.0-50.0","sub-14_ses-01_1","","","","set_stims","","","","","","","","","","","","","","","",""
"-1","-1","poldrack-single-stim","130","184200","0.0-51.0","sub-14_ses-01_1","","100","0","cue","","<div class = upperbox><div class = ""center-text"" >Orange-Bleu</div></div><div class = lowerbox><div class = fixation>+</div></div>","none","100","test","Orange-Bleu","orange","8","color","switch","stay","13","","","",""
"1625","89","poldrack-single-stim","131","186631","0.0-52.0","sub-14_ses-01_1","","2408","0","stim","","<div class = upperbox><div class = ""center-text"" >Orange-Bleu</div></div><div class = lowerbox><div class = ""stim-text"" style=color:orange;>8</div>","89,71","1000","test","Orange-Bleu","orange","8","color","switch","stay","13","true","89","",""
"","","call-function","132","186632","0.0-53.0","sub-14_ses-01_1","","","","set_stims","","","","","","","","","","","","","","","",""
"-1","-1","poldrack-single-stim","133","187553","0.0-54.0","sub-14_ses-01_1","","900","0","cue","","<div class = upperbox><div class = ""center-text"" >Couleur</div></div><div class = lowerbox><div class = fixation>+</div></div>","none","900","test","Couleur","orange","2","color","stay","switch","14","","","",""
"833","89","poldrack-single-stim","134","189831","0.0-55.0","sub-14_ses-01_1","","2272","0","stim","","<div class = upperbox><div class = ""center-text"" >Couleur</div></div><div class = lowerbox><div class = ""stim-text"" style=color:orange;>2</div>","89,71","1000","test","Couleur","orange","2","color","stay","switch","14","true","89","",""
"","","call-function","135","189832","0.0-56.0","sub-14_ses-01_1","","","","set_stims","","","","","","","","","","","","","","","",""
"-1","-1","poldrack-single-stim","136","190752","0.0-57.0","sub-14_ses-01_1","","900","0","cue","","<div class = upperbox><div class = ""center-text"" >Amplitude</div></div><div class = lowerbox><div class = fixation>+</div></div>","none","900","test","Amplitude","#1F45FC","4","magnitude","switch","stay","15","","","",""
"490","89","poldrack-single-stim","137","192772","0.0-58.0","sub-14_ses-01_1","","2000","0","stim","","<div class = upperbox><div class = ""center-text"" >Amplitude</div></div><div class = lowerbox><div class = ""stim-text"" style=color:#1F45FC;>4</div>","89,71","1000","test","Amplitude","#1F45FC","4","magnitude","switch","stay","15","true","89","",""
"","","call-function","138","192773","0.0-59.0","sub-14_ses-01_1","","","","set_stims","","","","","","","","","","","","","","","",""
"-1","-1","poldrack-single-stim","139","193691","0.0-60.0","sub-14_ses-01_1","","900","0","cue","","<div class = upperbox><div class = ""center-text"" >Haut-Bas</div></div><div class = lowerbox><div class = fixation>+</div></div>","none","900","test","Haut-Bas","#1F45FC","7","magnitude","stay","switch","16","","","",""
"548","71","poldrack-single-stim","140","195971","0.0-61.0","sub-14_ses-01_1","","2272","0","stim","","<div class = upperbox><div class = ""center-text"" >Haut-Bas</div></div><div class = lowerbox><div class = ""stim-text"" style=color:#1F45FC;>7</div>","89,71","1000","test","Haut-Bas","#1F45FC","7","magnitude","stay","switch","16","true","71","",""
"","","call-function","141","195972","0.0-62.0","sub-14_ses-01_1","","","","set_stims","","","","","","","","","","","","","","","",""
"-1","-1","poldrack-single-stim","142","196892","0.0-63.0","sub-14_ses-01_1","","900","0","cue","","<div class = upperbox><div class = ""center-text"" >Orange-Bleu</div></div><div class = lowerbox><div class = fixation>+</div></div>","none","900","test","Orange-Bleu","#1F45FC","6","color","switch","switch","17","","","",""
"594","71","poldrack-single-stim","143","198911","0.0-64.0","sub-14_ses-01_1","","2000","0","stim","","<div class = upperbox><div class = ""center-text"" >Orange-Bleu</div></div><div class = lowerbox><div class = ""stim-text"" style=color:#1F45FC;>6</div>","89,71","1000","test","Orange-Bleu","#1F45FC","6","color","switch","switch","17","true","71","",""
"","","call-function","144","198912","0.0-65.0","sub-14_ses-01_1","","","","set_stims","","","","","","","","","","","","","","","",""
"-1","-1","poldrack-single-stim","145","199032","0.0-66.0","sub-14_ses-01_1","","100","0","cue","","<div class = upperbox><div class = ""center-text"" >Amplitude</div></div><div class = lowerbox><div class = fixation>+</div></div>","none","100","test","Amplitude","orange","1","magnitude","switch","stay","18","","","",""
"1038","89","poldrack-single-stim","146","201052","0.0-67.0","sub-14_ses-01_1","","2000","0","stim","","<div class = upperbox><div class = ""center-text"" >Amplitude</div></div><div class = lowerbox><div class = ""stim-text"" style=color:orange;>1</div>","89,71","1000","test","Amplitude","orange","1","magnitude","switch","stay","18","true","89","",""
"","","call-function","147","201053","0.0-68.0","sub-14_ses-01_1","","","","set_stims","","","","","","","","","","","","","","","",""
"-1","-1","poldrack-single-stim","148","201972","0.0-69.0","sub-14_ses-01_1","","900","0","cue","","<div class = upperbox><div class = ""center-text"" >Amplitude</div></div><div class = lowerbox><div class = fixation>+</div></div>","none","900","test","Amplitude","#1F45FC","1","magnitude","stay","stay","19","","","",""
"488","89","poldrack-single-stim","149","204251","0.0-70.0","sub-14_ses-01_1","","2272","0","stim","","<div class = upperbox><div class = ""center-text"" >Amplitude</div></div><div class = lowerbox><div class = ""stim-text"" style=color:#1F45FC;>1</div>","89,71","1000","test","Amplitude","#1F45FC","1","magnitude","stay","stay","19","true","89","",""
"","","call-function","150","204252","0.0-71.0","sub-14_ses-01_1","","","","set_stims","","","","","","","","","","","","","","","",""
"-1","-1","poldrack-single-stim","151","204372","0.0-72.0","sub-14_ses-01_1","","100","0","cue","","<div class = upperbox><div class = ""center-text"" >Couleur</div></div><div class = lowerbox><div class = fixation>+</div></div>","none","100","test","Couleur","orange","4","color","switch","switch","20","","","",""
"1369","89","poldrack-single-stim","152","206510","0.0-73.0","sub-14_ses-01_1","","2136","0","stim","","<div class = upperbox><div class = ""center-text"" >Couleur</div></div><div class = lowerbox><div class = ""stim-text"" style=color:orange;>4</div>","89,71","1000","test","Couleur","orange","4","color","switch","switch","20","true","89","",""
"","","call-function","153","206512","0.0-74.0","sub-14_ses-01_1","","","","set_stims","","","","","","","","","","","","","","","",""
"-1","-1","poldrack-single-stim","154","206632","0.0-75.0","sub-14_ses-01_1","","100","0","cue","","<div class = upperbox><div class = ""center-text"" >Haut-Bas</div></div><div class = lowerbox><div class = fixation>+</div></div>","none","100","test","Haut-Bas","#1F45FC","4","magnitude","switch","stay","21","","","",""
"1235","89","poldrack-single-stim","155","208651","0.0-76.0","sub-14_ses-01_1","","2000","0","stim","","<div class = upperbox><div class = ""center-text"" >Haut-Bas</div></div><div class = lowerbox><div class = ""stim-text"" style=color:#1F45FC;>4</div>","89,71","1000","test","Haut-Bas","#1F45FC","4","magnitude","switch","stay","21","true","89","",""
"","","call-function","156","208652","0.0-77.0","sub-14_ses-01_1","","","","set_stims","","","","","","","","","","","","","","","",""
"-1","-1","poldrack-single-stim","157","208771","0.0-78.0","sub-14_ses-01_1","","100","0","cue","","<div class = upperbox><div class = ""center-text"" >Haut-Bas</div></div><div class = lowerbox><div class = fixation>+</div></div>","none","100","test","Haut-Bas","#1F45FC","8","magnitude","stay","stay","22","","","",""
"1347","71","poldrack-single-stim","158","210781","0.0-79.0","sub-14_ses-01_1","","2000","0","stim","","<div class = upperbox><div class = ""center-text"" >Haut-Bas</div></div><div class = lowerbox><div class = ""stim-text"" style=color:#1F45FC;>8</div>","89,71","1000","test","Haut-Bas","#1F45FC","8","magnitude","stay","stay","22","true","71","",""
"","","call-function","159","210782","0.0-80.0","sub-14_ses-01_1","","","","set_stims","","","","","","","","","","","","","","","",""
"-1","-1","poldrack-single-stim","160","210902","0.0-81.0","sub-14_ses-01_1","","100","0","cue","","<div class = upperbox><div class = ""center-text"" >Couleur</div></div><div class = lowerbox><div class = fixation>+</div></div>","none","100","test","Couleur","#1F45FC","4","color","switch","stay","23","","","",""
"1280","71","poldrack-single-stim","161","212981","0.0-82.0","sub-14_ses-01_1","","2000","0","stim","","<div class = upperbox><div class = ""center-text"" >Couleur</div></div><div class = lowerbox><div class = ""stim-text"" style=color:#1F45FC;>4</div>","89,71","1000","test","Couleur","#1F45FC","4","color","switch","stay","23","true","71","",""
"","","call-function","162","212982","0.0-83.0","sub-14_ses-01_1","","","","set_stims","","","","","","","","","","","","","","","",""
"-1","-1","poldrack-single-stim","163","213907","0.0-84.0","sub-14_ses-01_1","","900","0","cue","","<div class = upperbox><div class = ""center-text"" >Orange-Bleu</div></div><div class = lowerbox><div class = fixation>+</div></div>","none","900","test","Orange-Bleu","orange","6","color","stay","switch","24","","","",""
"463","89","poldrack-single-stim","164","215921","0.0-85.0","sub-14_ses-01_1","","2000","0","stim","","<div class = upperbox><div class = ""center-text"" >Orange-Bleu</div></div><div class = lowerbox><div class = ""stim-text"" style=color:orange;>6</div>","89,71","1000","test","Orange-Bleu","orange","6","color","stay","switch","24","true","89","",""
"","","call-function","165","215922","0.0-86.0","sub-14_ses-01_1","","","","set_stims","","","","","","","","","","","","","","","",""
"-1","-1","poldrack-single-stim","166","216041","0.0-87.0","sub-14_ses-01_1","","100","0","cue","","<div class = upperbox><div class = ""center-text"" >Orange-Bleu</div></div><div class = lowerbox><div class = fixation>+</div></div>","none","100","test","Orange-Bleu","#1F45FC","4","color","stay","stay","25","","","",""
"1140","71","poldrack-single-stim","167","218061","0.0-88.0","sub-14_ses-01_1","","2000","0","stim","","<div class = upperbox><div class = ""center-text"" >Orange-Bleu</div></div><div class = lowerbox><div class = ""stim-text"" style=color:#1F45FC;>4</div>","89,71","1000","test","Orange-Bleu","#1F45FC","4","color","stay","stay","25","true","71","",""
"","","call-function","168","218062","0.0-89.0","sub-14_ses-01_1","","","","set_stims","","","","","","","","","","","","","","","",""
"-1","-1","poldrack-single-stim","169","218972","0.0-90.0","sub-14_ses-01_1","","900","0","cue","","<div class = upperbox><div class = ""center-text"" >Amplitude</div></div><div class = lowerbox><div class = fixation>+</div></div>","none","900","test","Amplitude","#1F45FC","4","magnitude","switch","switch","26","","","",""
"927","89","poldrack-single-stim","170","221111","0.0-91.0","sub-14_ses-01_1","","2136","0","stim","","<div class = upperbox><div class = ""center-text"" >Amplitude</div></div><div class = lowerbox><div class = ""stim-text"" style=color:#1F45FC;>4</div>","89,71","1000","test","Amplitude","#1F45FC","4","magnitude","switch","switch","26","true","89","",""
"","","call-function","171","221112","0.0-92.0","sub-14_ses-01_1","","","","set_stims","","","","","","","","","","","","","","","",""
"-1","-1","poldrack-single-stim","172","222031","0.0-93.0","sub-14_ses-01_1","","900","0","cue","","<div class = upperbox><div class = ""center-text"" >Amplitude</div></div><div class = lowerbox><div class = fixation>+</div></div>","none","900","test","Amplitude","orange","8","magnitude","stay","stay","27","","","",""
"878","71","poldrack-single-stim","173","224040","0.0-94.0","sub-14_ses-01_1","","2000","0","stim","","<div class = upperbox><div class = ""center-text"" >Amplitude</div></div><div class = lowerbox><div class = ""stim-text"" style=color:orange;>8</div>","89,71","1000","test","Amplitude","orange","8","magnitude","stay","stay","27","true","71","",""
"","","call-function","174","224041","0.0-95.0","sub-14_ses-01_1","","","","set_stims","","","","","","","","","","","","","","","",""
"-1","-1","poldrack-single-stim","175","224963","0.0-96.0","sub-14_ses-01_1","","900","0","cue","","<div class = upperbox><div class = ""center-text"" >Orange-Bleu</div></div><div class = lowerbox><div class = fixation>+</div></div>","none","900","test","Orange-Bleu","orange","7","color","switch","switch","28","","","",""
"589","89","poldrack-single-stim","176","226981","0.0-97.0","sub-14_ses-01_1","","2000","0","stim","","<div class = upperbox><div class = ""center-text"" >Orange-Bleu</div></div><div class = lowerbox><div class = ""stim-text"" style=color:orange;>7</div>","89,71","1000","test","Orange-Bleu","orange","7","color","switch","switch","28","true","89","",""
"","","call-function","177","226982","0.0-98.0","sub-14_ses-01_1","","","","set_stims","","","","","","","","","","","","","","","",""
"-1","-1","poldrack-single-stim","178","227101","0.0-99.0","sub-14_ses-01_1","","100","0","cue","","<div class = upperbox><div class = ""center-text"" >Couleur</div></div><div class = lowerbox><div class = fixation>+</div></div>","none","100","test","Couleur","orange","3","color","stay","switch","29","","","",""
"736","89","poldrack-single-stim","179","229242","0.0-100.0","sub-14_ses-01_1","","2136","0","stim","","<div class = upperbox><div class = ""center-text"" >Couleur</div></div><div class = lowerbox><div class = ""stim-text"" style=color:orange;>3</div>","89,71","1000","test","Couleur","orange","3","color","stay","switch","29","true","89","",""
"","","call-function","180","229243","0.0-101.0","sub-14_ses-01_1","","","","set_stims","","","","","","","","","","","","","","","",""
"-1","-1","poldrack-single-stim","181","229352","0.0-102.0","sub-14_ses-01_1","","100","0","cue","","<div class = upperbox><div class = ""center-text"" >Orange-Bleu</div></div><div class = lowerbox><div class = fixation>+</div></div>","none","100","test","Orange-Bleu","#1F45FC","1","color","stay","switch","30","","","",""
"821","71","poldrack-single-stim","182","231371","0.0-103.0","sub-14_ses-01_1","","2000","0","stim","","<div class = upperbox><div class = ""center-text"" >Orange-Bleu</div></div><div class = lowerbox><div class = ""stim-text"" style=color:#1F45FC;>1</div>","89,71","1000","test","Orange-Bleu","#1F45FC","1","color","stay","switch","30","true","71","",""
"","","call-function","183","231372","0.0-104.0","sub-14_ses-01_1","","","","set_stims","","","","","","","","","","","","","","","",""
"-1","-1","poldrack-single-stim","184","232292","0.0-105.0","sub-14_ses-01_1","","900","0","cue","","<div class = upperbox><div class = ""center-text"" >Haut-Bas</div></div><div class = lowerbox><div class = fixation>+</div></div>","none","900","test","Haut-Bas","orange","3","magnitude","switch","switch","31","","","",""
"772","89","poldrack-single-stim","185","234452","0.0-106.0","sub-14_ses-01_1","","2136","0","stim","","<div class = upperbox><div class = ""center-text"" >Haut-Bas</div></div><div class = lowerbox><div class = ""stim-text"" style=color:orange;>3</div>","89,71","1000","test","Haut-Bas","orange","3","magnitude","switch","switch","31","true","89","",""
"","","call-function","186","234453","0.0-107.0","sub-14_ses-01_1","","","","set_stims","","","","","","","","","","","","","","","",""
"-1","-1","poldrack-single-stim","187","234572","0.0-108.0","sub-14_ses-01_1","","100","0","cue","","<div class = upperbox><div class = ""center-text"" >Orange-Bleu</div></div><div class = lowerbox><div class = fixation>+</div></div>","none","100","test","Orange-Bleu","#1F45FC","1","color","switch","stay","32","","","",""
"1544","71","poldrack-single-stim","188","237287","0.0-109.0","sub-14_ses-01_1","","2680","0","stim","","<div class = upperbox><div class = ""center-text"" >Orange-Bleu</div></div><div class = lowerbox><div class = ""stim-text"" style=color:#1F45FC;>1</div>","89,71","1000","test","Orange-Bleu","#1F45FC","1","color","switch","stay","32","true","71","",""
"","","call-function","189","237288","0.0-110.0","sub-14_ses-01_1","","","","set_stims","","","","","","","","","","","","","","","",""
"-1","-1","poldrack-single-stim","190","237392","0.0-111.0","sub-14_ses-01_1","","100","0","cue","","<div class = upperbox><div class = ""center-text"" >Orange-Bleu</div></div><div class = lowerbox><div class = fixation>+</div></div>","none","100","test","Orange-Bleu","#1F45FC","7","color","stay","stay","33","","","",""
"1215","71","poldrack-single-stim","191","239670","0.0-112.0","sub-14_ses-01_1","","2272","0","stim","","<div class = upperbox><div class = ""center-text"" >Orange-Bleu</div></div><div class = lowerbox><div class = ""stim-text"" style=color:#1F45FC;>7</div>","89,71","1000","test","Orange-Bleu","#1F45FC","7","color","stay","stay","33","true","71","",""
"","","call-function","192","239670","0.0-113.0","sub-14_ses-01_1","","","","set_stims","","","","","","","","","","","","","","","",""
"-1","-1","poldrack-single-stim","193","240591","0.0-114.0","sub-14_ses-01_1","","900","0","cue","","<div class = upperbox><div class = ""center-text"" >Orange-Bleu</div></div><div class = lowerbox><div class = fixation>+</div></div>","none","900","test","Orange-Bleu","orange","1","color","stay","stay","34","","","",""
"404","89","poldrack-single-stim","194","242741","0.0-115.0","sub-14_ses-01_1","","2136","0","stim","","<div class = upperbox><div class = ""center-text"" >Orange-Bleu</div></div><div class = lowerbox><div class = ""stim-text"" style=color:orange;>1</div>","89,71","1000","test","Orange-Bleu","orange","1","color","stay","stay","34","true","89","",""
"","","call-function","195","242742","0.0-116.0","sub-14_ses-01_1","","","","set_stims","","","","","","","","","","","","","","","",""
"-1","-1","poldrack-single-stim","196","243662","0.0-117.0","sub-14_ses-01_1","","900","0","cue","","<div class = upperbox><div class = ""center-text"" >Haut-Bas</div></div><div class = lowerbox><div class = fixation>+</div></div>","none","900","test","Haut-Bas","#1F45FC","1","magnitude","switch","switch","35","","","",""
"441","89","poldrack-single-stim","197","245671","0.0-118.0","sub-14_ses-01_1","","2000","0","stim","","<div class = upperbox><div class = ""center-text"" >Haut-Bas</div></div><div class = lowerbox><div class = ""stim-text"" style=color:#1F45FC;>1</div>","89,71","1000","test","Haut-Bas","#1F45FC","1","magnitude","switch","switch","35","true","89","",""
"","","call-function","198","245671","0.0-119.0","sub-14_ses-01_1","","","","set_stims","","","","","","","","","","","","","","","",""
"-1","-1","poldrack-single-stim","199","245791","0.0-120.0","sub-14_ses-01_1","","100","0","cue","","<div class = upperbox><div class = ""center-text"" >Couleur</div></div><div class = lowerbox><div class = fixation>+</div></div>","none","100","test","Couleur","orange","2","color","switch","stay","36","","","",""
"1363","89","poldrack-single-stim","200","247931","0.0-121.0","sub-14_ses-01_1","","2136","0","stim","","<div class = upperbox><div class = ""center-text"" >Couleur</div></div><div class = lowerbox><div class = ""stim-text"" style=color:orange;>2</div>","89,71","1000","test","Couleur","orange","2","color","switch","stay","36","true","89","",""
"","","call-function","201","247933","0.0-122.0","sub-14_ses-01_1","","","","set_stims","","","","","","","","","","","","","","","",""
"-1","-1","poldrack-single-stim","202","248851","0.0-123.0","sub-14_ses-01_1","","900","0","cue","","<div class = upperbox><div class = ""center-text"" >Haut-Bas</div></div><div class = lowerbox><div class = fixation>+</div></div>","none","900","test","Haut-Bas","orange","1","magnitude","switch","switch","37","","","",""
"491","89","poldrack-single-stim","203","251551","0.0-124.0","sub-14_ses-01_1","","2680","0","stim","","<div class = upperbox><div class = ""center-text"" >Haut-Bas</div></div><div class = lowerbox><div class = ""stim-text"" style=color:orange;>1</div>","89,71","1000","test","Haut-Bas","orange","1","magnitude","switch","switch","37","true","89","",""
"","","call-function","204","251553","0.0-125.0","sub-14_ses-01_1","","","","set_stims","","","","","","","","","","","","","","","",""
"-1","-1","poldrack-single-stim","205","252472","0.0-126.0","sub-14_ses-01_1","","900","0","cue","","<div class = upperbox><div class = ""center-text"" >Couleur</div></div><div class = lowerbox><div class = fixation>+</div></div>","none","900","test","Couleur","#1F45FC","6","color","switch","stay","38","","","",""
"697","71","poldrack-single-stim","206","254752","0.0-127.0","sub-14_ses-01_1","","2272","0","stim","","<div class = upperbox><div class = ""center-text"" >Couleur</div></div><div class = lowerbox><div class = ""stim-text"" style=color:#1F45FC;>6</div>","89,71","1000","test","Couleur","#1F45FC","6","color","switch","stay","38","true","71","",""
"","","call-function","207","254752","0.0-128.0","sub-14_ses-01_1","","","","set_stims","","","","","","","","","","","","","","","",""
"-1","-1","poldrack-single-stim","208","254871","0.0-129.0","sub-14_ses-01_1","","100","0","cue","","<div class = upperbox><div class = ""center-text"" >Orange-Bleu</div></div><div class = lowerbox><div class = fixation>+</div></div>","none","100","test","Orange-Bleu","#1F45FC","6","color","stay","switch","39","","","",""
"737","71","poldrack-single-stim","209","256891","0.0-130.0","sub-14_ses-01_1","","2000","0","stim","","<div class = upperbox><div class = ""center-text"" >Orange-Bleu</div></div><div class = lowerbox><div class = ""stim-text"" style=color:#1F45FC;>6</div>","89,71","1000","test","Orange-Bleu","#1F45FC","6","color","stay","switch","39","true","71","",""
"","","call-function","210","256893","0.0-131.0","sub-14_ses-01_1","","","","set_stims","","","","","","","","","","","","","","","",""
"-1","-1","poldrack-single-stim","211","257812","0.0-132.0","sub-14_ses-01_1","","900","0","cue","","<div class = upperbox><div class = ""center-text"" >Haut-Bas</div></div><div class = lowerbox><div class = fixation>+</div></div>","none","900","test","Haut-Bas","#1F45FC","4","magnitude","switch","stay","40","","","",""
"477","89","poldrack-single-stim","212","259832","0.0-133.0","sub-14_ses-01_1","","2000","0","stim","","<div class = upperbox><div class = ""center-text"" >Haut-Bas</div></div><div class = lowerbox><div class = ""stim-text"" style=color:#1F45FC;>4</div>","89,71","1000","test","Haut-Bas","#1F45FC","4","magnitude","switch","stay","40","true","89","",""
"","","call-function","213","259833","0.0-134.0","sub-14_ses-01_1","","","","set_stims","","","","","","","","","","","","","","","",""
"-1","-1","poldrack-single-stim","214","259953","0.0-135.0","sub-14_ses-01_1","","100","0","cue","","<div class = upperbox><div class = ""center-text"" >Haut-Bas</div></div><div class = lowerbox><div class = fixation>+</div></div>","none","100","test","Haut-Bas","#1F45FC","4","magnitude","stay","stay","41","","","",""
"761","89","poldrack-single-stim","215","262111","0.0-136.0","sub-14_ses-01_1","","2136","0","stim","","<div class = upperbox><div class = ""center-text"" >Haut-Bas</div></div><div class = lowerbox><div class = ""stim-text"" style=color:#1F45FC;>4</div>","89,71","1000","test","Haut-Bas","#1F45FC","4","magnitude","stay","stay","41","true","89","",""
"","","call-function","216","262112","0.0-137.0","sub-14_ses-01_1","","","","set_stims","","","","","","","","","","","","","","","",""
"-1","-1","poldrack-single-stim","217","262232","0.0-138.0","sub-14_ses-01_1","","100","0","cue","","<div class = upperbox><div class = ""center-text"" >Haut-Bas</div></div><div class = lowerbox><div class = fixation>+</div></div>","none","100","test","Haut-Bas","orange","1","magnitude","stay","stay","42","","","",""
"770","89","poldrack-single-stim","218","264251","0.0-139.0","sub-14_ses-01_1","","2000","0","stim","","<div class = upperbox><div class = ""center-text"" >Haut-Bas</div></div><div class = lowerbox><div class = ""stim-text"" style=color:orange;>1</div>","89,71","1000","test","Haut-Bas","orange","1","magnitude","stay","stay","42","true","89","",""
"","","call-function","219","264253","0.0-140.0","sub-14_ses-01_1","","","","set_stims","","","","","","","","","","","","","","","",""
"-1","-1","poldrack-single-stim","220","265171","0.0-141.0","sub-14_ses-01_1","","900","0","cue","","<div class = upperbox><div class = ""center-text"" >Haut-Bas</div></div><div class = lowerbox><div class = fixation>+</div></div>","none","900","test","Haut-Bas","orange","9","magnitude","stay","stay","43","","","",""
"447","71","poldrack-single-stim","221","267192","0.0-142.0","sub-14_ses-01_1","","2000","0","stim","","<div class = upperbox><div class = ""center-text"" >Haut-Bas</div></div><div class = lowerbox><div class = ""stim-text"" style=color:orange;>9</div>","89,71","1000","test","Haut-Bas","orange","9","magnitude","stay","stay","43","true","71","",""
"","","call-function","222","267192","0.0-143.0","sub-14_ses-01_1","","","","set_stims","","","","","","","","","","","","","","","",""
"-1","-1","poldrack-single-stim","223","268110","0.0-144.0","sub-14_ses-01_1","","900","0","cue","","<div class = upperbox><div class = ""center-text"" >Amplitude</div></div><div class = lowerbox><div class = fixation>+</div></div>","none","900","test","Amplitude","#1F45FC","1","magnitude","stay","switch","44","","","",""
"430","89","poldrack-single-stim","224","270131","0.0-145.0","sub-14_ses-01_1","","2000","0","stim","","<div class = upperbox><div class = ""center-text"" >Amplitude</div></div><div class = lowerbox><div class = ""stim-text"" style=color:#1F45FC;>1</div>","89,71","1000","test","Amplitude","#1F45FC","1","magnitude","stay","switch","44","true","89","",""
"","","call-function","225","270132","0.0-146.0","sub-14_ses-01_1","","","","set_stims","","","","","","","","","","","","","","","",""
"-1","-1","poldrack-single-stim","226","270258","0.0-147.0","sub-14_ses-01_1","","100","0","cue","","<div class = upperbox><div class = ""center-text"" >Orange-Bleu</div></div><div class = lowerbox><div class = fixation>+</div></div>","none","100","test","Orange-Bleu","#1F45FC","9","color","switch","stay","45","","","",""
"926","71","poldrack-single-stim","227","272543","0.0-148.0","sub-14_ses-01_1","","2272","0","stim","","<div class = upperbox><div class = ""center-text"" >Orange-Bleu</div></div><div class = lowerbox><div class = ""stim-text"" style=color:#1F45FC;>9</div>","89,71","1000","test","Orange-Bleu","#1F45FC","9","color","switch","stay","45","true","71","",""
"","","call-function","228","272544","0.0-149.0","sub-14_ses-01_1","","","","set_stims","","","","","","","","","","","","","","","",""
"-1","-1","poldrack-single-stim","229","273461","0.0-150.0","sub-14_ses-01_1","","900","0","cue","","<div class = upperbox><div class = ""center-text"" >Haut-Bas</div></div><div class = lowerbox><div class = fixation>+</div></div>","none","900","test","Haut-Bas","orange","6","magnitude","switch","stay","46","","","",""
"553","71","poldrack-single-stim","230","275882","0.0-151.0","sub-14_ses-01_1","","2408","0","stim","","<div class = upperbox><div class = ""center-text"" >Haut-Bas</div></div><div class = lowerbox><div class = ""stim-text"" style=color:orange;>6</div>","89,71","1000","test","Haut-Bas","orange","6","magnitude","switch","stay","46","true","71","",""
"","","call-function","231","275882","0.0-152.0","sub-14_ses-01_1","","","","set_stims","","","","","","","","","","","","","","","",""
"-1","-1","poldrack-single-stim","232","276002","0.0-153.0","sub-14_ses-01_1","","100","0","cue","","<div class = upperbox><div class = ""center-text"" >Haut-Bas</div></div><div class = lowerbox><div class = fixation>+</div></div>","none","100","test","Haut-Bas","orange","3","magnitude","stay","stay","47","","","",""
"849","89","poldrack-single-stim","233","278021","0.0-154.0","sub-14_ses-01_1","","2000","0","stim","","<div class = upperbox><div class = ""center-text"" >Haut-Bas</div></div><div class = lowerbox><div class = ""stim-text"" style=color:orange;>3</div>","89,71","1000","test","Haut-Bas","orange","3","magnitude","stay","stay","47","true","89","",""
"","","call-function","234","278022","0.0-155.0","sub-14_ses-01_1","","","","set_stims","","","","","","","","","","","","","","","",""
"-1","-1","poldrack-single-stim","235","278140","0.0-156.0","sub-14_ses-01_1","","100","0","cue","","<div class = upperbox><div class = ""center-text"" >Haut-Bas</div></div><div class = lowerbox><div class = fixation>+</div></div>","none","100","test","Haut-Bas","#1F45FC","9","magnitude","stay","stay","48","","","",""
"1029","71","poldrack-single-stim","236","280162","0.0-157.0","sub-14_ses-01_1","","2000","0","stim","","<div class = upperbox><div class = ""center-text"" >Haut-Bas</div></div><div class = lowerbox><div class = ""stim-text"" style=color:#1F45FC;>9</div>","89,71","1000","test","Haut-Bas","#1F45FC","9","magnitude","stay","stay","48","true","71","",""
"","","call-function","237","280162","0.0-158.0","sub-14_ses-01_1","","","","set_stims","","","","","","","","","","","","","","","",""
"-1","-1","poldrack-single-stim","238","281083","0.0-159.0","sub-14_ses-01_1","","900","0","cue","","<div class = upperbox><div class = ""center-text"" >Couleur</div></div><div class = lowerbox><div class = fixation>+</div></div>","none","900","test","Couleur","#1F45FC","9","color","switch","stay","49","","","",""
"497","71","poldrack-single-stim","239","283101","0.0-160.0","sub-14_ses-01_1","","2000","0","stim","","<div class = upperbox><div class = ""center-text"" >Couleur</div></div><div class = lowerbox><div class = ""stim-text"" style=color:#1F45FC;>9</div>","89,71","1000","test","Couleur","#1F45FC","9","color","switch","stay","49","true","71","",""
"","","call-function","240","283103","0.0-161.0","sub-14_ses-01_1","","","","set_stims","","","","","","","","","","","","","","","",""
"-1","-1","poldrack-single-stim","241","284012","0.0-162.0","sub-14_ses-01_1","","900","0","cue","","<div class = upperbox><div class = ""center-text"" >Amplitude</div></div><div class = lowerbox><div class = fixation>+</div></div>","none","900","test","Amplitude","orange","2","magnitude","switch","switch","50","","","",""
"438","89","poldrack-single-stim","242","286290","0.0-163.0","sub-14_ses-01_1","","2272","0","stim","","<div class = upperbox><div class = ""center-text"" >Amplitude</div></div><div class = lowerbox><div class = ""stim-text"" style=color:orange;>2</div>","89,71","1000","test","Amplitude","orange","2","magnitude","switch","switch","50","true","89","",""
"","","call-function","243","286291","0.0-164.0","sub-14_ses-01_1","","","","set_stims","","","","","","","","","","","","","","","",""
"-1","-1","poldrack-single-stim","244","286411","0.0-165.0","sub-14_ses-01_1","","100","0","cue","","<div class = upperbox><div class = ""center-text"" >Amplitude</div></div><div class = lowerbox><div class = fixation>+</div></div>","none","100","test","Amplitude","#1F45FC","1","magnitude","stay","stay","51","","","",""
"652","89","poldrack-single-stim","245","288551","0.0-166.0","sub-14_ses-01_1","","2136","0","stim","","<div class = upperbox><div class = ""center-text"" >Amplitude</div></div><div class = lowerbox><div class = ""stim-text"" style=color:#1F45FC;>1</div>","89,71","1000","test","Amplitude","#1F45FC","1","magnitude","stay","stay","51","true","89","",""
"","","call-function","246","288553","0.0-167.0","sub-14_ses-01_1","","","","set_stims","","","","","","","","","","","","","","","",""
"-1","-1","poldrack-single-stim","247","289473","0.0-168.0","sub-14_ses-01_1","","900","0","cue","","<div class = upperbox><div class = ""center-text"" >Couleur</div></div><div class = lowerbox><div class = fixation>+</div></div>","none","900","test","Couleur","orange","4","color","switch","switch","52","","","",""
"579","89","poldrack-single-stim","248","291481","0.0-169.0","sub-14_ses-01_1","","2000","0","stim","","<div class = upperbox><div class = ""center-text"" >Couleur</div></div><div class = lowerbox><div class = ""stim-text"" style=color:orange;>4</div>","89,71","1000","test","Couleur","orange","4","color","switch","switch","52","true","89","",""
"","","call-function","249","291482","0.0-170.0","sub-14_ses-01_1","","","","set_stims","","","","","","","","","","","","","","","",""
"-1","-1","poldrack-single-stim","250","292402","0.0-171.0","sub-14_ses-01_1","","900","0","cue","","<div class = upperbox><div class = ""center-text"" >Orange-Bleu</div></div><div class = lowerbox><div class = fixation>+</div></div>","none","900","test","Orange-Bleu","orange","1","color","stay","switch","53","","","",""
"950","89","poldrack-single-stim","251","294961","0.0-172.0","sub-14_ses-01_1","","2544","0","stim","","<div class = upperbox><div class = ""center-text"" >Orange-Bleu</div></div><div class = lowerbox><div class = ""stim-text"" style=color:orange;>1</div>","89,71","1000","test","Orange-Bleu","orange","1","color","stay","switch","53","true","89","",""
"","","call-function","252","294962","0.0-173.0","sub-14_ses-01_1","","","","set_stims","","","","","","","","","","","","","","","",""
"-1","-1","poldrack-single-stim","253","295882","0.0-174.0","sub-14_ses-01_1","","900","0","cue","","<div class = upperbox><div class = ""center-text"" >Amplitude</div></div><div class = lowerbox><div class = fixation>+</div></div>","none","900","test","Amplitude","orange","3","magnitude","switch","switch","54","","","",""
"441","89","poldrack-single-stim","254","298161","0.0-175.0","sub-14_ses-01_1","","2272","0","stim","","<div class = upperbox><div class = ""center-text"" >Amplitude</div></div><div class = lowerbox><div class = ""stim-text"" style=color:orange;>3</div>","89,71","1000","test","Amplitude","orange","3","magnitude","switch","switch","54","true","89","",""
"","","call-function","255","298162","0.0-176.0","sub-14_ses-01_1","","","","set_stims","","","","","","","","","","","","","","","",""
"-1","-1","poldrack-single-stim","256","299071","0.0-177.0","sub-14_ses-01_1","","900","0","cue","","<div class = upperbox><div class = ""center-text"" >Amplitude</div></div><div class = lowerbox><div class = fixation>+</div></div>","none","900","test","Amplitude","orange","2","magnitude","stay","stay","55","","","",""
"443","89","poldrack-single-stim","257","301352","0.0-178.0","sub-14_ses-01_1","","2272","0","stim","","<div class = upperbox><div class = ""center-text"" >Amplitude</div></div><div class = lowerbox><div class = ""stim-text"" style=color:orange;>2</div>","89,71","1000","test","Amplitude","orange","2","magnitude","stay","stay","55","true","89","",""
"","","call-function","258","301352","0.0-179.0","sub-14_ses-01_1","","","","set_stims","","","","","","","","","","","","","","","",""
"-1","-1","poldrack-single-stim","259","301471","0.0-180.0","sub-14_ses-01_1","","100","0","cue","","<div class = upperbox><div class = ""center-text"" >Haut-Bas</div></div><div class = lowerbox><div class = fixation>+</div></div>","none","100","test","Haut-Bas","#1F45FC","7","magnitude","stay","switch","56","","","",""
"867","71","poldrack-single-stim","260","303491","0.0-181.0","sub-14_ses-01_1","","2000","0","stim","","<div class = upperbox><div class = ""center-text"" >Haut-Bas</div></div><div class = lowerbox><div class = ""stim-text"" style=color:#1F45FC;>7</div>","89,71","1000","test","Haut-Bas","#1F45FC","7","magnitude","stay","switch","56","true","71","",""
"","","call-function","261","303492","0.0-182.0","sub-14_ses-01_1","","","","set_stims","","","","","","","","","","","","","","","",""
"-1","-1","poldrack-single-stim","262","303612","0.0-183.0","sub-14_ses-01_1","","100","0","cue","","<div class = upperbox><div class = ""center-text"" >Haut-Bas</div></div><div class = lowerbox><div class = fixation>+</div></div>","none","100","test","Haut-Bas","orange","2","magnitude","stay","stay","57","","","",""
"745","89","poldrack-single-stim","263","305622","0.0-184.0","sub-14_ses-01_1","","2000","0","stim","","<div class = upperbox><div class = ""center-text"" >Haut-Bas</div></div><div class = lowerbox><div class = ""stim-text"" style=color:orange;>2</div>","89,71","1000","test","Haut-Bas","orange","2","magnitude","stay","stay","57","true","89","",""
"","","call-function","264","305622","0.0-185.0","sub-14_ses-01_1","","","","set_stims","","","","","","","","","","","","","","","",""
"-1","-1","poldrack-single-stim","265","306540","0.0-186.0","sub-14_ses-01_1","","900","0","cue","","<div class = upperbox><div class = ""center-text"" >Orange-Bleu</div></div><div class = lowerbox><div class = fixation>+</div></div>","none","900","test","Orange-Bleu","orange","1","color","switch","stay","58","","","",""
"434","89","poldrack-single-stim","266","308692","0.0-187.0","sub-14_ses-01_1","","2136","0","stim","","<div class = upperbox><div class = ""center-text"" >Orange-Bleu</div></div><div class = lowerbox><div class = ""stim-text"" style=color:orange;>1</div>","89,71","1000","test","Orange-Bleu","orange","1","color","switch","stay","58","true","89","",""
"","","call-function","267","308693","0.0-188.0","sub-14_ses-01_1","","","","set_stims","","","","","","","","","","","","","","","",""
"-1","-1","poldrack-single-stim","268","308811","0.0-189.0","sub-14_ses-01_1","","100","0","cue","","<div class = upperbox><div class = ""center-text"" >Haut-Bas</div></div><div class = lowerbox><div class = fixation>+</div></div>","none","100","test","Haut-Bas","orange","6","magnitude","switch","switch","59","","","",""
"1104","71","poldrack-single-stim","269","310832","0.0-190.0","sub-14_ses-01_1","","2000","0","stim","","<div class = upperbox><div class = ""center-text"" >Haut-Bas</div></div><div class = lowerbox><div class = ""stim-text"" style=color:orange;>6</div>","89,71","1000","test","Haut-Bas","orange","6","magnitude","switch","switch","59","true","71","",""
"","","call-function","270","310834","0.0-191.0","sub-14_ses-01_1","","","","set_stims","","","","","","","","","","","","","","","",""
"-1","-1","poldrack-single-stim","271","311752","0.0-192.0","sub-14_ses-01_1","","900","0","cue","","<div class = upperbox><div class = ""center-text"" >Amplitude</div></div><div class = lowerbox><div class = fixation>+</div></div>","none","900","test","Amplitude","orange","2","magnitude","stay","switch","60","","","",""
"449","89","poldrack-single-stim","272","313891","0.0-193.0","sub-14_ses-01_1","","2136","0","stim","","<div class = upperbox><div class = ""center-text"" >Amplitude</div></div><div class = lowerbox><div class = ""stim-text"" style=color:orange;>2</div>","89,71","1000","test","Amplitude","orange","2","magnitude","stay","switch","60","true","89","",""
"","","call-function","273","313893","0.0-194.0","sub-14_ses-01_1","","","","set_stims","","","","","","","","","","","","","","","",""
"-1","-1","poldrack-single-stim","274","314011","0.0-195.0","sub-14_ses-01_1","","100","0","cue","","<div class = upperbox><div class = ""center-text"" >Couleur</div></div><div class = lowerbox><div class = fixation>+</div></div>","none","100","test","Couleur","#1F45FC","1","color","switch","switch","61","","","",""
"1048","71","poldrack-single-stim","275","316291","0.0-196.0","sub-14_ses-01_1","","2272","0","stim","","<div class = upperbox><div class = ""center-text"" >Couleur</div></div><div class = lowerbox><div class = ""stim-text"" style=color:#1F45FC;>1</div>","89,71","1000","test","Couleur","#1F45FC","1","color","switch","switch","61","true","71","",""
"","","call-function","276","316293","0.0-197.0","sub-14_ses-01_1","","","","set_stims","","","","","","","","","","","","","","","",""
"-1","-1","poldrack-single-stim","277","317203","0.0-198.0","sub-14_ses-01_1","","900","0","cue","","<div class = upperbox><div class = ""center-text"" >Haut-Bas</div></div><div class = lowerbox><div class = fixation>+</div></div>","none","900","test","Haut-Bas","orange","7","magnitude","switch","switch","62","","","",""
"458","71","poldrack-single-stim","278","319342","0.0-199.0","sub-14_ses-01_1","","2136","0","stim","","<div class = upperbox><div class = ""center-text"" >Haut-Bas</div></div><div class = lowerbox><div class = ""stim-text"" style=color:orange;>7</div>","89,71","1000","test","Haut-Bas","orange","7","magnitude","switch","switch","62","true","71","",""
"","","call-function","279","319344","0.0-200.0","sub-14_ses-01_1","","","","set_stims","","","","","","","","","","","","","","","",""
"-1","-1","poldrack-single-stim","280","320262","0.0-201.0","sub-14_ses-01_1","","900","0","cue","","<div class = upperbox><div class = ""center-text"" >Haut-Bas</div></div><div class = lowerbox><div class = fixation>+</div></div>","none","900","test","Haut-Bas","orange","3","magnitude","stay","stay","63","","","",""
"411","89","poldrack-single-stim","281","322541","0.0-202.0","sub-14_ses-01_1","","2272","0","stim","","<div class = upperbox><div class = ""center-text"" >Haut-Bas</div></div><div class = lowerbox><div class = ""stim-text"" style=color:orange;>3</div>","89,71","1000","test","Haut-Bas","orange","3","magnitude","stay","stay","63","true","89","",""
"","","call-function","282","322543","0.0-203.0","sub-14_ses-01_1","","","","set_stims","","","","","","","","","","","","","","","",""
"-1","-1","poldrack-single-stim","283","323460","0.0-204.0","sub-14_ses-01_1","","900","0","cue","","<div class = upperbox><div class = ""center-text"" >Couleur</div></div><div class = lowerbox><div class = fixation>+</div></div>","none","900","test","Couleur","#1F45FC","2","color","switch","stay","64","","","",""
"426","71","poldrack-single-stim","284","325472","0.0-205.0","sub-14_ses-01_1","","2000","0","stim","","<div class = upperbox><div class = ""center-text"" >Couleur</div></div><div class = lowerbox><div class = ""stim-text"" style=color:#1F45FC;>2</div>","89,71","1000","test","Couleur","#1F45FC","2","color","switch","stay","64","true","71","",""
"","","call-function","285","325472","0.0-206.0","sub-14_ses-01_1","","","","set_stims","","","","","","","","","","","","","","","",""
"-1","-1","poldrack-single-stim","286","325591","0.0-207.0","sub-14_ses-01_1","","100","0","cue","","<div class = upperbox><div class = ""center-text"" >Couleur</div></div><div class = lowerbox><div class = fixation>+</div></div>","none","100","test","Couleur","#1F45FC","9","color","stay","stay","65","","","",""
"659","71","poldrack-single-stim","287","328412","0.0-208.0","sub-14_ses-01_1","","2816","0","stim","","<div class = upperbox><div class = ""center-text"" >Couleur</div></div><div class = lowerbox><div class = ""stim-text"" style=color:#1F45FC;>9</div>","89,71","1000","test","Couleur","#1F45FC","9","color","stay","stay","65","true","71","",""
"","","call-function","288","328412","0.0-209.0","sub-14_ses-01_1","","","","set_stims","","","","","","","","","","","","","","","",""
"-1","-1","poldrack-single-stim","289","329332","0.0-210.0","sub-14_ses-01_1","","900","0","cue","","<div class = upperbox><div class = ""center-text"" >Orange-Bleu</div></div><div class = lowerbox><div class = fixation>+</div></div>","none","900","test","Orange-Bleu","orange","2","color","stay","switch","66","","","",""
"899","89","poldrack-single-stim","290","331751","0.0-211.0","sub-14_ses-01_1","","2408","0","stim","","<div class = upperbox><div class = ""center-text"" >Orange-Bleu</div></div><div class = lowerbox><div class = ""stim-text"" style=color:orange;>2</div>","89,71","1000","test","Orange-Bleu","orange","2","color","stay","switch","66","true","89","",""
"","","call-function","291","331752","0.0-212.0","sub-14_ses-01_1","","","","set_stims","","","","","","","","","","","","","","","",""
"-1","-1","poldrack-single-stim","292","331861","0.0-213.0","sub-14_ses-01_1","","100","0","cue","","<div class = upperbox><div class = ""center-text"" >Orange-Bleu</div></div><div class = lowerbox><div class = fixation>+</div></div>","none","100","test","Orange-Bleu","#1F45FC","9","color","stay","stay","67","","","",""
"646","71","poldrack-single-stim","293","333872","0.0-214.0","sub-14_ses-01_1","","2000","0","stim","","<div class = upperbox><div class = ""center-text"" >Orange-Bleu</div></div><div class = lowerbox><div class = ""stim-text"" style=color:#1F45FC;>9</div>","89,71","1000","test","Orange-Bleu","#1F45FC","9","color","stay","stay","67","true","71","",""
"","","call-function","294","333872","0.0-215.0","sub-14_ses-01_1","","","","set_stims","","","","","","","","","","","","","","","",""
"-1","-1","poldrack-single-stim","295","333992","0.0-216.0","sub-14_ses-01_1","","100","0","cue","","<div class = upperbox><div class = ""center-text"" >Orange-Bleu</div></div><div class = lowerbox><div class = fixation>+</div></div>","none","100","test","Orange-Bleu","#1F45FC","6","color","stay","stay","68","","","",""
"841","71","poldrack-single-stim","296","336552","0.0-217.0","sub-14_ses-01_1","","2544","0","stim","","<div class = upperbox><div class = ""center-text"" >Orange-Bleu</div></div><div class = lowerbox><div class = ""stim-text"" style=color:#1F45FC;>6</div>","89,71","1000","test","Orange-Bleu","#1F45FC","6","color","stay","stay","68","true","71","",""
"","","call-function","297","336553","0.0-218.0","sub-14_ses-01_1","","","","set_stims","","","","","","","","","","","","","","","",""
"-1","-1","poldrack-single-stim","298","337472","0.0-219.0","sub-14_ses-01_1","","900","0","cue","","<div class = upperbox><div class = ""center-text"" >Amplitude</div></div><div class = lowerbox><div class = fixation>+</div></div>","none","900","test","Amplitude","#1F45FC","8","magnitude","switch","switch","69","","","",""
"479","71","poldrack-single-stim","299","339612","0.0-220.0","sub-14_ses-01_1","","2136","0","stim","","<div class = upperbox><div class = ""center-text"" >Amplitude</div></div><div class = lowerbox><div class = ""stim-text"" style=color:#1F45FC;>8</div>","89,71","1000","test","Amplitude","#1F45FC","8","magnitude","switch","switch","69","true","71","",""
"","","call-function","300","339613","0.0-221.0","sub-14_ses-01_1","","","","set_stims","","","","","","","","","","","","","","","",""
"-1","-1","poldrack-single-stim","301","340532","0.0-222.0","sub-14_ses-01_1","","900","0","cue","","<div class = upperbox><div class = ""center-text"" >Couleur</div></div><div class = lowerbox><div class = fixation>+</div></div>","none","900","test","Couleur","orange","1","color","switch","stay","70","","","",""
"681","89","poldrack-single-stim","302","342552","0.0-223.0","sub-14_ses-01_1","","2000","0","stim","","<div class = upperbox><div class = ""center-text"" >Couleur</div></div><div class = lowerbox><div class = ""stim-text"" style=color:orange;>1</div>","89,71","1000","test","Couleur","orange","1","color","switch","stay","70","true","89","",""
"","","call-function","303","342552","0.0-224.0","sub-14_ses-01_1","","","","set_stims","","","","","","","","","","","","","","","",""
"-1","-1","poldrack-single-stim","304","342670","0.0-225.0","sub-14_ses-01_1","","100","0","cue","","<div class = upperbox><div class = ""center-text"" >Couleur</div></div><div class = lowerbox><div class = fixation>+</div></div>","none","100","test","Couleur","orange","2","color","stay","stay","71","","","",""
"812","89","poldrack-single-stim","305","344681","0.0-226.0","sub-14_ses-01_1","","2000","0","stim","","<div class = upperbox><div class = ""center-text"" >Couleur</div></div><div class = lowerbox><div class = ""stim-text"" style=color:orange;>2</div>","89,71","1000","test","Couleur","orange","2","color","stay","stay","71","true","89","",""
"","","call-function","306","344682","0.0-227.0","sub-14_ses-01_1","","","","set_stims","","","","","","","","","","","","","","","",""
"-1","-1","poldrack-single-stim","307","344802","0.0-228.0","sub-14_ses-01_1","","100","0","cue","","<div class = upperbox><div class = ""center-text"" >Orange-Bleu</div></div><div class = lowerbox><div class = fixation>+</div></div>","none","100","test","Orange-Bleu","#1F45FC","2","color","stay","switch","72","","","",""
"619","71","poldrack-single-stim","308","346961","0.0-229.0","sub-14_ses-01_1","","2136","0","stim","","<div class = upperbox><div class = ""center-text"" >Orange-Bleu</div></div><div class = lowerbox><div class = ""stim-text"" style=color:#1F45FC;>2</div>","89,71","1000","test","Orange-Bleu","#1F45FC","2","color","stay","switch","72","true","71","",""
"","","call-function","309","346962","0.0-230.0","sub-14_ses-01_1","","","","set_stims","","","","","","","","","","","","","","","",""
"-1","-1","poldrack-single-stim","310","347082","0.0-231.0","sub-14_ses-01_1","","100","0","cue","","<div class = upperbox><div class = ""center-text"" >Orange-Bleu</div></div><div class = lowerbox><div class = fixation>+</div></div>","none","100","test","Orange-Bleu","orange","7","color","stay","stay","73","","","",""
"911","89","poldrack-single-stim","311","349222","0.0-232.0","sub-14_ses-01_1","","2136","0","stim","","<div class = upperbox><div class = ""center-text"" >Orange-Bleu</div></div><div class = lowerbox><div class = ""stim-text"" style=color:orange;>7</div>","89,71","1000","test","Orange-Bleu","orange","7","color","stay","stay","73","true","89","",""
"","","call-function","312","349224","0.0-233.0","sub-14_ses-01_1","","","","set_stims","","","","","","","","","","","","","","","",""
"-1","-1","poldrack-single-stim","313","349341","0.0-234.0","sub-14_ses-01_1","","100","0","cue","","<div class = upperbox><div class = ""center-text"" >Amplitude</div></div><div class = lowerbox><div class = fixation>+</div></div>","none","100","test","Amplitude","#1F45FC","8","magnitude","switch","stay","74","","","",""
"933","71","poldrack-single-stim","314","351630","0.0-235.0","sub-14_ses-01_1","","2272","0","stim","","<div class = upperbox><div class = ""center-text"" >Amplitude</div></div><div class = lowerbox><div class = ""stim-text"" style=color:#1F45FC;>8</div>","89,71","1000","test","Amplitude","#1F45FC","8","magnitude","switch","stay","74","true","71","",""
"","","call-function","315","351631","0.0-236.0","sub-14_ses-01_1","","","","set_stims","","","","","","","","","","","","","","","",""
"-1","-1","poldrack-single-stim","316","352551","0.0-237.0","sub-14_ses-01_1","","900","0","cue","","<div class = upperbox><div class = ""center-text"" >Haut-Bas</div></div><div class = lowerbox><div class = fixation>+</div></div>","none","900","test","Haut-Bas","#1F45FC","3","magnitude","stay","switch","75","","","",""
"460","89","poldrack-single-stim","317","355791","0.0-238.0","sub-14_ses-01_1","","3224","0","stim","","<div class = upperbox><div class = ""center-text"" >Haut-Bas</div></div><div class = lowerbox><div class = ""stim-text"" style=color:#1F45FC;>3</div>","89,71","1000","test","Haut-Bas","#1F45FC","3","magnitude","stay","switch","75","true","89","",""
"","","call-function","318","355792","0.0-239.0","sub-14_ses-01_1","","","","set_stims","","","","","","","","","","","","","","","",""
"-1","-1","poldrack-single-stim","319","355901","0.0-240.0","sub-14_ses-01_1","","100","0","cue","","<div class = upperbox><div class = ""center-text"" >Amplitude</div></div><div class = lowerbox><div class = fixation>+</div></div>","none","100","test","Amplitude","#1F45FC","6","magnitude","stay","switch","76","","","",""
"855","71","poldrack-single-stim","320","357922","0.0-241.0","sub-14_ses-01_1","","2000","0","stim","","<div class = upperbox><div class = ""center-text"" >Amplitude</div></div><div class = lowerbox><div class = ""stim-text"" style=color:#1F45FC;>6</div>","89,71","1000","test","Amplitude","#1F45FC","6","magnitude","stay","switch","76","true","71","",""
"","","call-function","321","357923","0.0-242.0","sub-14_ses-01_1","","","","set_stims","","","","","","","","","","","","","","","",""
"-1","-1","poldrack-single-stim","322","358040","0.0-243.0","sub-14_ses-01_1","","100","0","cue","","<div class = upperbox><div class = ""center-text"" >Couleur</div></div><div class = lowerbox><div class = fixation>+</div></div>","none","100","test","Couleur","#1F45FC","9","color","switch","stay","77","","","",""
"1075","71","poldrack-single-stim","323","360062","0.0-244.0","sub-14_ses-01_1","","2000","0","stim","","<div class = upperbox><div class = ""center-text"" >Couleur</div></div><div class = lowerbox><div class = ""stim-text"" style=color:#1F45FC;>9</div>","89,71","1000","test","Couleur","#1F45FC","9","color","switch","stay","77","true","71","",""
"","","call-function","324","360063","0.0-245.0","sub-14_ses-01_1","","","","set_stims","","","","","","","","","","","","","","","",""
"-1","-1","poldrack-single-stim","325","360982","0.0-246.0","sub-14_ses-01_1","","900","0","cue","","<div class = upperbox><div class = ""center-text"" >Haut-Bas</div></div><div class = lowerbox><div class = fixation>+</div></div>","none","900","test","Haut-Bas","orange","2","magnitude","switch","stay","78","","","",""
"515","89","poldrack-single-stim","326","363271","0.0-247.0","sub-14_ses-01_1","","2272","0","stim","","<div class = upperbox><div class = ""center-text"" >Haut-Bas</div></div><div class = lowerbox><div class = ""stim-text"" style=color:orange;>2</div>","89,71","1000","test","Haut-Bas","orange","2","magnitude","switch","stay","78","true","89","",""
"","","call-function","327","363272","0.0-248.0","sub-14_ses-01_1","","","","set_stims","","","","","","","","","","","","","","","",""
"-1","-1","poldrack-single-stim","328","363392","0.0-249.0","sub-14_ses-01_1","","100","0","cue","","<div class = upperbox><div class = ""center-text"" >Orange-Bleu</div></div><div class = lowerbox><div class = fixation>+</div></div>","none","100","test","Orange-Bleu","orange","9","color","switch","stay","79","","","",""
"990","89","poldrack-single-stim","329","365531","0.0-250.0","sub-14_ses-01_1","","2136","0","stim","","<div class = upperbox><div class = ""center-text"" >Orange-Bleu</div></div><div class = lowerbox><div class = ""stim-text"" style=color:orange;>9</div>","89,71","1000","test","Orange-Bleu","orange","9","color","switch","stay","79","true","89","",""
"-1","-1","poldrack-single-stim","330","375563","0.0-251.0","sub-14_ses-01_1","","10000","1000","rest_block","","<div class = centerbox><div class = center-text>+</div></div>","none","10000","","","","","","","","","","","",""
"-1","-1","poldrack-single-stim","331","378097","0.0-252.0","sub-14_ses-01_1","","1500","500","test_start_block","","<div class = centerbox><div class = center-text>Preparez-vous!</p></div>","none","1500","","","","","","","","","","","",""
"-1","-1","poldrack-single-stim","332","379134","0.0-253.0","sub-14_ses-01_1","","500","0","fixation","","<div class = upperbox><div class = fixation>+</div></div><div class = lowerbox><div class = fixation>+</div></div>","none","500","test","","","","","","","","","","",""
"","","call-function","333","379135","0.0-254.0","sub-14_ses-01_1","","","","set_stims","","","","","","","","","","","","","","","",""
"-1","-1","poldrack-single-stim","334","380053","0.0-255.0","sub-14_ses-01_1","","900","0","cue","","<div class = upperbox><div class = ""center-text"" >Orange-Bleu</div></div><div class = lowerbox><div class = fixation>+</div></div>","none","900","test","Orange-Bleu","orange","9","color","stay","stay","0","","","",""
"898","89","poldrack-single-stim","335","382062","0.0-256.0","sub-14_ses-01_1","","2000","0","stim","","<div class = upperbox><div class = ""center-text"" >Orange-Bleu</div></div><div class = lowerbox><div class = ""stim-text"" style=color:orange;>9</div>","89,71","1000","test","Orange-Bleu","orange","9","color","stay","stay","0","true","89","",""
"","","call-function","336","382062","0.0-257.0","sub-14_ses-01_1","","","","set_stims","","","","","","","","","","","","","","","",""
"-1","-1","poldrack-single-stim","337","382982","0.0-258.0","sub-14_ses-01_1","","900","0","cue","","<div class = upperbox><div class = ""center-text"" >Amplitude</div></div><div class = lowerbox><div class = fixation>+</div></div>","none","900","test","Amplitude","orange","4","magnitude","switch","switch","1","","","",""
"521","89","poldrack-single-stim","338","385000","0.0-259.0","sub-14_ses-01_1","","2000","0","stim","","<div class = upperbox><div class = ""center-text"" >Amplitude</div></div><div class = lowerbox><div class = ""stim-text"" style=color:orange;>4</div>","89,71","1000","test","Amplitude","orange","4","magnitude","switch","switch","1","true","89","",""
"","","call-function","339","385001","0.0-260.0","sub-14_ses-01_1","","","","set_stims","","","","","","","","","","","","","","","",""
"-1","-1","poldrack-single-stim","340","385922","0.0-261.0","sub-14_ses-01_1","","900","0","cue","","<div class = upperbox><div class = ""center-text"" >Orange-Bleu</div></div><div class = lowerbox><div class = fixation>+</div></div>","none","900","test","Orange-Bleu","orange","7","color","switch","switch","2","","","",""
"564","89","poldrack-single-stim","341","387942","0.0-262.0","sub-14_ses-01_1","","2000","0","stim","","<div class = upperbox><div class = ""center-text"" >Orange-Bleu</div></div><div class = lowerbox><div class = ""stim-text"" style=color:orange;>7</div>","89,71","1000","test","Orange-Bleu","orange","7","color","switch","switch","2","true","89","",""
"","","call-function","342","387943","0.0-263.0","sub-14_ses-01_1","","","","set_stims","","","","","","","","","","","","","","","",""
"-1","-1","poldrack-single-stim","343","388062","0.0-264.0","sub-14_ses-01_1","","100","0","cue","","<div class = upperbox><div class = ""center-text"" >Amplitude</div></div><div class = lowerbox><div class = fixation>+</div></div>","none","100","test","Amplitude","orange","6","magnitude","switch","switch","3","","","",""
"787","71","poldrack-single-stim","344","390760","0.0-265.0","sub-14_ses-01_1","","2680","0","stim","","<div class = upperbox><div class = ""center-text"" >Amplitude</div></div><div class = lowerbox><div class = ""stim-text"" style=color:orange;>6</div>","89,71","1000","test","Amplitude","orange","6","magnitude","switch","switch","3","true","71","",""
"","","call-function","345","390761","0.0-266.0","sub-14_ses-01_1","","","","set_stims","","","","","","","","","","","","","","","",""
"-1","-1","poldrack-single-stim","346","391682","0.0-267.0","sub-14_ses-01_1","","900","0","cue","","<div class = upperbox><div class = ""center-text"" >Couleur</div></div><div class = lowerbox><div class = fixation>+</div></div>","none","900","test","Couleur","#1F45FC","3","color","switch","switch","4","","","",""
"441","71","poldrack-single-stim","347","393701","0.0-268.0","sub-14_ses-01_1","","2000","0","stim","","<div class = upperbox><div class = ""center-text"" >Couleur</div></div><div class = lowerbox><div class = ""stim-text"" style=color:#1F45FC;>3</div>","89,71","1000","test","Couleur","#1F45FC","3","color","switch","switch","4","true","71","",""
"","","call-function","348","393702","0.0-269.0","sub-14_ses-01_1","","","","set_stims","","","","","","","","","","","","","","","",""
"-1","-1","poldrack-single-stim","349","394621","0.0-270.0","sub-14_ses-01_1","","900","0","cue","","<div class = upperbox><div class = ""center-text"" >Couleur</div></div><div class = lowerbox><div class = fixation>+</div></div>","none","900","test","Couleur","orange","8","color","stay","stay","5","","","",""
"564","89","poldrack-single-stim","350","396901","0.0-271.0","sub-14_ses-01_1","","2272","0","stim","","<div class = upperbox><div class = ""center-text"" >Couleur</div></div><div class = lowerbox><div class = ""stim-text"" style=color:orange;>8</div>","89,71","1000","test","Couleur","orange","8","color","stay","stay","5","true","89","",""
"","","call-function","351","396901","0.0-272.0","sub-14_ses-01_1","","","","set_stims","","","","","","","","","","","","","","","",""
"-1","-1","poldrack-single-stim","352","397021","0.0-273.0","sub-14_ses-01_1","","100","0","cue","","<div class = upperbox><div class = ""center-text"" >Orange-Bleu</div></div><div class = lowerbox><div class = fixation>+</div></div>","none","100","test","Orange-Bleu","#1F45FC","4","color","stay","switch","6","","","",""
"715","71","poldrack-single-stim","353","399041","0.0-274.0","sub-14_ses-01_1","","2000","0","stim","","<div class = upperbox><div class = ""center-text"" >Orange-Bleu</div></div><div class = lowerbox><div class = ""stim-text"" style=color:#1F45FC;>4</div>","89,71","1000","test","Orange-Bleu","#1F45FC","4","color","stay","switch","6","true","71","",""
"","","call-function","354","399042","0.0-275.0","sub-14_ses-01_1","","","","set_stims","","","","","","","","","","","","","","","",""
"-1","-1","poldrack-single-stim","355","399162","0.0-276.0","sub-14_ses-01_1","","100","0","cue","","<div class = upperbox><div class = ""center-text"" >Couleur</div></div><div class = lowerbox><div class = fixation>+</div></div>","none","100","test","Couleur","orange","6","color","stay","switch","7","","","",""
"883","89","poldrack-single-stim","356","401442","0.0-277.0","sub-14_ses-01_1","","2272","0","stim","","<div class = upperbox><div class = ""center-text"" >Couleur</div></div><div class = lowerbox><div class = ""stim-text"" style=color:orange;>6</div>","89,71","1000","test","Couleur","orange","6","color","stay","switch","7","true","89","",""
"","","call-function","357","401442","0.0-278.0","sub-14_ses-01_1","","","","set_stims","","","","","","","","","","","","","","","",""
"-1","-1","poldrack-single-stim","358","402362","0.0-279.0","sub-14_ses-01_1","","900","0","cue","","<div class = upperbox><div class = ""center-text"" >Amplitude</div></div><div class = lowerbox><div class = fixation>+</div></div>","none","900","test","Amplitude","#1F45FC","1","magnitude","switch","switch","8","","","",""
"404","89","poldrack-single-stim","359","405332","0.0-280.0","sub-14_ses-01_1","","2952","0","stim","","<div class = upperbox><div class = ""center-text"" >Amplitude</div></div><div class = lowerbox><div class = ""stim-text"" style=color:#1F45FC;>1</div>","89,71","1000","test","Amplitude","#1F45FC","1","magnitude","switch","switch","8","true","89","",""
"","","call-function","360","405333","0.0-281.0","sub-14_ses-01_1","","","","set_stims","","","","","","","","","","","","","","","",""
"-1","-1","poldrack-single-stim","361","405451","0.0-282.0","sub-14_ses-01_1","","100","0","cue","","<div class = upperbox><div class = ""center-text"" >Couleur</div></div><div class = lowerbox><div class = fixation>+</div></div>","none","100","test","Couleur","orange","9","color","switch","switch","9","","","",""
"1073","89","poldrack-single-stim","362","407472","0.0-283.0","sub-14_ses-01_1","","2000","0","stim","","<div class = upperbox><div class = ""center-text"" >Couleur</div></div><div class = lowerbox><div class = ""stim-text"" style=color:orange;>9</div>","89,71","1000","test","Couleur","orange","9","color","switch","switch","9","true","89","",""
"","","call-function","363","407472","0.0-284.0","sub-14_ses-01_1","","","","set_stims","","","","","","","","","","","","","","","",""
"-1","-1","poldrack-single-stim","364","408391","0.0-285.0","sub-14_ses-01_1","","900","0","cue","","<div class = upperbox><div class = ""center-text"" >Amplitude</div></div><div class = lowerbox><div class = fixation>+</div></div>","none","900","test","Amplitude","orange","7","magnitude","switch","stay","10","","","",""
"527","71","poldrack-single-stim","365","410392","0.0-286.0","sub-14_ses-01_1","","2000","0","stim","","<div class = upperbox><div class = ""center-text"" >Amplitude</div></div><div class = lowerbox><div class = ""stim-text"" style=color:orange;>7</div>","89,71","1000","test","Amplitude","orange","7","magnitude","switch","stay","10","true","71","",""
"","","call-function","366","410393","0.0-287.0","sub-14_ses-01_1","","","","set_stims","","","","","","","","","","","","","","","",""
"-1","-1","poldrack-single-stim","367","410512","0.0-288.0","sub-14_ses-01_1","","100","0","cue","","<div class = upperbox><div class = ""center-text"" >Haut-Bas</div></div><div class = lowerbox><div class = fixation>+</div></div>","none","100","test","Haut-Bas","#1F45FC","4","magnitude","stay","switch","11","","","",""
"744","89","poldrack-single-stim","368","412529","0.0-289.0","sub-14_ses-01_1","","2000","0","stim","","<div class = upperbox><div class = ""center-text"" >Haut-Bas</div></div><div class = lowerbox><div class = ""stim-text"" style=color:#1F45FC;>4</div>","89,71","1000","test","Haut-Bas","#1F45FC","4","magnitude","stay","switch","11","true","89","",""
"","","call-function","369","412531","0.0-290.0","sub-14_ses-01_1","","","","set_stims","","","","","","","","","","","","","","","",""
"-1","-1","poldrack-single-stim","370","413441","0.0-291.0","sub-14_ses-01_1","","900","0","cue","","<div class = upperbox><div class = ""center-text"" >Orange-Bleu</div></div><div class = lowerbox><div class = fixation>+</div></div>","none","900","test","Orange-Bleu","#1F45FC","8","color","switch","stay","12","","","",""
"619","71","poldrack-single-stim","371","415462","0.0-292.0","sub-14_ses-01_1","","2000","0","stim","","<div class = upperbox><div class = ""center-text"" >Orange-Bleu</div></div><div class = lowerbox><div class = ""stim-text"" style=color:#1F45FC;>8</div>","89,71","1000","test","Orange-Bleu","#1F45FC","8","color","switch","stay","12","true","71","",""
"","","call-function","372","415462","0.0-293.0","sub-14_ses-01_1","","","","set_stims","","","","","","","","","","","","","","","",""
"-1","-1","poldrack-single-stim","373","415583","0.0-294.0","sub-14_ses-01_1","","100","0","cue","","<div class = upperbox><div class = ""center-text"" >Haut-Bas</div></div><div class = lowerbox><div class = fixation>+</div></div>","none","100","test","Haut-Bas","orange","8","magnitude","switch","stay","13","","","",""
"-1","-1","poldrack-single-stim","374","417741","0.0-295.0","sub-14_ses-01_1","","2136","0","stim","","<div class = upperbox><div class = ""center-text"" >Haut-Bas</div></div><div class = lowerbox><div class = ""stim-text"" style=color:orange;>8</div>","89,71","1000","test","Haut-Bas","orange","8","magnitude","switch","stay","13","false","71","",""
"","","call-function","375","417743","0.0-296.0","sub-14_ses-01_1","","","","set_stims","","","","","","","","","","","","","","","",""
