"rt","key_press","trial_type","trial_index","time_elapsed","internal_node_id","subject","text","block_duration","timing_post_trial","trial_id","responses","stimulus","possible_responses","stim_duration","correct","correct_response","feedback_duration","exp_stage","trial_num","SS_stimulus","SS_delay","SS_trial_type","SS_duration","condition","stop_response","exp_id"
"1300","13","text","0","1304","0.0-0.0","sub-04_ses-02_2","","","","","","","","","","","","","","","","","","","",""
"1099","89","poldrack-text","1","3409","0.0-1.0","sub-04_ses-02_2","<div class = centerbox><div style = 'font-size: 50px' class = center-text>Veuillez appuyer avec votre index</p></div>","1099","500","fmri_response_test","","","","","","","","","","","","","","","",""
"346","71","poldrack-text","2","4264","0.0-2.0","sub-04_ses-02_2","<div class = centerbox><div style = 'font-size: 50px' class = center-text>Veuillez appuyer avec votre majeur</p></div>","346","500","fmri_response_test","","","","","","","","","","","","","","","",""
"4184","","survey-text","3","8981","0.0-3.0","sub-04_ses-02_2","","","","task_setup","{""Q0"":""250""}","","","","","","","","","","","","","","",""
"5836","32","poldrack-single-stim","4","15904","0.0-4.0","sub-04_ses-02_2","","5836","0","instructions","","<div class = instructbox><p class = instruct-text><font size=""+2"">Une seule cle est correcte pour chaque forme. <strong>Ne repondez pas si vous voyez l'etoile rouge si votre response allait etre votre Index!</strong> Les cles correctes son les suivantes:<ul list-text><li><div class = prompt_container><img class = prompt_stim src = /static/experiments/motor_selective_stop_signal/images/circle.png width= ""50%"" height= ""50%""></img>Index</div></li></li><li><div class = prompt_container><img class = prompt_stim src = /static/experiments/motor_selective_stop_signal/images/Lshape.png width= ""50%"" height= ""50%""></img>Index</div></li> </li><li><div class = prompt_container><img class = prompt_stim src = /static/experiments/motor_selective_stop_signal/images/rhombus.png width= ""50%"" height= ""50%""></img>Majeur</div></li> </li><li><div class = prompt_container><img class = prompt_stim src = /static/experiments/motor_selective_stop_signal/images/triangle.png width= ""50%"" height= ""50%""></img>Majeur</div></li></ul></font></div>","32","5836","","","","","","","","","","","",""
"1025","71","poldrack-categorize","5","18291","0.0-5.0-0.0-0.0","sub-04_ses-02_2","","1850","250","stim","","<div class = coverbox></div><div class = shapebox><img class = stim src = /static/experiments/motor_selective_stop_signal/images/rhombus.png></img></div>","89,71","850","true","71","500","practice","0","","","","","","",""
"550","89","poldrack-categorize","6","20932","0.0-5.0-0.0-1.0","sub-04_ses-02_2","","1850","250","stim","","<div class = coverbox></div><div class = shapebox><img class = stim src = /static/experiments/motor_selective_stop_signal/images/Lshape.png></img></div>","89,71","850","true","89","500","practice","1","","","","","","",""
"424","71","poldrack-categorize","7","23572","0.0-5.0-0.0-2.0","sub-04_ses-02_2","","1850","250","stim","","<div class = coverbox></div><div class = shapebox><img class = stim src = /static/experiments/motor_selective_stop_signal/images/triangle.png></img></div>","89,71","850","true","71","500","practice","2","","","","","","",""
"457","71","poldrack-categorize","8","26212","0.0-5.0-0.0-3.0","sub-04_ses-02_2","","1850","250","stim","","<div class = coverbox></div><div class = shapebox><img class = stim src = /static/experiments/motor_selective_stop_signal/images/rhombus.png></img></div>","89,71","850","true","71","500","practice","3","","","","","","",""
"548","89","poldrack-categorize","9","28861","0.0-5.0-0.0-4.0","sub-04_ses-02_2","","1850","250","stim","","<div class = coverbox></div><div class = shapebox><img class = stim src = /static/experiments/motor_selective_stop_signal/images/Lshape.png></img></div>","89,71","850","true","89","500","practice","4","","","","","","",""
"403","89","poldrack-categorize","10","31501","0.0-5.0-0.0-5.0","sub-04_ses-02_2","","1850","250","stim","","<div class = coverbox></div><div class = shapebox><img class = stim src = /static/experiments/motor_selective_stop_signal/images/circle.png></img></div>","89,71","850","true","89","500","practice","5","","","","","","",""
"419","89","poldrack-categorize","11","34141","0.0-5.0-0.0-6.0","sub-04_ses-02_2","","1850","250","stim","","<div class = coverbox></div><div class = shapebox><img class = stim src = /static/experiments/motor_selective_stop_signal/images/circle.png></img></div>","89,71","850","true","89","500","practice","6","","","","","","",""
"452","71","poldrack-categorize","12","36778","0.0-5.0-0.0-7.0","sub-04_ses-02_2","","1850","250","stim","","<div class = coverbox></div><div class = shapebox><img class = stim src = /static/experiments/motor_selective_stop_signal/images/triangle.png></img></div>","89,71","850","true","71","500","practice","7","","","","","","",""
"654","71","poldrack-categorize","13","39422","0.0-5.0-0.0-8.0","sub-04_ses-02_2","","1850","250","stim","","<div class = coverbox></div><div class = shapebox><img class = stim src = /static/experiments/motor_selective_stop_signal/images/rhombus.png></img></div>","89,71","850","true","71","500","practice","8","","","","","","",""
"532","71","poldrack-categorize","14","42060","0.0-5.0-0.0-9.0","sub-04_ses-02_2","","1850","250","stim","","<div class = coverbox></div><div class = shapebox><img class = stim src = /static/experiments/motor_selective_stop_signal/images/triangle.png></img></div>","89,71","850","true","71","500","practice","9","","","","","","",""
"456","89","poldrack-categorize","15","44701","0.0-5.0-0.0-10.0","sub-04_ses-02_2","","1850","250","stim","","<div class = coverbox></div><div class = shapebox><img class = stim src = /static/experiments/motor_selective_stop_signal/images/Lshape.png></img></div>","89,71","850","true","89","500","practice","10","","","","","","",""
"463","89","poldrack-categorize","16","47341","0.0-5.0-0.0-11.0","sub-04_ses-02_2","","1850","250","stim","","<div class = coverbox></div><div class = shapebox><img class = stim src = /static/experiments/motor_selective_stop_signal/images/circle.png></img></div>","89,71","850","true","89","500","practice","11","","","","","","",""
"1744","32","poldrack-text","17","49352","0.0-6.0","sub-04_ses-02_2","<div class = centerbox><div  class = center-text>Scanner Setup</div></div>","1744","0","fmri_scanner_wait","","","","","","","","","","","","","","","",""
"55971","84","poldrack-text","18","105327","0.0-7.0","sub-04_ses-02_2","<div class = centerbox><div style='color:red'; class = center-text>+</div></div>","55971","0","fmri_trigger_wait","","","","","","","","","","","","","","","",""
"-1","-1","poldrack-single-stim","19","106355","0.0-8.0","sub-04_ses-02_2","","1000","0","fmri_buffer","","","none","1000","","","","","","","","","","","",""
"-1","-1","poldrack-single-stim","20","107883","0.0-9.0","sub-04_ses-02_2","","1500","500","test_start_block","","<div class = centerbox><div class = center-text>Preparez-vous!</p></div>","none","1500","","","","","","","","","","","",""
"843","89","stop-signal","21","110682","0.0-10.0","sub-04_ses-02_2","","2250","0","stim","","<div class = coverbox></div><div class = shapebox><img class = stim src = /static/experiments/motor_selective_stop_signal/images/Lshape.png></img></div>","89,71","850","","89","","test","0","<div class = coverbox></div><div class = stopbox><div class = centered-shape id = stop-signal></div><div class = centered-shape id = stop-signal-inner></div></div>","250","go","500","go","89",""
"813","89","stop-signal","22","112961","0.0-11.0","sub-04_ses-02_2","","2250","0","stim","","<div class = coverbox></div><div class = shapebox><img class = stim src = /static/experiments/motor_selective_stop_signal/images/circle.png></img></div>","89,71","850","","89","","test","1","<div class = coverbox></div><div class = stopbox><div class = centered-shape id = stop-signal></div><div class = centered-shape id = stop-signal-inner></div></div>","250","go","500","go","89",""
"629","71","stop-signal","23","115322","0.0-12.0","sub-04_ses-02_2","","2350","0","stim","","<div class = coverbox></div><div class = shapebox><img class = stim src = /static/experiments/motor_selective_stop_signal/images/rhombus.png></img></div>","89,71","850","","71","","test","2","<div class = coverbox></div><div class = stopbox><div class = centered-shape id = stop-signal></div><div class = centered-shape id = stop-signal-inner></div></div>","250","stop","500","ignore","89",""
"-1","-1","stop-signal","24","117882","0.0-13.0","sub-04_ses-02_2","","2550","0","stim","","<div class = coverbox></div><div class = shapebox><img class = stim src = /static/experiments/motor_selective_stop_signal/images/circle.png></img></div>","89,71","850","","89","","test","3","<div class = coverbox></div><div class = stopbox><div class = centered-shape id = stop-signal></div><div class = centered-shape id = stop-signal-inner></div></div>","250","stop","500","stop","89",""
"740","89","stop-signal","25","120841","0.0-14.0","sub-04_ses-02_2","","2950","0","stim","","<div class = coverbox></div><div class = shapebox><img class = stim src = /static/experiments/motor_selective_stop_signal/images/Lshape.png></img></div>","89,71","850","","89","","test","4","<div class = coverbox></div><div class = stopbox><div class = centered-shape id = stop-signal></div><div class = centered-shape id = stop-signal-inner></div></div>","300","go","500","go","89",""
"-1","-1","stop-signal","26","123101","0.0-15.0","sub-04_ses-02_2","","2250","0","stim","","<div class = coverbox></div><div class = shapebox><img class = stim src = /static/experiments/motor_selective_stop_signal/images/Lshape.png></img></div>","89,71","850","","89","","test","5","<div class = coverbox></div><div class = stopbox><div class = centered-shape id = stop-signal></div><div class = centered-shape id = stop-signal-inner></div></div>","300","stop","500","stop","89",""
"619","71","stop-signal","27","125461","0.0-16.0","sub-04_ses-02_2","","2350","0","stim","","<div class = coverbox></div><div class = shapebox><img class = stim src = /static/experiments/motor_selective_stop_signal/images/triangle.png></img></div>","89,71","850","","71","","test","6","<div class = coverbox></div><div class = stopbox><div class = centered-shape id = stop-signal></div><div class = centered-shape id = stop-signal-inner></div></div>","350","go","500","go","89",""
"384","71","stop-signal","28","128022","0.0-17.0","sub-04_ses-02_2","","2550","0","stim","","<div class = coverbox></div><div class = shapebox><img class = stim src = /static/experiments/motor_selective_stop_signal/images/rhombus.png></img></div>","89,71","850","","71","","test","7","<div class = coverbox></div><div class = stopbox><div class = centered-shape id = stop-signal></div><div class = centered-shape id = stop-signal-inner></div></div>","350","go","500","go","89",""
"484","71","stop-signal","29","130282","0.0-18.0","sub-04_ses-02_2","","2250","0","stim","","<div class = coverbox></div><div class = shapebox><img class = stim src = /static/experiments/motor_selective_stop_signal/images/rhombus.png></img></div>","89,71","850","","71","","test","8","<div class = coverbox></div><div class = stopbox><div class = centered-shape id = stop-signal></div><div class = centered-shape id = stop-signal-inner></div></div>","350","stop","500","ignore","89",""
"568","71","stop-signal","30","132641","0.0-19.0","sub-04_ses-02_2","","2350","0","stim","","<div class = coverbox></div><div class = shapebox><img class = stim src = /static/experiments/motor_selective_stop_signal/images/rhombus.png></img></div>","89,71","850","","71","","test","9","<div class = coverbox></div><div class = stopbox><div class = centered-shape id = stop-signal></div><div class = centered-shape id = stop-signal-inner></div></div>","350","stop","500","ignore","89",""
"623","71","stop-signal","31","135201","0.0-20.0","sub-04_ses-02_2","","2550","0","stim","","<div class = coverbox></div><div class = shapebox><img class = stim src = /static/experiments/motor_selective_stop_signal/images/rhombus.png></img></div>","89,71","850","","71","","test","10","<div class = coverbox></div><div class = stopbox><div class = centered-shape id = stop-signal></div><div class = centered-shape id = stop-signal-inner></div></div>","350","stop","500","ignore","89",""
"633","71","stop-signal","32","137660","0.0-21.0","sub-04_ses-02_2","","2450","0","stim","","<div class = coverbox></div><div class = shapebox><img class = stim src = /static/experiments/motor_selective_stop_signal/images/rhombus.png></img></div>","89,71","850","","71","","test","11","<div class = coverbox></div><div class = stopbox><div class = centered-shape id = stop-signal></div><div class = centered-shape id = stop-signal-inner></div></div>","350","stop","500","ignore","89",""
"614","71","stop-signal","33","140020","0.0-22.0","sub-04_ses-02_2","","2350","0","stim","","<div class = coverbox></div><div class = shapebox><img class = stim src = /static/experiments/motor_selective_stop_signal/images/rhombus.png></img></div>","89,71","850","","71","","test","12","<div class = coverbox></div><div class = stopbox><div class = centered-shape id = stop-signal></div><div class = centered-shape id = stop-signal-inner></div></div>","350","go","500","go","89",""
"877","89","stop-signal","34","142680","0.0-23.0","sub-04_ses-02_2","","2650","0","stim","","<div class = coverbox></div><div class = shapebox><img class = stim src = /static/experiments/motor_selective_stop_signal/images/circle.png></img></div>","89,71","850","","89","","test","13","<div class = coverbox></div><div class = stopbox><div class = centered-shape id = stop-signal></div><div class = centered-shape id = stop-signal-inner></div></div>","350","go","500","go","89",""
"544","89","stop-signal","35","145239","0.0-24.0","sub-04_ses-02_2","","2550","0","stim","","<div class = coverbox></div><div class = shapebox><img class = stim src = /static/experiments/motor_selective_stop_signal/images/Lshape.png></img></div>","89,71","850","","89","","test","14","<div class = coverbox></div><div class = stopbox><div class = centered-shape id = stop-signal></div><div class = centered-shape id = stop-signal-inner></div></div>","350","go","500","go","89",""
"-1","-1","stop-signal","36","148001","0.0-25.0","sub-04_ses-02_2","","2750","0","stim","","<div class = coverbox></div><div class = shapebox><img class = stim src = /static/experiments/motor_selective_stop_signal/images/circle.png></img></div>","89,71","850","","89","","test","15","<div class = coverbox></div><div class = stopbox><div class = centered-shape id = stop-signal></div><div class = centered-shape id = stop-signal-inner></div></div>","350","stop","500","stop","89",""
"-1","-1","stop-signal","37","150561","0.0-26.0","sub-04_ses-02_2","","2550","0","stim","","<div class = coverbox></div><div class = shapebox><img class = stim src = /static/experiments/motor_selective_stop_signal/images/Lshape.png></img></div>","89,71","850","","89","","test","16","<div class = coverbox></div><div class = stopbox><div class = centered-shape id = stop-signal></div><div class = centered-shape id = stop-signal-inner></div></div>","400","stop","500","stop","89",""
"1091","71","stop-signal","38","153021","0.0-27.0","sub-04_ses-02_2","","2450","0","stim","","<div class = coverbox></div><div class = shapebox><img class = stim src = /static/experiments/motor_selective_stop_signal/images/rhombus.png></img></div>","89,71","850","","71","","test","17","<div class = coverbox></div><div class = stopbox><div class = centered-shape id = stop-signal></div><div class = centered-shape id = stop-signal-inner></div></div>","450","stop","500","ignore","89",""
"522","71","stop-signal","39","155780","0.0-28.0","sub-04_ses-02_2","","2750","0","stim","","<div class = coverbox></div><div class = shapebox><img class = stim src = /static/experiments/motor_selective_stop_signal/images/rhombus.png></img></div>","89,71","850","","71","","test","18","<div class = coverbox></div><div class = stopbox><div class = centered-shape id = stop-signal></div><div class = centered-shape id = stop-signal-inner></div></div>","450","go","500","go","89",""
"927","89","stop-signal","40","158340","0.0-29.0","sub-04_ses-02_2","","2550","0","stim","","<div class = coverbox></div><div class = shapebox><img class = stim src = /static/experiments/motor_selective_stop_signal/images/circle.png></img></div>","89,71","850","","89","","test","19","<div class = coverbox></div><div class = stopbox><div class = centered-shape id = stop-signal></div><div class = centered-shape id = stop-signal-inner></div></div>","450","go","500","go","89",""
"-1","-1","stop-signal","41","160711","0.0-30.0","sub-04_ses-02_2","","2350","0","stim","","<div class = coverbox></div><div class = shapebox><img class = stim src = /static/experiments/motor_selective_stop_signal/images/Lshape.png></img></div>","89,71","850","","89","","test","20","<div class = coverbox></div><div class = stopbox><div class = centered-shape id = stop-signal></div><div class = centered-shape id = stop-signal-inner></div></div>","450","stop","500","stop","89",""
"837","89","stop-signal","42","162980","0.0-31.0","sub-04_ses-02_2","","2250","0","stim","","<div class = coverbox></div><div class = shapebox><img class = stim src = /static/experiments/motor_selective_stop_signal/images/circle.png></img></div>","89,71","850","","89","","test","21","<div class = coverbox></div><div class = stopbox><div class = centered-shape id = stop-signal></div><div class = centered-shape id = stop-signal-inner></div></div>","500","go","500","go","89",""
"621","71","stop-signal","43","165640","0.0-32.0","sub-04_ses-02_2","","2650","0","stim","","<div class = coverbox></div><div class = shapebox><img class = stim src = /static/experiments/motor_selective_stop_signal/images/triangle.png></img></div>","89,71","850","","71","","test","22","<div class = coverbox></div><div class = stopbox><div class = centered-shape id = stop-signal></div><div class = centered-shape id = stop-signal-inner></div></div>","500","go","500","go","89",""
"-1","-1","stop-signal","44","167900","0.0-33.0","sub-04_ses-02_2","","2250","0","stim","","<div class = coverbox></div><div class = shapebox><img class = stim src = /static/experiments/motor_selective_stop_signal/images/Lshape.png></img></div>","89,71","850","","89","","test","23","<div class = coverbox></div><div class = stopbox><div class = centered-shape id = stop-signal></div><div class = centered-shape id = stop-signal-inner></div></div>","500","stop","500","stop","89",""
"726","71","stop-signal","45","170261","0.0-34.0","sub-04_ses-02_2","","2350","0","stim","","<div class = coverbox></div><div class = shapebox><img class = stim src = /static/experiments/motor_selective_stop_signal/images/rhombus.png></img></div>","89,71","850","","71","","test","24","<div class = coverbox></div><div class = stopbox><div class = centered-shape id = stop-signal></div><div class = centered-shape id = stop-signal-inner></div></div>","550","go","500","go","89",""
"629","89","stop-signal","46","172519","0.0-35.0","sub-04_ses-02_2","","2250","0","stim","","<div class = coverbox></div><div class = shapebox><img class = stim src = /static/experiments/motor_selective_stop_signal/images/Lshape.png></img></div>","89,71","850","","89","","test","25","<div class = coverbox></div><div class = stopbox><div class = centered-shape id = stop-signal></div><div class = centered-shape id = stop-signal-inner></div></div>","550","go","500","go","89",""
"909","89","stop-signal","47","174880","0.0-36.0","sub-04_ses-02_2","","2350","0","stim","","<div class = coverbox></div><div class = shapebox><img class = stim src = /static/experiments/motor_selective_stop_signal/images/circle.png></img></div>","89,71","850","","89","","test","26","<div class = coverbox></div><div class = stopbox><div class = centered-shape id = stop-signal></div><div class = centered-shape id = stop-signal-inner></div></div>","550","go","500","go","89",""
"960","89","stop-signal","48","177241","0.0-37.0","sub-04_ses-02_2","","2350","0","stim","","<div class = coverbox></div><div class = shapebox><img class = stim src = /static/experiments/motor_selective_stop_signal/images/Lshape.png></img></div>","89,71","850","","89","","test","27","<div class = coverbox></div><div class = stopbox><div class = centered-shape id = stop-signal></div><div class = centered-shape id = stop-signal-inner></div></div>","550","go","500","go","89",""
"679","71","stop-signal","49","179500","0.0-38.0","sub-04_ses-02_2","","2250","0","stim","","<div class = coverbox></div><div class = shapebox><img class = stim src = /static/experiments/motor_selective_stop_signal/images/triangle.png></img></div>","89,71","850","","71","","test","28","<div class = coverbox></div><div class = stopbox><div class = centered-shape id = stop-signal></div><div class = centered-shape id = stop-signal-inner></div></div>","550","go","500","go","89",""
"469","71","stop-signal","50","182361","0.0-39.0","sub-04_ses-02_2","","2850","0","stim","","<div class = coverbox></div><div class = shapebox><img class = stim src = /static/experiments/motor_selective_stop_signal/images/rhombus.png></img></div>","89,71","850","","71","","test","29","<div class = coverbox></div><div class = stopbox><div class = centered-shape id = stop-signal></div><div class = centered-shape id = stop-signal-inner></div></div>","550","stop","500","ignore","89",""
"464","71","stop-signal","51","184720","0.0-40.0","sub-04_ses-02_2","","2350","0","stim","","<div class = coverbox></div><div class = shapebox><img class = stim src = /static/experiments/motor_selective_stop_signal/images/rhombus.png></img></div>","89,71","850","","71","","test","30","<div class = coverbox></div><div class = stopbox><div class = centered-shape id = stop-signal></div><div class = centered-shape id = stop-signal-inner></div></div>","550","go","500","go","89",""
"848","89","stop-signal","52","186981","0.0-41.0","sub-04_ses-02_2","","2250","0","stim","","<div class = coverbox></div><div class = shapebox><img class = stim src = /static/experiments/motor_selective_stop_signal/images/Lshape.png></img></div>","89,71","850","","89","","test","31","<div class = coverbox></div><div class = stopbox><div class = centered-shape id = stop-signal></div><div class = centered-shape id = stop-signal-inner></div></div>","550","go","500","go","89",""
"707","71","stop-signal","53","189340","0.0-42.0","sub-04_ses-02_2","","2350","0","stim","","<div class = coverbox></div><div class = shapebox><img class = stim src = /static/experiments/motor_selective_stop_signal/images/rhombus.png></img></div>","89,71","850","","71","","test","32","<div class = coverbox></div><div class = stopbox><div class = centered-shape id = stop-signal></div><div class = centered-shape id = stop-signal-inner></div></div>","550","go","500","go","89",""
"510","71","stop-signal","54","191802","0.0-43.0","sub-04_ses-02_2","","2450","0","stim","","<div class = coverbox></div><div class = shapebox><img class = stim src = /static/experiments/motor_selective_stop_signal/images/rhombus.png></img></div>","89,71","850","","71","","test","33","<div class = coverbox></div><div class = stopbox><div class = centered-shape id = stop-signal></div><div class = centered-shape id = stop-signal-inner></div></div>","550","go","500","go","89",""
"-1","-1","stop-signal","55","194071","0.0-44.0","sub-04_ses-02_2","","2250","0","stim","","<div class = coverbox></div><div class = shapebox><img class = stim src = /static/experiments/motor_selective_stop_signal/images/circle.png></img></div>","89,71","850","","89","","test","34","<div class = coverbox></div><div class = stopbox><div class = centered-shape id = stop-signal></div><div class = centered-shape id = stop-signal-inner></div></div>","550","stop","500","stop","89",""
"698","71","stop-signal","56","196331","0.0-45.0","sub-04_ses-02_2","","2250","0","stim","","<div class = coverbox></div><div class = shapebox><img class = stim src = /static/experiments/motor_selective_stop_signal/images/rhombus.png></img></div>","89,71","850","","71","","test","35","<div class = coverbox></div><div class = stopbox><div class = centered-shape id = stop-signal></div><div class = centered-shape id = stop-signal-inner></div></div>","600","stop","500","ignore","89",""
"977","89","stop-signal","57","199091","0.0-46.0","sub-04_ses-02_2","","2750","0","stim","","<div class = coverbox></div><div class = shapebox><img class = stim src = /static/experiments/motor_selective_stop_signal/images/circle.png></img></div>","89,71","850","","89","","test","36","<div class = coverbox></div><div class = stopbox><div class = centered-shape id = stop-signal></div><div class = centered-shape id = stop-signal-inner></div></div>","600","go","500","go","89",""
"748","71","stop-signal","58","201451","0.0-47.0","sub-04_ses-02_2","","2350","0","stim","","<div class = coverbox></div><div class = shapebox><img class = stim src = /static/experiments/motor_selective_stop_signal/images/rhombus.png></img></div>","89,71","850","","71","","test","37","<div class = coverbox></div><div class = stopbox><div class = centered-shape id = stop-signal></div><div class = centered-shape id = stop-signal-inner></div></div>","600","stop","500","ignore","89",""
"660","71","stop-signal","59","204210","0.0-48.0","sub-04_ses-02_2","","2750","0","stim","","<div class = coverbox></div><div class = shapebox><img class = stim src = /static/experiments/motor_selective_stop_signal/images/rhombus.png></img></div>","89,71","850","","71","","test","38","<div class = coverbox></div><div class = stopbox><div class = centered-shape id = stop-signal></div><div class = centered-shape id = stop-signal-inner></div></div>","600","go","500","go","89",""
"827","89","stop-signal","60","206669","0.0-49.0","sub-04_ses-02_2","","2450","0","stim","","<div class = coverbox></div><div class = shapebox><img class = stim src = /static/experiments/motor_selective_stop_signal/images/Lshape.png></img></div>","89,71","850","","89","","test","39","<div class = coverbox></div><div class = stopbox><div class = centered-shape id = stop-signal></div><div class = centered-shape id = stop-signal-inner></div></div>","600","go","500","go","89",""
"1084","89","stop-signal","61","208931","0.0-50.0","sub-04_ses-02_2","","2250","0","stim","","<div class = coverbox></div><div class = shapebox><img class = stim src = /static/experiments/motor_selective_stop_signal/images/circle.png></img></div>","89,71","850","","89","","test","40","<div class = coverbox></div><div class = stopbox><div class = centered-shape id = stop-signal></div><div class = centered-shape id = stop-signal-inner></div></div>","600","go","500","go","89",""
"944","89","stop-signal","62","211290","0.0-51.0","sub-04_ses-02_2","","2350","0","stim","","<div class = coverbox></div><div class = shapebox><img class = stim src = /static/experiments/motor_selective_stop_signal/images/circle.png></img></div>","89,71","850","","89","","test","41","<div class = coverbox></div><div class = stopbox><div class = centered-shape id = stop-signal></div><div class = centered-shape id = stop-signal-inner></div></div>","600","stop","500","stop","89",""
"939","89","stop-signal","63","213961","0.0-52.0","sub-04_ses-02_2","","2650","0","stim","","<div class = coverbox></div><div class = shapebox><img class = stim src = /static/experiments/motor_selective_stop_signal/images/circle.png></img></div>","89,71","850","","89","","test","42","<div class = coverbox></div><div class = stopbox><div class = centered-shape id = stop-signal></div><div class = centered-shape id = stop-signal-inner></div></div>","550","go","500","go","89",""
"-1","-1","stop-signal","64","216421","0.0-53.0","sub-04_ses-02_2","","2450","0","stim","","<div class = coverbox></div><div class = shapebox><img class = stim src = /static/experiments/motor_selective_stop_signal/images/Lshape.png></img></div>","89,71","850","","89","","test","43","<div class = coverbox></div><div class = stopbox><div class = centered-shape id = stop-signal></div><div class = centered-shape id = stop-signal-inner></div></div>","550","stop","500","stop","89",""
"784","89","stop-signal","65","218680","0.0-54.0","sub-04_ses-02_2","","2250","0","stim","","<div class = coverbox></div><div class = shapebox><img class = stim src = /static/experiments/motor_selective_stop_signal/images/circle.png></img></div>","89,71","850","","89","","test","44","<div class = coverbox></div><div class = stopbox><div class = centered-shape id = stop-signal></div><div class = centered-shape id = stop-signal-inner></div></div>","600","go","500","go","89",""
"493","71","stop-signal","66","221038","0.0-55.0","sub-04_ses-02_2","","2350","0","stim","","<div class = coverbox></div><div class = shapebox><img class = stim src = /static/experiments/motor_selective_stop_signal/images/triangle.png></img></div>","89,71","850","","71","","test","45","<div class = coverbox></div><div class = stopbox><div class = centered-shape id = stop-signal></div><div class = centered-shape id = stop-signal-inner></div></div>","600","stop","500","ignore","89",""
"428","71","stop-signal","67","224001","0.0-56.0","sub-04_ses-02_2","","2950","0","stim","","<div class = coverbox></div><div class = shapebox><img class = stim src = /static/experiments/motor_selective_stop_signal/images/triangle.png></img></div>","89,71","850","","71","","test","46","<div class = coverbox></div><div class = stopbox><div class = centered-shape id = stop-signal></div><div class = centered-shape id = stop-signal-inner></div></div>","600","stop","500","ignore","89",""
"927","89","stop-signal","68","226260","0.0-57.0","sub-04_ses-02_2","","2250","0","stim","","<div class = coverbox></div><div class = shapebox><img class = stim src = /static/experiments/motor_selective_stop_signal/images/circle.png></img></div>","89,71","850","","89","","test","47","<div class = coverbox></div><div class = stopbox><div class = centered-shape id = stop-signal></div><div class = centered-shape id = stop-signal-inner></div></div>","600","go","500","go","89",""
"702","71","stop-signal","69","229220","0.0-58.0","sub-04_ses-02_2","","2950","0","stim","","<div class = coverbox></div><div class = shapebox><img class = stim src = /static/experiments/motor_selective_stop_signal/images/rhombus.png></img></div>","89,71","850","","71","","test","48","<div class = coverbox></div><div class = stopbox><div class = centered-shape id = stop-signal></div><div class = centered-shape id = stop-signal-inner></div></div>","600","go","500","go","89",""
"348","71","stop-signal","70","231681","0.0-59.0","sub-04_ses-02_2","","2450","0","stim","","<div class = coverbox></div><div class = shapebox><img class = stim src = /static/experiments/motor_selective_stop_signal/images/triangle.png></img></div>","89,71","850","","71","","test","49","<div class = coverbox></div><div class = stopbox><div class = centered-shape id = stop-signal></div><div class = centered-shape id = stop-signal-inner></div></div>","600","stop","500","ignore","89",""
"-1","-1","poldrack-single-stim","71","239201","0.0-60.0","sub-04_ses-02_2","","7500","1000","rest_block","","<div class = centerbox><div class = center-text>+</div></div>","none","7500","","","","","","","","","","","",""
"-1","-1","poldrack-single-stim","72","241742","0.0-61.0","sub-04_ses-02_2","","1500","500","test_start_block","","<div class = centerbox><div class = center-text>Preparez-vous!</p></div>","none","1500","","","","","","","","","","","",""
"813","89","stop-signal","73","244522","0.0-62.0","sub-04_ses-02_2","","2250","0","stim","","<div class = coverbox></div><div class = shapebox><img class = stim src = /static/experiments/motor_selective_stop_signal/images/circle.png></img></div>","89,71","850","","89","","test","50","<div class = coverbox></div><div class = stopbox><div class = centered-shape id = stop-signal></div><div class = centered-shape id = stop-signal-inner></div></div>","600","stop","500","stop","89",""
"769","71","stop-signal","74","246880","0.0-63.0","sub-04_ses-02_2","","2350","0","stim","","<div class = coverbox></div><div class = shapebox><img class = stim src = /static/experiments/motor_selective_stop_signal/images/rhombus.png></img></div>","89,71","850","","71","","test","51","<div class = coverbox></div><div class = stopbox><div class = centered-shape id = stop-signal></div><div class = centered-shape id = stop-signal-inner></div></div>","550","go","500","go","89",""
"483","71","stop-signal","75","249340","0.0-64.0","sub-04_ses-02_2","","2450","0","stim","","<div class = coverbox></div><div class = shapebox><img class = stim src = /static/experiments/motor_selective_stop_signal/images/rhombus.png></img></div>","89,71","850","","71","","test","52","<div class = coverbox></div><div class = stopbox><div class = centered-shape id = stop-signal></div><div class = centered-shape id = stop-signal-inner></div></div>","550","go","500","go","89",""
"-1","-1","stop-signal","76","251610","0.0-65.0","sub-04_ses-02_2","","2250","0","stim","","<div class = coverbox></div><div class = shapebox><img class = stim src = /static/experiments/motor_selective_stop_signal/images/Lshape.png></img></div>","89,71","850","","89","","test","53","<div class = coverbox></div><div class = stopbox><div class = centered-shape id = stop-signal></div><div class = centered-shape id = stop-signal-inner></div></div>","550","stop","500","stop","89",""
"548","71","stop-signal","77","254080","0.0-66.0","sub-04_ses-02_2","","2450","0","stim","","<div class = coverbox></div><div class = shapebox><img class = stim src = /static/experiments/motor_selective_stop_signal/images/triangle.png></img></div>","89,71","850","","71","","test","54","<div class = coverbox></div><div class = stopbox><div class = centered-shape id = stop-signal></div><div class = centered-shape id = stop-signal-inner></div></div>","600","stop","500","ignore","89",""
"821","89","stop-signal","78","256840","0.0-67.0","sub-04_ses-02_2","","2750","0","stim","","<div class = coverbox></div><div class = shapebox><img class = stim src = /static/experiments/motor_selective_stop_signal/images/Lshape.png></img></div>","89,71","850","","89","","test","55","<div class = coverbox></div><div class = stopbox><div class = centered-shape id = stop-signal></div><div class = centered-shape id = stop-signal-inner></div></div>","600","go","500","go","89",""
"657","71","stop-signal","79","259100","0.0-68.0","sub-04_ses-02_2","","2250","0","stim","","<div class = coverbox></div><div class = shapebox><img class = stim src = /static/experiments/motor_selective_stop_signal/images/triangle.png></img></div>","89,71","850","","71","","test","56","<div class = coverbox></div><div class = stopbox><div class = centered-shape id = stop-signal></div><div class = centered-shape id = stop-signal-inner></div></div>","600","stop","500","ignore","89",""
"601","71","stop-signal","80","261465","0.0-69.0","sub-04_ses-02_2","","2350","0","stim","","<div class = coverbox></div><div class = shapebox><img class = stim src = /static/experiments/motor_selective_stop_signal/images/triangle.png></img></div>","89,71","850","","71","","test","57","<div class = coverbox></div><div class = stopbox><div class = centered-shape id = stop-signal></div><div class = centered-shape id = stop-signal-inner></div></div>","600","go","500","go","89",""
"601","71","stop-signal","81","263921","0.0-70.0","sub-04_ses-02_2","","2450","0","stim","","<div class = coverbox></div><div class = shapebox><img class = stim src = /static/experiments/motor_selective_stop_signal/images/triangle.png></img></div>","89,71","850","","71","","test","58","<div class = coverbox></div><div class = stopbox><div class = centered-shape id = stop-signal></div><div class = centered-shape id = stop-signal-inner></div></div>","600","stop","500","ignore","89",""
"830","89","stop-signal","82","266278","0.0-71.0","sub-04_ses-02_2","","2350","0","stim","","<div class = coverbox></div><div class = shapebox><img class = stim src = /static/experiments/motor_selective_stop_signal/images/circle.png></img></div>","89,71","850","","89","","test","59","<div class = coverbox></div><div class = stopbox><div class = centered-shape id = stop-signal></div><div class = centered-shape id = stop-signal-inner></div></div>","600","go","500","go","89",""
"847","71","stop-signal","83","268541","0.0-72.0","sub-04_ses-02_2","","2250","0","stim","","<div class = coverbox></div><div class = shapebox><img class = stim src = /static/experiments/motor_selective_stop_signal/images/triangle.png></img></div>","89,71","850","","71","","test","60","<div class = coverbox></div><div class = stopbox><div class = centered-shape id = stop-signal></div><div class = centered-shape id = stop-signal-inner></div></div>","600","stop","500","ignore","89",""
"513","71","stop-signal","84","271109","0.0-73.0","sub-04_ses-02_2","","2550","0","stim","","<div class = coverbox></div><div class = shapebox><img class = stim src = /static/experiments/motor_selective_stop_signal/images/rhombus.png></img></div>","89,71","850","","71","","test","61","<div class = coverbox></div><div class = stopbox><div class = centered-shape id = stop-signal></div><div class = centered-shape id = stop-signal-inner></div></div>","600","go","500","go","89",""
"912","89","stop-signal","85","273570","0.0-74.0","sub-04_ses-02_2","","2450","0","stim","","<div class = coverbox></div><div class = shapebox><img class = stim src = /static/experiments/motor_selective_stop_signal/images/circle.png></img></div>","89,71","850","","89","","test","62","<div class = coverbox></div><div class = stopbox><div class = centered-shape id = stop-signal></div><div class = centered-shape id = stop-signal-inner></div></div>","600","go","500","go","89",""
"726","71","stop-signal","86","276231","0.0-75.0","sub-04_ses-02_2","","2650","0","stim","","<div class = coverbox></div><div class = shapebox><img class = stim src = /static/experiments/motor_selective_stop_signal/images/rhombus.png></img></div>","89,71","850","","71","","test","63","<div class = coverbox></div><div class = stopbox><div class = centered-shape id = stop-signal></div><div class = centered-shape id = stop-signal-inner></div></div>","600","go","500","go","89",""
"869","89","stop-signal","87","278492","0.0-76.0","sub-04_ses-02_2","","2250","0","stim","","<div class = coverbox></div><div class = shapebox><img class = stim src = /static/experiments/motor_selective_stop_signal/images/circle.png></img></div>","89,71","850","","89","","test","64","<div class = coverbox></div><div class = stopbox><div class = centered-shape id = stop-signal></div><div class = centered-shape id = stop-signal-inner></div></div>","600","stop","500","stop","89",""
"585","71","stop-signal","88","281150","0.0-77.0","sub-04_ses-02_2","","2650","0","stim","","<div class = coverbox></div><div class = shapebox><img class = stim src = /static/experiments/motor_selective_stop_signal/images/triangle.png></img></div>","89,71","850","","71","","test","65","<div class = coverbox></div><div class = stopbox><div class = centered-shape id = stop-signal></div><div class = centered-shape id = stop-signal-inner></div></div>","550","stop","500","ignore","89",""
"622","71","stop-signal","89","283510","0.0-78.0","sub-04_ses-02_2","","2350","0","stim","","<div class = coverbox></div><div class = shapebox><img class = stim src = /static/experiments/motor_selective_stop_signal/images/rhombus.png></img></div>","89,71","850","","71","","test","66","<div class = coverbox></div><div class = stopbox><div class = centered-shape id = stop-signal></div><div class = centered-shape id = stop-signal-inner></div></div>","550","go","500","go","89",""
"975","89","stop-signal","90","285770","0.0-79.0","sub-04_ses-02_2","","2250","0","stim","","<div class = coverbox></div><div class = shapebox><img class = stim src = /static/experiments/motor_selective_stop_signal/images/circle.png></img></div>","89,71","850","","89","","test","67","<div class = coverbox></div><div class = stopbox><div class = centered-shape id = stop-signal></div><div class = centered-shape id = stop-signal-inner></div></div>","550","go","500","go","89",""
"590","71","stop-signal","91","288031","0.0-80.0","sub-04_ses-02_2","","2250","0","stim","","<div class = coverbox></div><div class = shapebox><img class = stim src = /static/experiments/motor_selective_stop_signal/images/triangle.png></img></div>","89,71","850","","71","","test","68","<div class = coverbox></div><div class = stopbox><div class = centered-shape id = stop-signal></div><div class = centered-shape id = stop-signal-inner></div></div>","550","go","500","go","89",""
"610","71","stop-signal","92","290301","0.0-81.0","sub-04_ses-02_2","","2250","0","stim","","<div class = coverbox></div><div class = shapebox><img class = stim src = /static/experiments/motor_selective_stop_signal/images/triangle.png></img></div>","89,71","850","","71","","test","69","<div class = coverbox></div><div class = stopbox><div class = centered-shape id = stop-signal></div><div class = centered-shape id = stop-signal-inner></div></div>","550","go","500","go","89",""
"626","71","stop-signal","93","292670","0.0-82.0","sub-04_ses-02_2","","2350","0","stim","","<div class = coverbox></div><div class = shapebox><img class = stim src = /static/experiments/motor_selective_stop_signal/images/rhombus.png></img></div>","89,71","850","","71","","test","70","<div class = coverbox></div><div class = stopbox><div class = centered-shape id = stop-signal></div><div class = centered-shape id = stop-signal-inner></div></div>","550","go","500","go","89",""
"633","71","stop-signal","94","295230","0.0-83.0","sub-04_ses-02_2","","2550","0","stim","","<div class = coverbox></div><div class = shapebox><img class = stim src = /static/experiments/motor_selective_stop_signal/images/triangle.png></img></div>","89,71","850","","71","","test","71","<div class = coverbox></div><div class = stopbox><div class = centered-shape id = stop-signal></div><div class = centered-shape id = stop-signal-inner></div></div>","550","stop","500","ignore","89",""
"769","71","stop-signal","95","297589","0.0-84.0","sub-04_ses-02_2","","2350","0","stim","","<div class = coverbox></div><div class = shapebox><img class = stim src = /static/experiments/motor_selective_stop_signal/images/triangle.png></img></div>","89,71","850","","71","","test","72","<div class = coverbox></div><div class = stopbox><div class = centered-shape id = stop-signal></div><div class = centered-shape id = stop-signal-inner></div></div>","550","go","500","go","89",""
"-1","-1","stop-signal","96","300060","0.0-85.0","sub-04_ses-02_2","","2450","0","stim","","<div class = coverbox></div><div class = shapebox><img class = stim src = /static/experiments/motor_selective_stop_signal/images/circle.png></img></div>","89,71","850","","89","","test","73","<div class = coverbox></div><div class = stopbox><div class = centered-shape id = stop-signal></div><div class = centered-shape id = stop-signal-inner></div></div>","550","stop","500","stop","89",""
"817","71","stop-signal","97","302520","0.0-86.0","sub-04_ses-02_2","","2450","0","stim","","<div class = coverbox></div><div class = shapebox><img class = stim src = /static/experiments/motor_selective_stop_signal/images/triangle.png></img></div>","89,71","850","","71","","test","74","<div class = coverbox></div><div class = stopbox><div class = centered-shape id = stop-signal></div><div class = centered-shape id = stop-signal-inner></div></div>","600","go","500","go","89",""
"-1","-1","stop-signal","98","304879","0.0-87.0","sub-04_ses-02_2","","2350","0","stim","","<div class = coverbox></div><div class = shapebox><img class = stim src = /static/experiments/motor_selective_stop_signal/images/circle.png></img></div>","89,71","850","","89","","test","75","<div class = coverbox></div><div class = stopbox><div class = centered-shape id = stop-signal></div><div class = centered-shape id = stop-signal-inner></div></div>","600","stop","500","stop","89",""
"1190","71","stop-signal","99","307139","0.0-88.0","sub-04_ses-02_2","","2250","0","stim","","<div class = coverbox></div><div class = shapebox><img class = stim src = /static/experiments/motor_selective_stop_signal/images/triangle.png></img></div>","89,71","850","","71","","test","76","<div class = coverbox></div><div class = stopbox><div class = centered-shape id = stop-signal></div><div class = centered-shape id = stop-signal-inner></div></div>","650","stop","500","ignore","89",""
"859","89","stop-signal","100","309700","0.0-89.0","sub-04_ses-02_2","","2550","0","stim","","<div class = coverbox></div><div class = shapebox><img class = stim src = /static/experiments/motor_selective_stop_signal/images/Lshape.png></img></div>","89,71","850","","89","","test","77","<div class = coverbox></div><div class = stopbox><div class = centered-shape id = stop-signal></div><div class = centered-shape id = stop-signal-inner></div></div>","650","go","500","go","89",""
"869","89","stop-signal","101","312260","0.0-90.0","sub-04_ses-02_2","","2550","0","stim","","<div class = coverbox></div><div class = shapebox><img class = stim src = /static/experiments/motor_selective_stop_signal/images/circle.png></img></div>","89,71","850","","89","","test","78","<div class = coverbox></div><div class = stopbox><div class = centered-shape id = stop-signal></div><div class = centered-shape id = stop-signal-inner></div></div>","650","go","500","go","89",""
"942","71","stop-signal","102","314520","0.0-91.0","sub-04_ses-02_2","","2250","0","stim","","<div class = coverbox></div><div class = shapebox><img class = stim src = /static/experiments/motor_selective_stop_signal/images/triangle.png></img></div>","89,71","850","","71","","test","79","<div class = coverbox></div><div class = stopbox><div class = centered-shape id = stop-signal></div><div class = centered-shape id = stop-signal-inner></div></div>","650","stop","500","ignore","89",""
"1371","71","stop-signal","103","316780","0.0-92.0","sub-04_ses-02_2","","2250","0","stim","","<div class = coverbox></div><div class = shapebox><img class = stim src = /static/experiments/motor_selective_stop_signal/images/triangle.png></img></div>","89,71","850","","71","","test","80","<div class = coverbox></div><div class = stopbox><div class = centered-shape id = stop-signal></div><div class = centered-shape id = stop-signal-inner></div></div>","650","go","500","go","89",""
"-1","-1","stop-signal","104","319251","0.0-93.0","sub-04_ses-02_2","","2450","0","stim","","<div class = coverbox></div><div class = shapebox><img class = stim src = /static/experiments/motor_selective_stop_signal/images/Lshape.png></img></div>","89,71","850","","89","","test","81","<div class = coverbox></div><div class = stopbox><div class = centered-shape id = stop-signal></div><div class = centered-shape id = stop-signal-inner></div></div>","650","stop","500","stop","89",""
"868","89","stop-signal","105","321610","0.0-94.0","sub-04_ses-02_2","","2350","0","stim","","<div class = coverbox></div><div class = shapebox><img class = stim src = /static/experiments/motor_selective_stop_signal/images/Lshape.png></img></div>","89,71","850","","89","","test","82","<div class = coverbox></div><div class = stopbox><div class = centered-shape id = stop-signal></div><div class = centered-shape id = stop-signal-inner></div></div>","700","go","500","go","89",""
"722","89","stop-signal","106","323871","0.0-95.0","sub-04_ses-02_2","","2250","0","stim","","<div class = coverbox></div><div class = shapebox><img class = stim src = /static/experiments/motor_selective_stop_signal/images/Lshape.png></img></div>","89,71","850","","89","","test","83","<div class = coverbox></div><div class = stopbox><div class = centered-shape id = stop-signal></div><div class = centered-shape id = stop-signal-inner></div></div>","700","go","500","go","89",""
"892","89","stop-signal","107","327041","0.0-96.0","sub-04_ses-02_2","","3150","0","stim","","<div class = coverbox></div><div class = shapebox><img class = stim src = /static/experiments/motor_selective_stop_signal/images/Lshape.png></img></div>","89,71","850","","89","","test","84","<div class = coverbox></div><div class = stopbox><div class = centered-shape id = stop-signal></div><div class = centered-shape id = stop-signal-inner></div></div>","700","go","500","go","89",""
"1008","89","stop-signal","108","329710","0.0-97.0","sub-04_ses-02_2","","2650","0","stim","","<div class = coverbox></div><div class = shapebox><img class = stim src = /static/experiments/motor_selective_stop_signal/images/Lshape.png></img></div>","89,71","850","","89","","test","85","<div class = coverbox></div><div class = stopbox><div class = centered-shape id = stop-signal></div><div class = centered-shape id = stop-signal-inner></div></div>","700","go","500","go","89",""
"639","71","stop-signal","109","331970","0.0-98.0","sub-04_ses-02_2","","2250","0","stim","","<div class = coverbox></div><div class = shapebox><img class = stim src = /static/experiments/motor_selective_stop_signal/images/triangle.png></img></div>","89,71","850","","71","","test","86","<div class = coverbox></div><div class = stopbox><div class = centered-shape id = stop-signal></div><div class = centered-shape id = stop-signal-inner></div></div>","700","stop","500","ignore","89",""
"-1","-1","stop-signal","110","334431","0.0-99.0","sub-04_ses-02_2","","2450","0","stim","","<div class = coverbox></div><div class = shapebox><img class = stim src = /static/experiments/motor_selective_stop_signal/images/Lshape.png></img></div>","89,71","850","","89","","test","87","<div class = coverbox></div><div class = stopbox><div class = centered-shape id = stop-signal></div><div class = centered-shape id = stop-signal-inner></div></div>","700","stop","500","stop","89",""
"590","71","stop-signal","111","337290","0.0-100.0","sub-04_ses-02_2","","2850","0","stim","","<div class = coverbox></div><div class = shapebox><img class = stim src = /static/experiments/motor_selective_stop_signal/images/rhombus.png></img></div>","89,71","850","","71","","test","88","<div class = coverbox></div><div class = stopbox><div class = centered-shape id = stop-signal></div><div class = centered-shape id = stop-signal-inner></div></div>","750","stop","500","ignore","89",""
"918","89","stop-signal","112","339750","0.0-101.0","sub-04_ses-02_2","","2450","0","stim","","<div class = coverbox></div><div class = shapebox><img class = stim src = /static/experiments/motor_selective_stop_signal/images/Lshape.png></img></div>","89,71","850","","89","","test","89","<div class = coverbox></div><div class = stopbox><div class = centered-shape id = stop-signal></div><div class = centered-shape id = stop-signal-inner></div></div>","750","go","500","go","89",""
"831","89","stop-signal","113","342010","0.0-102.0","sub-04_ses-02_2","","2250","0","stim","","<div class = coverbox></div><div class = shapebox><img class = stim src = /static/experiments/motor_selective_stop_signal/images/circle.png></img></div>","89,71","850","","89","","test","90","<div class = coverbox></div><div class = stopbox><div class = centered-shape id = stop-signal></div><div class = centered-shape id = stop-signal-inner></div></div>","750","go","500","go","89",""
"697","71","stop-signal","114","344270","0.0-103.0","sub-04_ses-02_2","","2250","0","stim","","<div class = coverbox></div><div class = shapebox><img class = stim src = /static/experiments/motor_selective_stop_signal/images/triangle.png></img></div>","89,71","850","","71","","test","91","<div class = coverbox></div><div class = stopbox><div class = centered-shape id = stop-signal></div><div class = centered-shape id = stop-signal-inner></div></div>","750","go","500","go","89",""
"721","71","stop-signal","115","346840","0.0-104.0","sub-04_ses-02_2","","2550","0","stim","","<div class = coverbox></div><div class = shapebox><img class = stim src = /static/experiments/motor_selective_stop_signal/images/rhombus.png></img></div>","89,71","850","","71","","test","92","<div class = coverbox></div><div class = stopbox><div class = centered-shape id = stop-signal></div><div class = centered-shape id = stop-signal-inner></div></div>","750","stop","500","ignore","89",""
"853","89","stop-signal","116","349101","0.0-105.0","sub-04_ses-02_2","","2250","0","stim","","<div class = coverbox></div><div class = shapebox><img class = stim src = /static/experiments/motor_selective_stop_signal/images/Lshape.png></img></div>","89,71","850","","89","","test","93","<div class = coverbox></div><div class = stopbox><div class = centered-shape id = stop-signal></div><div class = centered-shape id = stop-signal-inner></div></div>","750","stop","500","stop","89",""
"909","89","stop-signal","117","351460","0.0-106.0","sub-04_ses-02_2","","2350","0","stim","","<div class = coverbox></div><div class = shapebox><img class = stim src = /static/experiments/motor_selective_stop_signal/images/Lshape.png></img></div>","89,71","850","","89","","test","94","<div class = coverbox></div><div class = stopbox><div class = centered-shape id = stop-signal></div><div class = centered-shape id = stop-signal-inner></div></div>","700","go","500","go","89",""
"895","89","stop-signal","118","353821","0.0-107.0","sub-04_ses-02_2","","2350","0","stim","","<div class = coverbox></div><div class = shapebox><img class = stim src = /static/experiments/motor_selective_stop_signal/images/Lshape.png></img></div>","89,71","850","","89","","test","95","<div class = coverbox></div><div class = stopbox><div class = centered-shape id = stop-signal></div><div class = centered-shape id = stop-signal-inner></div></div>","700","stop","500","stop","89",""
"554","71","stop-signal","119","356080","0.0-108.0","sub-04_ses-02_2","","2250","0","stim","","<div class = coverbox></div><div class = shapebox><img class = stim src = /static/experiments/motor_selective_stop_signal/images/triangle.png></img></div>","89,71","850","","71","","test","96","<div class = coverbox></div><div class = stopbox><div class = centered-shape id = stop-signal></div><div class = centered-shape id = stop-signal-inner></div></div>","650","go","500","go","89",""
"668","71","stop-signal","120","358441","0.0-109.0","sub-04_ses-02_2","","2350","0","stim","","<div class = coverbox></div><div class = shapebox><img class = stim src = /static/experiments/motor_selective_stop_signal/images/triangle.png></img></div>","89,71","850","","71","","test","97","<div class = coverbox></div><div class = stopbox><div class = centered-shape id = stop-signal></div><div class = centered-shape id = stop-signal-inner></div></div>","650","stop","500","ignore","89",""
"523","71","stop-signal","121","360700","0.0-110.0","sub-04_ses-02_2","","2250","0","stim","","<div class = coverbox></div><div class = shapebox><img class = stim src = /static/experiments/motor_selective_stop_signal/images/rhombus.png></img></div>","89,71","850","","71","","test","98","<div class = coverbox></div><div class = stopbox><div class = centered-shape id = stop-signal></div><div class = centered-shape id = stop-signal-inner></div></div>","650","go","500","go","89",""
"873","89","stop-signal","122","363160","0.0-111.0","sub-04_ses-02_2","","2450","0","stim","","<div class = coverbox></div><div class = shapebox><img class = stim src = /static/experiments/motor_selective_stop_signal/images/circle.png></img></div>","89,71","850","","89","","test","99","<div class = coverbox></div><div class = stopbox><div class = centered-shape id = stop-signal></div><div class = centered-shape id = stop-signal-inner></div></div>","650","go","500","go","89",""
"-1","-1","poldrack-single-stim","123","370680","0.0-112.0","sub-04_ses-02_2","","7500","1000","rest_block","","<div class = centerbox><div class = center-text>+</div></div>","none","7500","","","","","","","","","","","",""
"-1","-1","poldrack-single-stim","124","373220","0.0-113.0","sub-04_ses-02_2","","1500","500","test_start_block","","<div class = centerbox><div class = center-text>Preparez-vous!</p></div>","none","1500","","","","","","","","","","","",""
"740","89","stop-signal","125","376010","0.0-114.0","sub-04_ses-02_2","","2250","0","stim","","<div class = coverbox></div><div class = shapebox><img class = stim src = /static/experiments/motor_selective_stop_signal/images/circle.png></img></div>","89,71","850","","89","","test","100","<div class = coverbox></div><div class = stopbox><div class = centered-shape id = stop-signal></div><div class = centered-shape id = stop-signal-inner></div></div>","650","go","500","go","89",""
"882","89","stop-signal","126","378380","0.0-115.0","sub-04_ses-02_2","","2350","0","stim","","<div class = coverbox></div><div class = shapebox><img class = stim src = /static/experiments/motor_selective_stop_signal/images/Lshape.png></img></div>","89,71","850","","89","","test","101","<div class = coverbox></div><div class = stopbox><div class = centered-shape id = stop-signal></div><div class = centered-shape id = stop-signal-inner></div></div>","650","go","500","go","89",""
"569","71","stop-signal","127","380841","0.0-116.0","sub-04_ses-02_2","","2450","0","stim","","<div class = coverbox></div><div class = shapebox><img class = stim src = /static/experiments/motor_selective_stop_signal/images/rhombus.png></img></div>","89,71","850","","71","","test","102","<div class = coverbox></div><div class = stopbox><div class = centered-shape id = stop-signal></div><div class = centered-shape id = stop-signal-inner></div></div>","650","stop","500","ignore","89",""
"-1","-1","stop-signal","128","383101","0.0-117.0","sub-04_ses-02_2","","2250","0","stim","","<div class = coverbox></div><div class = shapebox><img class = stim src = /static/experiments/motor_selective_stop_signal/images/circle.png></img></div>","89,71","850","","89","","test","103","<div class = coverbox></div><div class = stopbox><div class = centered-shape id = stop-signal></div><div class = centered-shape id = stop-signal-inner></div></div>","650","stop","500","stop","89",""
"830","71","stop-signal","129","385361","0.0-118.0","sub-04_ses-02_2","","2250","0","stim","","<div class = coverbox></div><div class = shapebox><img class = stim src = /static/experiments/motor_selective_stop_signal/images/triangle.png></img></div>","89,71","850","","71","","test","104","<div class = coverbox></div><div class = stopbox><div class = centered-shape id = stop-signal></div><div class = centered-shape id = stop-signal-inner></div></div>","700","go","500","go","89",""
"1028","89","stop-signal","130","388219","0.0-119.0","sub-04_ses-02_2","","2850","0","stim","","<div class = coverbox></div><div class = shapebox><img class = stim src = /static/experiments/motor_selective_stop_signal/images/Lshape.png></img></div>","89,71","850","","89","","test","105","<div class = coverbox></div><div class = stopbox><div class = centered-shape id = stop-signal></div><div class = centered-shape id = stop-signal-inner></div></div>","700","go","500","go","89",""
"824","71","stop-signal","131","390478","0.0-120.0","sub-04_ses-02_2","","2250","0","stim","","<div class = coverbox></div><div class = shapebox><img class = stim src = /static/experiments/motor_selective_stop_signal/images/triangle.png></img></div>","89,71","850","","71","","test","106","<div class = coverbox></div><div class = stopbox><div class = centered-shape id = stop-signal></div><div class = centered-shape id = stop-signal-inner></div></div>","700","go","500","go","89",""
"625","71","stop-signal","132","393940","0.0-121.0","sub-04_ses-02_2","","3450","0","stim","","<div class = coverbox></div><div class = shapebox><img class = stim src = /static/experiments/motor_selective_stop_signal/images/triangle.png></img></div>","89,71","850","","71","","test","107","<div class = coverbox></div><div class = stopbox><div class = centered-shape id = stop-signal></div><div class = centered-shape id = stop-signal-inner></div></div>","700","go","500","go","89",""
"557","71","stop-signal","133","396301","0.0-122.0","sub-04_ses-02_2","","2350","0","stim","","<div class = coverbox></div><div class = shapebox><img class = stim src = /static/experiments/motor_selective_stop_signal/images/triangle.png></img></div>","89,71","850","","71","","test","108","<div class = coverbox></div><div class = stopbox><div class = centered-shape id = stop-signal></div><div class = centered-shape id = stop-signal-inner></div></div>","700","stop","500","ignore","89",""
"565","71","stop-signal","134","398661","0.0-123.0","sub-04_ses-02_2","","2350","0","stim","","<div class = coverbox></div><div class = shapebox><img class = stim src = /static/experiments/motor_selective_stop_signal/images/rhombus.png></img></div>","89,71","850","","71","","test","109","<div class = coverbox></div><div class = stopbox><div class = centered-shape id = stop-signal></div><div class = centered-shape id = stop-signal-inner></div></div>","700","stop","500","ignore","89",""
"940","89","stop-signal","135","401030","0.0-124.0","sub-04_ses-02_2","","2350","0","stim","","<div class = coverbox></div><div class = shapebox><img class = stim src = /static/experiments/motor_selective_stop_signal/images/Lshape.png></img></div>","89,71","850","","89","","test","110","<div class = coverbox></div><div class = stopbox><div class = centered-shape id = stop-signal></div><div class = centered-shape id = stop-signal-inner></div></div>","700","go","500","go","89",""
"925","89","stop-signal","136","403491","0.0-125.0","sub-04_ses-02_2","","2450","0","stim","","<div class = coverbox></div><div class = shapebox><img class = stim src = /static/experiments/motor_selective_stop_signal/images/circle.png></img></div>","89,71","850","","89","","test","111","<div class = coverbox></div><div class = stopbox><div class = centered-shape id = stop-signal></div><div class = centered-shape id = stop-signal-inner></div></div>","700","stop","500","stop","89",""
"693","71","stop-signal","137","406060","0.0-126.0","sub-04_ses-02_2","","2550","0","stim","","<div class = coverbox></div><div class = shapebox><img class = stim src = /static/experiments/motor_selective_stop_signal/images/triangle.png></img></div>","89,71","850","","71","","test","112","<div class = coverbox></div><div class = stopbox><div class = centered-shape id = stop-signal></div><div class = centered-shape id = stop-signal-inner></div></div>","650","stop","500","ignore","89",""
"1135","89","stop-signal","138","408420","0.0-127.0","sub-04_ses-02_2","","2350","0","stim","","<div class = coverbox></div><div class = shapebox><img class = stim src = /static/experiments/motor_selective_stop_signal/images/circle.png></img></div>","89,71","850","","89","","test","113","<div class = coverbox></div><div class = stopbox><div class = centered-shape id = stop-signal></div><div class = centered-shape id = stop-signal-inner></div></div>","650","go","500","go","89",""
"-1","-1","stop-signal","139","410680","0.0-128.0","sub-04_ses-02_2","","2250","0","stim","","<div class = coverbox></div><div class = shapebox><img class = stim src = /static/experiments/motor_selective_stop_signal/images/circle.png></img></div>","89,71","850","","89","","test","114","<div class = coverbox></div><div class = stopbox><div class = centered-shape id = stop-signal></div><div class = centered-shape id = stop-signal-inner></div></div>","650","stop","500","stop","89",""
"910","89","stop-signal","140","412940","0.0-129.0","sub-04_ses-02_2","","2250","0","stim","","<div class = coverbox></div><div class = shapebox><img class = stim src = /static/experiments/motor_selective_stop_signal/images/circle.png></img></div>","89,71","850","","89","","test","115","<div class = coverbox></div><div class = stopbox><div class = centered-shape id = stop-signal></div><div class = centered-shape id = stop-signal-inner></div></div>","700","go","500","go","89",""
"546","71","stop-signal","141","416000","0.0-130.0","sub-04_ses-02_2","","3050","0","stim","","<div class = coverbox></div><div class = shapebox><img class = stim src = /static/experiments/motor_selective_stop_signal/images/triangle.png></img></div>","89,71","850","","71","","test","116","<div class = coverbox></div><div class = stopbox><div class = centered-shape id = stop-signal></div><div class = centered-shape id = stop-signal-inner></div></div>","700","go","500","go","89",""
"511","71","stop-signal","142","418460","0.0-131.0","sub-04_ses-02_2","","2450","0","stim","","<div class = coverbox></div><div class = shapebox><img class = stim src = /static/experiments/motor_selective_stop_signal/images/rhombus.png></img></div>","89,71","850","","71","","test","117","<div class = coverbox></div><div class = stopbox><div class = centered-shape id = stop-signal></div><div class = centered-shape id = stop-signal-inner></div></div>","700","go","500","go","89",""
"583","71","stop-signal","143","420820","0.0-132.0","sub-04_ses-02_2","","2350","0","stim","","<div class = coverbox></div><div class = shapebox><img class = stim src = /static/experiments/motor_selective_stop_signal/images/triangle.png></img></div>","89,71","850","","71","","test","118","<div class = coverbox></div><div class = stopbox><div class = centered-shape id = stop-signal></div><div class = centered-shape id = stop-signal-inner></div></div>","700","go","500","go","89",""
"780","89","stop-signal","144","423081","0.0-133.0","sub-04_ses-02_2","","2250","0","stim","","<div class = coverbox></div><div class = shapebox><img class = stim src = /static/experiments/motor_selective_stop_signal/images/Lshape.png></img></div>","89,71","850","","89","","test","119","<div class = coverbox></div><div class = stopbox><div class = centered-shape id = stop-signal></div><div class = centered-shape id = stop-signal-inner></div></div>","700","stop","500","stop","89",""
"-1","-1","stop-signal","145","426341","0.0-134.0","sub-04_ses-02_2","","3250","0","stim","","<div class = coverbox></div><div class = shapebox><img class = stim src = /static/experiments/motor_selective_stop_signal/images/Lshape.png></img></div>","89,71","850","","89","","test","120","<div class = coverbox></div><div class = stopbox><div class = centered-shape id = stop-signal></div><div class = centered-shape id = stop-signal-inner></div></div>","650","stop","500","stop","89",""
"839","89","stop-signal","146","429299","0.0-135.0","sub-04_ses-02_2","","2950","0","stim","","<div class = coverbox></div><div class = shapebox><img class = stim src = /static/experiments/motor_selective_stop_signal/images/circle.png></img></div>","89,71","850","","89","","test","121","<div class = coverbox></div><div class = stopbox><div class = centered-shape id = stop-signal></div><div class = centered-shape id = stop-signal-inner></div></div>","700","go","500","go","89",""
"782","89","stop-signal","147","431871","0.0-136.0","sub-04_ses-02_2","","2550","0","stim","","<div class = coverbox></div><div class = shapebox><img class = stim src = /static/experiments/motor_selective_stop_signal/images/Lshape.png></img></div>","89,71","850","","89","","test","122","<div class = coverbox></div><div class = stopbox><div class = centered-shape id = stop-signal></div><div class = centered-shape id = stop-signal-inner></div></div>","700","stop","500","stop","89",""
"716","89","stop-signal","148","434226","0.0-137.0","sub-04_ses-02_2","","2350","0","stim","","<div class = coverbox></div><div class = shapebox><img class = stim src = /static/experiments/motor_selective_stop_signal/images/circle.png></img></div>","89,71","850","","89","","test","123","<div class = coverbox></div><div class = stopbox><div class = centered-shape id = stop-signal></div><div class = centered-shape id = stop-signal-inner></div></div>","650","go","500","go","89",""
"813","89","stop-signal","149","436780","0.0-138.0","sub-04_ses-02_2","","2550","0","stim","","<div class = coverbox></div><div class = shapebox><img class = stim src = /static/experiments/motor_selective_stop_signal/images/circle.png></img></div>","89,71","850","","89","","test","124","<div class = coverbox></div><div class = stopbox><div class = centered-shape id = stop-signal></div><div class = centered-shape id = stop-signal-inner></div></div>","650","stop","500","stop","89",""
"876","71","stop-signal","150","439140","0.0-139.0","sub-04_ses-02_2","","2350","0","stim","","<div class = coverbox></div><div class = shapebox><img class = stim src = /static/experiments/motor_selective_stop_signal/images/triangle.png></img></div>","89,71","850","","71","","test","125","<div class = coverbox></div><div class = stopbox><div class = centered-shape id = stop-signal></div><div class = centered-shape id = stop-signal-inner></div></div>","600","go","500","go","89",""
"741","71","stop-signal","151","441400","0.0-140.0","sub-04_ses-02_2","","2250","0","stim","","<div class = coverbox></div><div class = shapebox><img class = stim src = /static/experiments/motor_selective_stop_signal/images/triangle.png></img></div>","89,71","850","","71","","test","126","<div class = coverbox></div><div class = stopbox><div class = centered-shape id = stop-signal></div><div class = centered-shape id = stop-signal-inner></div></div>","600","go","500","go","89",""
"577","71","stop-signal","152","443871","0.0-141.0","sub-04_ses-02_2","","2450","0","stim","","<div class = coverbox></div><div class = shapebox><img class = stim src = /static/experiments/motor_selective_stop_signal/images/rhombus.png></img></div>","89,71","850","","71","","test","127","<div class = coverbox></div><div class = stopbox><div class = centered-shape id = stop-signal></div><div class = centered-shape id = stop-signal-inner></div></div>","600","stop","500","ignore","89",""
"566","71","stop-signal","153","446230","0.0-142.0","sub-04_ses-02_2","","2350","0","stim","","<div class = coverbox></div><div class = shapebox><img class = stim src = /static/experiments/motor_selective_stop_signal/images/rhombus.png></img></div>","89,71","850","","71","","test","128","<div class = coverbox></div><div class = stopbox><div class = centered-shape id = stop-signal></div><div class = centered-shape id = stop-signal-inner></div></div>","600","go","500","go","89",""
"624","71","stop-signal","154","448900","0.0-143.0","sub-04_ses-02_2","","2650","0","stim","","<div class = coverbox></div><div class = shapebox><img class = stim src = /static/experiments/motor_selective_stop_signal/images/triangle.png></img></div>","89,71","850","","71","","test","129","<div class = coverbox></div><div class = stopbox><div class = centered-shape id = stop-signal></div><div class = centered-shape id = stop-signal-inner></div></div>","600","stop","500","ignore","89",""
"940","89","stop-signal","155","451160","0.0-144.0","sub-04_ses-02_2","","2250","0","stim","","<div class = coverbox></div><div class = shapebox><img class = stim src = /static/experiments/motor_selective_stop_signal/images/Lshape.png></img></div>","89,71","850","","89","","test","130","<div class = coverbox></div><div class = stopbox><div class = centered-shape id = stop-signal></div><div class = centered-shape id = stop-signal-inner></div></div>","600","go","500","go","89",""
"-1","-1","stop-signal","156","453420","0.0-145.0","sub-04_ses-02_2","","2250","0","stim","","<div class = coverbox></div><div class = shapebox><img class = stim src = /static/experiments/motor_selective_stop_signal/images/circle.png></img></div>","89,71","850","","89","","test","131","<div class = coverbox></div><div class = stopbox><div class = centered-shape id = stop-signal></div><div class = centered-shape id = stop-signal-inner></div></div>","600","stop","500","stop","89",""
"1176","89","stop-signal","157","455881","0.0-146.0","sub-04_ses-02_2","","2450","0","stim","","<div class = coverbox></div><div class = shapebox><img class = stim src = /static/experiments/motor_selective_stop_signal/images/circle.png></img></div>","89,71","850","","89","","test","132","<div class = coverbox></div><div class = stopbox><div class = centered-shape id = stop-signal></div><div class = centered-shape id = stop-signal-inner></div></div>","650","go","500","go","89",""
"1177","89","stop-signal","158","458139","0.0-147.0","sub-04_ses-02_2","","2250","0","stim","","<div class = coverbox></div><div class = shapebox><img class = stim src = /static/experiments/motor_selective_stop_signal/images/Lshape.png></img></div>","89,71","850","","89","","test","133","<div class = coverbox></div><div class = stopbox><div class = centered-shape id = stop-signal></div><div class = centered-shape id = stop-signal-inner></div></div>","650","go","500","go","89",""
"-1","-1","stop-signal","159","460711","0.0-148.0","sub-04_ses-02_2","","2550","0","stim","","<div class = coverbox></div><div class = shapebox><img class = stim src = /static/experiments/motor_selective_stop_signal/images/circle.png></img></div>","89,71","850","","89","","test","134","<div class = coverbox></div><div class = stopbox><div class = centered-shape id = stop-signal></div><div class = centered-shape id = stop-signal-inner></div></div>","650","stop","500","stop","89",""
"1091","89","stop-signal","160","462969","0.0-149.0","sub-04_ses-02_2","","2250","0","stim","","<div class = coverbox></div><div class = shapebox><img class = stim src = /static/experiments/motor_selective_stop_signal/images/circle.png></img></div>","89,71","850","","89","","test","135","<div class = coverbox></div><div class = stopbox><div class = centered-shape id = stop-signal></div><div class = centered-shape id = stop-signal-inner></div></div>","700","go","500","go","89",""
"684","71","stop-signal","161","465340","0.0-150.0","sub-04_ses-02_2","","2350","0","stim","","<div class = coverbox></div><div class = shapebox><img class = stim src = /static/experiments/motor_selective_stop_signal/images/rhombus.png></img></div>","89,71","850","","71","","test","136","<div class = coverbox></div><div class = stopbox><div class = centered-shape id = stop-signal></div><div class = centered-shape id = stop-signal-inner></div></div>","700","stop","500","ignore","89",""
"886","89","stop-signal","162","467601","0.0-151.0","sub-04_ses-02_2","","2250","0","stim","","<div class = coverbox></div><div class = shapebox><img class = stim src = /static/experiments/motor_selective_stop_signal/images/circle.png></img></div>","89,71","850","","89","","test","137","<div class = coverbox></div><div class = stopbox><div class = centered-shape id = stop-signal></div><div class = centered-shape id = stop-signal-inner></div></div>","700","stop","500","stop","89",""
"-1","-1","stop-signal","163","470170","0.0-152.0","sub-04_ses-02_2","","2550","0","stim","","<div class = coverbox></div><div class = shapebox><img class = stim src = /static/experiments/motor_selective_stop_signal/images/Lshape.png></img></div>","89,71","850","","89","","test","138","<div class = coverbox></div><div class = stopbox><div class = centered-shape id = stop-signal></div><div class = centered-shape id = stop-signal-inner></div></div>","650","stop","500","stop","89",""
"457","71","stop-signal","164","472740","0.0-153.0","sub-04_ses-02_2","","2550","0","stim","","<div class = coverbox></div><div class = shapebox><img class = stim src = /static/experiments/motor_selective_stop_signal/images/triangle.png></img></div>","89,71","850","","71","","test","139","<div class = coverbox></div><div class = stopbox><div class = centered-shape id = stop-signal></div><div class = centered-shape id = stop-signal-inner></div></div>","700","go","500","go","89",""
"1006","89","stop-signal","165","475101","0.0-154.0","sub-04_ses-02_2","","2350","0","stim","","<div class = coverbox></div><div class = shapebox><img class = stim src = /static/experiments/motor_selective_stop_signal/images/Lshape.png></img></div>","89,71","850","","89","","test","140","<div class = coverbox></div><div class = stopbox><div class = centered-shape id = stop-signal></div><div class = centered-shape id = stop-signal-inner></div></div>","700","go","500","go","89",""
"1011","89","stop-signal","166","477470","0.0-155.0","sub-04_ses-02_2","","2350","0","stim","","<div class = coverbox></div><div class = shapebox><img class = stim src = /static/experiments/motor_selective_stop_signal/images/circle.png></img></div>","89,71","850","","89","","test","141","<div class = coverbox></div><div class = stopbox><div class = centered-shape id = stop-signal></div><div class = centered-shape id = stop-signal-inner></div></div>","700","go","500","go","89",""
"539","71","stop-signal","167","479740","0.0-156.0","sub-04_ses-02_2","","2250","0","stim","","<div class = coverbox></div><div class = shapebox><img class = stim src = /static/experiments/motor_selective_stop_signal/images/rhombus.png></img></div>","89,71","850","","71","","test","142","<div class = coverbox></div><div class = stopbox><div class = centered-shape id = stop-signal></div><div class = centered-shape id = stop-signal-inner></div></div>","700","go","500","go","89",""
"539","71","stop-signal","168","482210","0.0-157.0","sub-04_ses-02_2","","2450","0","stim","","<div class = coverbox></div><div class = shapebox><img class = stim src = /static/experiments/motor_selective_stop_signal/images/triangle.png></img></div>","89,71","850","","71","","test","143","<div class = coverbox></div><div class = stopbox><div class = centered-shape id = stop-signal></div><div class = centered-shape id = stop-signal-inner></div></div>","700","stop","500","ignore","89",""
"315","71","stop-signal","169","484470","0.0-158.0","sub-04_ses-02_2","","2250","0","stim","","<div class = coverbox></div><div class = shapebox><img class = stim src = /static/experiments/motor_selective_stop_signal/images/triangle.png></img></div>","89,71","850","","71","","test","144","<div class = coverbox></div><div class = stopbox><div class = centered-shape id = stop-signal></div><div class = centered-shape id = stop-signal-inner></div></div>","700","go","500","go","89",""
"615","71","stop-signal","170","486930","0.0-159.0","sub-04_ses-02_2","","2450","0","stim","","<div class = coverbox></div><div class = shapebox><img class = stim src = /static/experiments/motor_selective_stop_signal/images/rhombus.png></img></div>","89,71","850","","71","","test","145","<div class = coverbox></div><div class = stopbox><div class = centered-shape id = stop-signal></div><div class = centered-shape id = stop-signal-inner></div></div>","700","stop","500","ignore","89",""
"851","89","stop-signal","171","489591","0.0-160.0","sub-04_ses-02_2","","2650","0","stim","","<div class = coverbox></div><div class = shapebox><img class = stim src = /static/experiments/motor_selective_stop_signal/images/Lshape.png></img></div>","89,71","850","","89","","test","146","<div class = coverbox></div><div class = stopbox><div class = centered-shape id = stop-signal></div><div class = centered-shape id = stop-signal-inner></div></div>","700","stop","500","stop","89",""
"639","71","stop-signal","172","492050","0.0-161.0","sub-04_ses-02_2","","2450","0","stim","","<div class = coverbox></div><div class = shapebox><img class = stim src = /static/experiments/motor_selective_stop_signal/images/rhombus.png></img></div>","89,71","850","","71","","test","147","<div class = coverbox></div><div class = stopbox><div class = centered-shape id = stop-signal></div><div class = centered-shape id = stop-signal-inner></div></div>","650","go","500","go","89",""
"658","71","stop-signal","173","494410","0.0-162.0","sub-04_ses-02_2","","2350","0","stim","","<div class = coverbox></div><div class = shapebox><img class = stim src = /static/experiments/motor_selective_stop_signal/images/rhombus.png></img></div>","89,71","850","","71","","test","148","<div class = coverbox></div><div class = stopbox><div class = centered-shape id = stop-signal></div><div class = centered-shape id = stop-signal-inner></div></div>","650","go","500","go","89",""
"370","71","stop-signal","174","496671","0.0-163.0","sub-04_ses-02_2","","2250","0","stim","","<div class = coverbox></div><div class = shapebox><img class = stim src = /static/experiments/motor_selective_stop_signal/images/rhombus.png></img></div>","89,71","850","","71","","test","149","<div class = coverbox></div><div class = stopbox><div class = centered-shape id = stop-signal></div><div class = centered-shape id = stop-signal-inner></div></div>","650","stop","500","ignore","89",""
"-1","-1","poldrack-single-stim","175","504179","0.0-164.0","sub-04_ses-02_2","","7500","1000","rest_block","","<div class = centerbox><div class = center-text>+</div></div>","none","7500","","","","","","","","","","","",""
"-1","-1","poldrack-single-stim","176","506722","0.0-165.0","sub-04_ses-02_2","","1500","500","test_start_block","","<div class = centerbox><div class = center-text>Preparez-vous!</p></div>","none","1500","","","","","","","","","","","",""
"439","71","stop-signal","177","509800","0.0-166.0","sub-04_ses-02_2","","2550","0","stim","","<div class = coverbox></div><div class = shapebox><img class = stim src = /static/experiments/motor_selective_stop_signal/images/triangle.png></img></div>","89,71","850","","71","","test","150","<div class = coverbox></div><div class = stopbox><div class = centered-shape id = stop-signal></div><div class = centered-shape id = stop-signal-inner></div></div>","650","go","500","go","89",""
"920","89","stop-signal","178","512069","0.0-167.0","sub-04_ses-02_2","","2250","0","stim","","<div class = coverbox></div><div class = shapebox><img class = stim src = /static/experiments/motor_selective_stop_signal/images/Lshape.png></img></div>","89,71","850","","89","","test","151","<div class = coverbox></div><div class = stopbox><div class = centered-shape id = stop-signal></div><div class = centered-shape id = stop-signal-inner></div></div>","650","go","500","go","89",""
"482","71","stop-signal","179","514329","0.0-168.0","sub-04_ses-02_2","","2250","0","stim","","<div class = coverbox></div><div class = shapebox><img class = stim src = /static/experiments/motor_selective_stop_signal/images/triangle.png></img></div>","89,71","850","","71","","test","152","<div class = coverbox></div><div class = stopbox><div class = centered-shape id = stop-signal></div><div class = centered-shape id = stop-signal-inner></div></div>","650","go","500","go","89",""
"817","89","stop-signal","180","516690","0.0-169.0","sub-04_ses-02_2","","2350","0","stim","","<div class = coverbox></div><div class = shapebox><img class = stim src = /static/experiments/motor_selective_stop_signal/images/circle.png></img></div>","89,71","850","","89","","test","153","<div class = coverbox></div><div class = stopbox><div class = centered-shape id = stop-signal></div><div class = centered-shape id = stop-signal-inner></div></div>","650","go","500","go","89",""
"522","71","stop-signal","181","518950","0.0-170.0","sub-04_ses-02_2","","2250","0","stim","","<div class = coverbox></div><div class = shapebox><img class = stim src = /static/experiments/motor_selective_stop_signal/images/rhombus.png></img></div>","89,71","850","","71","","test","154","<div class = coverbox></div><div class = stopbox><div class = centered-shape id = stop-signal></div><div class = centered-shape id = stop-signal-inner></div></div>","650","go","500","go","89",""
"640","71","stop-signal","182","521611","0.0-171.0","sub-04_ses-02_2","","2650","0","stim","","<div class = coverbox></div><div class = shapebox><img class = stim src = /static/experiments/motor_selective_stop_signal/images/rhombus.png></img></div>","89,71","850","","71","","test","155","<div class = coverbox></div><div class = stopbox><div class = centered-shape id = stop-signal></div><div class = centered-shape id = stop-signal-inner></div></div>","650","stop","500","ignore","89",""
"427","71","stop-signal","183","523969","0.0-172.0","sub-04_ses-02_2","","2350","0","stim","","<div class = coverbox></div><div class = shapebox><img class = stim src = /static/experiments/motor_selective_stop_signal/images/triangle.png></img></div>","89,71","850","","71","","test","156","<div class = coverbox></div><div class = stopbox><div class = centered-shape id = stop-signal></div><div class = centered-shape id = stop-signal-inner></div></div>","650","stop","500","ignore","89",""
"737","71","stop-signal","184","526430","0.0-173.0","sub-04_ses-02_2","","2450","0","stim","","<div class = coverbox></div><div class = shapebox><img class = stim src = /static/experiments/motor_selective_stop_signal/images/rhombus.png></img></div>","89,71","850","","71","","test","157","<div class = coverbox></div><div class = stopbox><div class = centered-shape id = stop-signal></div><div class = centered-shape id = stop-signal-inner></div></div>","650","go","500","go","89",""
"500","71","stop-signal","185","528790","0.0-174.0","sub-04_ses-02_2","","2350","0","stim","","<div class = coverbox></div><div class = shapebox><img class = stim src = /static/experiments/motor_selective_stop_signal/images/rhombus.png></img></div>","89,71","850","","71","","test","158","<div class = coverbox></div><div class = stopbox><div class = centered-shape id = stop-signal></div><div class = centered-shape id = stop-signal-inner></div></div>","650","stop","500","ignore","89",""
"-1","-1","stop-signal","186","531051","0.0-175.0","sub-04_ses-02_2","","2250","0","stim","","<div class = coverbox></div><div class = shapebox><img class = stim src = /static/experiments/motor_selective_stop_signal/images/Lshape.png></img></div>","89,71","850","","89","","test","159","<div class = coverbox></div><div class = stopbox><div class = centered-shape id = stop-signal></div><div class = centered-shape id = stop-signal-inner></div></div>","650","stop","500","stop","89",""
"948","71","stop-signal","187","533326","0.0-176.0","sub-04_ses-02_2","","2250","0","stim","","<div class = coverbox></div><div class = shapebox><img class = stim src = /static/experiments/motor_selective_stop_signal/images/rhombus.png></img></div>","89,71","850","","71","","test","160","<div class = coverbox></div><div class = stopbox><div class = centered-shape id = stop-signal></div><div class = centered-shape id = stop-signal-inner></div></div>","700","go","500","go","89",""
"-1","-1","stop-signal","188","535588","0.0-177.0","sub-04_ses-02_2","","2250","0","stim","","<div class = coverbox></div><div class = shapebox><img class = stim src = /static/experiments/motor_selective_stop_signal/images/Lshape.png></img></div>","89,71","850","","89","","test","161","<div class = coverbox></div><div class = stopbox><div class = centered-shape id = stop-signal></div><div class = centered-shape id = stop-signal-inner></div></div>","700","stop","500","stop","89",""
"1254","89","stop-signal","189","537864","0.0-178.0","sub-04_ses-02_2","","2250","0","stim","","<div class = coverbox></div><div class = shapebox><img class = stim src = /static/experiments/motor_selective_stop_signal/images/Lshape.png></img></div>","89,71","850","","89","","test","162","<div class = coverbox></div><div class = stopbox><div class = centered-shape id = stop-signal></div><div class = centered-shape id = stop-signal-inner></div></div>","750","go","500","go","89",""
"-1","-1","stop-signal","190","540244","0.0-179.0","sub-04_ses-02_2","","2350","0","stim","","<div class = coverbox></div><div class = shapebox><img class = stim src = /static/experiments/motor_selective_stop_signal/images/Lshape.png></img></div>","89,71","850","","89","","test","163","<div class = coverbox></div><div class = stopbox><div class = centered-shape id = stop-signal></div><div class = centered-shape id = stop-signal-inner></div></div>","750","stop","500","stop","89",""
"664","71","stop-signal","191","543623","0.0-180.0","sub-04_ses-02_2","","3350","0","stim","","<div class = coverbox></div><div class = shapebox><img class = stim src = /static/experiments/motor_selective_stop_signal/images/triangle.png></img></div>","89,71","850","","71","","test","164","<div class = coverbox></div><div class = stopbox><div class = centered-shape id = stop-signal></div><div class = centered-shape id = stop-signal-inner></div></div>","800","go","500","go","89",""
"561","71","stop-signal","192","546193","0.0-181.0","sub-04_ses-02_2","","2550","0","stim","","<div class = coverbox></div><div class = shapebox><img class = stim src = /static/experiments/motor_selective_stop_signal/images/rhombus.png></img></div>","89,71","850","","71","","test","165","<div class = coverbox></div><div class = stopbox><div class = centered-shape id = stop-signal></div><div class = centered-shape id = stop-signal-inner></div></div>","800","go","500","go","89",""
"1099","89","stop-signal","193","548952","0.0-182.0","sub-04_ses-02_2","","2750","0","stim","","<div class = coverbox></div><div class = shapebox><img class = stim src = /static/experiments/motor_selective_stop_signal/images/circle.png></img></div>","89,71","850","","89","","test","166","<div class = coverbox></div><div class = stopbox><div class = centered-shape id = stop-signal></div><div class = centered-shape id = stop-signal-inner></div></div>","800","stop","500","stop","89",""
"1343","71","stop-signal","194","551710","0.0-183.0","sub-04_ses-02_2","","2750","0","stim","","<div class = coverbox></div><div class = shapebox><img class = stim src = /static/experiments/motor_selective_stop_signal/images/triangle.png></img></div>","89,71","850","","71","","test","167","<div class = coverbox></div><div class = stopbox><div class = centered-shape id = stop-signal></div><div class = centered-shape id = stop-signal-inner></div></div>","750","go","500","go","89",""
"1023","89","stop-signal","195","554371","0.0-184.0","sub-04_ses-02_2","","2650","0","stim","","<div class = coverbox></div><div class = shapebox><img class = stim src = /static/experiments/motor_selective_stop_signal/images/circle.png></img></div>","89,71","850","","89","","test","168","<div class = coverbox></div><div class = stopbox><div class = centered-shape id = stop-signal></div><div class = centered-shape id = stop-signal-inner></div></div>","750","go","500","go","89",""
"992","89","stop-signal","196","556831","0.0-185.0","sub-04_ses-02_2","","2450","0","stim","","<div class = coverbox></div><div class = shapebox><img class = stim src = /static/experiments/motor_selective_stop_signal/images/circle.png></img></div>","89,71","850","","89","","test","169","<div class = coverbox></div><div class = stopbox><div class = centered-shape id = stop-signal></div><div class = centered-shape id = stop-signal-inner></div></div>","750","stop","500","stop","89",""
"530","71","stop-signal","197","559090","0.0-186.0","sub-04_ses-02_2","","2250","0","stim","","<div class = coverbox></div><div class = shapebox><img class = stim src = /static/experiments/motor_selective_stop_signal/images/triangle.png></img></div>","89,71","850","","71","","test","170","<div class = coverbox></div><div class = stopbox><div class = centered-shape id = stop-signal></div><div class = centered-shape id = stop-signal-inner></div></div>","700","go","500","go","89",""
"400","71","stop-signal","198","561450","0.0-187.0","sub-04_ses-02_2","","2350","0","stim","","<div class = coverbox></div><div class = shapebox><img class = stim src = /static/experiments/motor_selective_stop_signal/images/triangle.png></img></div>","89,71","850","","71","","test","171","<div class = coverbox></div><div class = stopbox><div class = centered-shape id = stop-signal></div><div class = centered-shape id = stop-signal-inner></div></div>","700","go","500","go","89",""
"421","71","stop-signal","199","563920","0.0-188.0","sub-04_ses-02_2","","2450","0","stim","","<div class = coverbox></div><div class = shapebox><img class = stim src = /static/experiments/motor_selective_stop_signal/images/triangle.png></img></div>","89,71","850","","71","","test","172","<div class = coverbox></div><div class = stopbox><div class = centered-shape id = stop-signal></div><div class = centered-shape id = stop-signal-inner></div></div>","700","go","500","go","89",""
"553","71","stop-signal","200","566990","0.0-189.0","sub-04_ses-02_2","","3050","0","stim","","<div class = coverbox></div><div class = shapebox><img class = stim src = /static/experiments/motor_selective_stop_signal/images/triangle.png></img></div>","89,71","850","","71","","test","173","<div class = coverbox></div><div class = stopbox><div class = centered-shape id = stop-signal></div><div class = centered-shape id = stop-signal-inner></div></div>","700","go","500","go","89",""
"1270","89","stop-signal","201","569361","0.0-190.0","sub-04_ses-02_2","","2350","0","stim","","<div class = coverbox></div><div class = shapebox><img class = stim src = /static/experiments/motor_selective_stop_signal/images/Lshape.png></img></div>","89,71","850","","89","","test","174","<div class = coverbox></div><div class = stopbox><div class = centered-shape id = stop-signal></div><div class = centered-shape id = stop-signal-inner></div></div>","700","go","500","go","89",""
"615","71","stop-signal","202","571621","0.0-191.0","sub-04_ses-02_2","","2250","0","stim","","<div class = coverbox></div><div class = shapebox><img class = stim src = /static/experiments/motor_selective_stop_signal/images/triangle.png></img></div>","89,71","850","","71","","test","175","<div class = coverbox></div><div class = stopbox><div class = centered-shape id = stop-signal></div><div class = centered-shape id = stop-signal-inner></div></div>","700","stop","500","ignore","89",""
"667","71","stop-signal","203","573990","0.0-192.0","sub-04_ses-02_2","","2350","0","stim","","<div class = coverbox></div><div class = shapebox><img class = stim src = /static/experiments/motor_selective_stop_signal/images/triangle.png></img></div>","89,71","850","","71","","test","176","<div class = coverbox></div><div class = stopbox><div class = centered-shape id = stop-signal></div><div class = centered-shape id = stop-signal-inner></div></div>","700","go","500","go","89",""
"701","71","stop-signal","204","576350","0.0-193.0","sub-04_ses-02_2","","2350","0","stim","","<div class = coverbox></div><div class = shapebox><img class = stim src = /static/experiments/motor_selective_stop_signal/images/rhombus.png></img></div>","89,71","850","","71","","test","177","<div class = coverbox></div><div class = stopbox><div class = centered-shape id = stop-signal></div><div class = centered-shape id = stop-signal-inner></div></div>","700","go","500","go","89",""
"640","71","stop-signal","205","578711","0.0-194.0","sub-04_ses-02_2","","2350","0","stim","","<div class = coverbox></div><div class = shapebox><img class = stim src = /static/experiments/motor_selective_stop_signal/images/rhombus.png></img></div>","89,71","850","","71","","test","178","<div class = coverbox></div><div class = stopbox><div class = centered-shape id = stop-signal></div><div class = centered-shape id = stop-signal-inner></div></div>","700","go","500","go","89",""
"-1","-1","stop-signal","206","581070","0.0-195.0","sub-04_ses-02_2","","2350","0","stim","","<div class = coverbox></div><div class = shapebox><img class = stim src = /static/experiments/motor_selective_stop_signal/images/triangle.png></img></div>","89,71","850","","71","","test","179","<div class = coverbox></div><div class = stopbox><div class = centered-shape id = stop-signal></div><div class = centered-shape id = stop-signal-inner></div></div>","700","stop","500","ignore","89",""
"978","89","stop-signal","207","583429","0.0-196.0","sub-04_ses-02_2","","2350","0","stim","","<div class = coverbox></div><div class = shapebox><img class = stim src = /static/experiments/motor_selective_stop_signal/images/Lshape.png></img></div>","89,71","850","","89","","test","180","<div class = coverbox></div><div class = stopbox><div class = centered-shape id = stop-signal></div><div class = centered-shape id = stop-signal-inner></div></div>","700","go","500","go","89",""
"1051","89","stop-signal","208","585701","0.0-197.0","sub-04_ses-02_2","","2250","0","stim","","<div class = coverbox></div><div class = shapebox><img class = stim src = /static/experiments/motor_selective_stop_signal/images/Lshape.png></img></div>","89,71","850","","89","","test","181","<div class = coverbox></div><div class = stopbox><div class = centered-shape id = stop-signal></div><div class = centered-shape id = stop-signal-inner></div></div>","700","go","500","go","89",""
"-1","-1","stop-signal","209","588061","0.0-198.0","sub-04_ses-02_2","","2350","0","stim","","<div class = coverbox></div><div class = shapebox><img class = stim src = /static/experiments/motor_selective_stop_signal/images/Lshape.png></img></div>","89,71","850","","89","","test","182","<div class = coverbox></div><div class = stopbox><div class = centered-shape id = stop-signal></div><div class = centered-shape id = stop-signal-inner></div></div>","700","stop","500","stop","89",""
"606","71","stop-signal","210","590519","0.0-199.0","sub-04_ses-02_2","","2450","0","stim","","<div class = coverbox></div><div class = shapebox><img class = stim src = /static/experiments/motor_selective_stop_signal/images/rhombus.png></img></div>","89,71","850","","71","","test","183","<div class = coverbox></div><div class = stopbox><div class = centered-shape id = stop-signal></div><div class = centered-shape id = stop-signal-inner></div></div>","750","go","500","go","89",""
"457","71","stop-signal","211","592891","0.0-200.0","sub-04_ses-02_2","","2350","0","stim","","<div class = coverbox></div><div class = shapebox><img class = stim src = /static/experiments/motor_selective_stop_signal/images/triangle.png></img></div>","89,71","850","","71","","test","184","<div class = coverbox></div><div class = stopbox><div class = centered-shape id = stop-signal></div><div class = centered-shape id = stop-signal-inner></div></div>","750","go","500","go","89",""
"801","71","stop-signal","212","595748","0.0-201.0","sub-04_ses-02_2","","2850","0","stim","","<div class = coverbox></div><div class = shapebox><img class = stim src = /static/experiments/motor_selective_stop_signal/images/Lshape.png></img></div>","89,71","850","","89","","test","185","<div class = coverbox></div><div class = stopbox><div class = centered-shape id = stop-signal></div><div class = centered-shape id = stop-signal-inner></div></div>","750","go","500","go","89",""
"1010","89","stop-signal","213","598314","0.0-202.0","sub-04_ses-02_2","","2550","0","stim","","<div class = coverbox></div><div class = shapebox><img class = stim src = /static/experiments/motor_selective_stop_signal/images/circle.png></img></div>","89,71","850","","89","","test","186","<div class = coverbox></div><div class = stopbox><div class = centered-shape id = stop-signal></div><div class = centered-shape id = stop-signal-inner></div></div>","750","go","500","go","89",""
"622","71","stop-signal","214","601092","0.0-203.0","sub-04_ses-02_2","","2750","0","stim","","<div class = coverbox></div><div class = shapebox><img class = stim src = /static/experiments/motor_selective_stop_signal/images/triangle.png></img></div>","89,71","850","","71","","test","187","<div class = coverbox></div><div class = stopbox><div class = centered-shape id = stop-signal></div><div class = centered-shape id = stop-signal-inner></div></div>","750","go","500","go","89",""
