"rt","key_press","trial_type","trial_index","time_elapsed","internal_node_id","subject","text","block_duration","timing_post_trial","trial_id","stimulus","possible_responses","stim_duration","exp_stage","which_round","num_click_in_round","num_cards","num_loss_cards","gain_amount","loss_amount","round_points","clicked_on_loss_card","reward","exp_id"
"8877","13","text","0","8882","0.0-0.0","sub-13-ses-03_1","","","","","","","","","","","","","","","","","",""
"1765","89","poldrack-text","1","11669","0.0-1.0","sub-13-ses-03_1","<div class = centerbox><div style = 'font-size: 50px' class = center-text>Veuillez appuyer avec votre index</p></div>","1765","500","fmri_response_test","","","","","","","","","","","","","",""
"524","71","poldrack-text","2","12717","0.0-2.0","sub-13-ses-03_1","<div class = centerbox><div style = 'font-size: 50px' class = center-text>Veuillez appuyer avec votre majeur</p></div>","524","500","fmri_response_test","","","","","","","","","","","","","",""
"5394","32","poldrack-single-stim","3","18628","0.0-3.0","sub-13-ses-03_1","","5394","500","instructions","<div class = centerbox><div class = center-text><font size=""+3"">Essayez d'obtenir autant de points que possible<br><br>Le montant des pertres, le montant du gain et le nombre de cartes de perte peuvent changer a chaque essai<br><br>Index: Prendre autre carte <br>Majeur: Fin de la ronde</font></div></div>","32","5394","","","","","","","","","","",""
"1296","32","poldrack-text","4","20436","0.0-4.0","sub-13-ses-03_1","<div class = centerbox><div  class = center-text>Scanner Setup</div></div>","1296","0","fmri_scanner_wait","","","","","","","","","","","","","",""
"47038","84","poldrack-text","5","67479","0.0-5.0","sub-13-ses-03_1","<div class = centerbox><div style='color:red'; class = center-text>+</div></div>","47038","0","fmri_trigger_wait","","","","","","","","","","","","","",""
"-1","-1","poldrack-single-stim","6","68498","0.0-6.0","sub-13-ses-03_1","","1000","0","fmri_buffer","","none","1000","","","","","","","","","","",""
"-1","-1","poldrack-single-stim","7","70012","0.0-7.0","sub-13-ses-03_1","","1500","500","test_start_block","<div class = centerbox><div class = center-text>Preparez-vous!</p></div>","none","1500","","","","","","","","","","",""
"1890","89","poldrack-single-stim","8","72422","0.0-8.0-0.0-0.0","sub-13-ses-03_1","","1890","0","stim","<div class = cct-box><div class = titleBigBox>   <div class = titleboxLeft><div class = game-text id = game_round>Tour: 1</div></div>   <div class = titleboxLeft1><div class = game-text id = loss_amount>Pertes: -70</div></div>    <div class = titleboxMiddle1><div class = game-text id = gain_amount>Gains: 12</div></div>    <div class = titlebox><div class = game-text>Combien de cartes voulez-vous prendre? </div></div>     <div class = titleboxRight1><div class = game-text id = num_loss_cards><font size='+3'>Mauveaises Cartes: 1</font></div></div>   <div class = titleboxRight><div class = game-text id = current_round>Points du tour: 0</div></div><div class = cardbox><div class = square><input type='image' id = 1 class = 'card_image' src='/static/experiments/columbia_card_task_hot/images/beforeChosen.png'></div><div class = square><input type='image' id = 2 class = 'card_image' src='/static/experiments/columbia_card_task_hot/images/beforeChosen.png'></div><div class = square><input type='image' id = 3 class = 'card_image' src='/static/experiments/columbia_card_task_hot/images/beforeChosen.png'></div><div class = square><input type='image' id = 4 class = 'card_image' src='/static/experiments/columbia_card_task_hot/images/beforeChosen.png'></div><div class = square><input type='image' id = 5 class = 'card_image' src='/static/experiments/columbia_card_task_hot/images/beforeChosen.png'></div><div class = square><input type='image' id = 6 class = 'card_image' src='/static/experiments/columbia_card_task_hot/images/beforeChosen.png'></div></div>","89,71","1890","test","1","1","6","1","12","-70","12","false","",""
"962","89","poldrack-single-stim","9","73399","0.0-8.0-0.1-0.1","sub-13-ses-03_1","","962","0","stim","<div class = cct-box><div class = titleBigBox>   <div class = titleboxLeft><div class = game-text id = game_round>Tour: 1</div></div>   <div class = titleboxLeft1><div class = game-text id = loss_amount>Pertes: -70</div></div>    <div class = titleboxMiddle1><div class = game-text id = gain_amount>Gains: 12</div></div>    <div class = titlebox><div class = game-text>Combien de cartes voulez-vous prendre? </div></div>     <div class = titleboxRight1><div class = game-text id = num_loss_cards><font size='+3'>Mauveaises Cartes: 1</font></div></div>   <div class = titleboxRight><div class = game-text id = current_round>Points du tour: 12</div></div><div class = cardbox><div class = square><input type='image' id = 1 class = 'card_image' src='/static/experiments/columbia_card_task_hot/images/beforeChosen.png'></div><div class = square><input type='image' id = 2 class = 'card_image' src='/static/experiments/columbia_card_task_hot/images/chosen.png'></div><div class = square><input type='image' id = 3 class = 'card_image' src='/static/experiments/columbia_card_task_hot/images/beforeChosen.png'></div><div class = square><input type='image' id = 4 class = 'card_image' src='/static/experiments/columbia_card_task_hot/images/beforeChosen.png'></div><div class = square><input type='image' id = 5 class = 'card_image' src='/static/experiments/columbia_card_task_hot/images/beforeChosen.png'></div><div class = square><input type='image' id = 6 class = 'card_image' src='/static/experiments/columbia_card_task_hot/images/beforeChosen.png'></div></div>","89,71","962","test","1","2","6","1","12","-70","24","false","",""
"1045","89","poldrack-single-stim","10","74450","0.0-8.0-0.2-0.2","sub-13-ses-03_1","","1045","0","stim","<div class = cct-box><div class = titleBigBox>   <div class = titleboxLeft><div class = game-text id = game_round>Tour: 1</div></div>   <div class = titleboxLeft1><div class = game-text id = loss_amount>Pertes: -70</div></div>    <div class = titleboxMiddle1><div class = game-text id = gain_amount>Gains: 12</div></div>    <div class = titlebox><div class = game-text>Combien de cartes voulez-vous prendre? </div></div>     <div class = titleboxRight1><div class = game-text id = num_loss_cards><font size='+3'>Mauveaises Cartes: 1</font></div></div>   <div class = titleboxRight><div class = game-text id = current_round>Points du tour: 24</div></div><div class = cardbox><div class = square><input type='image' id = 1 class = 'card_image' src='/static/experiments/columbia_card_task_hot/images/beforeChosen.png'></div><div class = square><input type='image' id = 2 class = 'card_image' src='/static/experiments/columbia_card_task_hot/images/chosen.png'></div><div class = square><input type='image' id = 3 class = 'card_image' src='/static/experiments/columbia_card_task_hot/images/beforeChosen.png'></div><div class = square><input type='image' id = 4 class = 'card_image' src='/static/experiments/columbia_card_task_hot/images/chosen.png'></div><div class = square><input type='image' id = 5 class = 'card_image' src='/static/experiments/columbia_card_task_hot/images/beforeChosen.png'></div><div class = square><input type='image' id = 6 class = 'card_image' src='/static/experiments/columbia_card_task_hot/images/beforeChosen.png'></div></div>","89,71","1045","test","1","3","6","1","12","-70","36","false","",""
"668","71","poldrack-single-stim","11","75126","0.0-8.0-0.3-0.3","sub-13-ses-03_1","","668","0","stim","<div class = cct-box><div class = titleBigBox>   <div class = titleboxLeft><div class = game-text id = game_round>Tour: 1</div></div>   <div class = titleboxLeft1><div class = game-text id = loss_amount>Pertes: -70</div></div>    <div class = titleboxMiddle1><div class = game-text id = gain_amount>Gains: 12</div></div>    <div class = titlebox><div class = game-text>Combien de cartes voulez-vous prendre? </div></div>     <div class = titleboxRight1><div class = game-text id = num_loss_cards><font size='+3'>Mauveaises Cartes: 1</font></div></div>   <div class = titleboxRight><div class = game-text id = current_round>Points du tour: 36</div></div><div class = cardbox><div class = square><input type='image' id = 1 class = 'card_image' src='/static/experiments/columbia_card_task_hot/images/beforeChosen.png'></div><div class = square><input type='image' id = 2 class = 'card_image' src='/static/experiments/columbia_card_task_hot/images/chosen.png'></div><div class = square><input type='image' id = 3 class = 'card_image' src='/static/experiments/columbia_card_task_hot/images/beforeChosen.png'></div><div class = square><input type='image' id = 4 class = 'card_image' src='/static/experiments/columbia_card_task_hot/images/chosen.png'></div><div class = square><input type='image' id = 5 class = 'card_image' src='/static/experiments/columbia_card_task_hot/images/beforeChosen.png'></div><div class = square><input type='image' id = 6 class = 'card_image' src='/static/experiments/columbia_card_task_hot/images/chosen.png'></div></div>","89,71","668","test","1","3","6","1","12","-70","36","false","",""
"-1","-1","poldrack-single-stim","12","77609","0.0-8.0-1.0","sub-13-ses-03_1","","2454","0","ITI","<div class = cct-box><div class = titleBigBox>   <div class = titleboxLeft><div class = game-text id = game_round>Tour: 1</div></div>   <div class = titleboxLeft1><div class = game-text id = loss_amount>Pertes: -70</div></div>    <div class = titleboxMiddle1><div class = game-text id = gain_amount>Gains: 12</div></div>    <div class = titlebox><div class = game-text>Combien de cartes voulez-vous prendre? </div></div>     <div class = titleboxRight1><div class = game-text id = num_loss_cards><font size='+3'>Mauveaises Cartes: 1</font></div></div>   <div class = titleboxRight><div class = game-text id = current_round>Points du tour: 36</div></div><div class = cardbox><div class = square><input type='image' id = 1 class = 'card_image' src='/static/experiments/columbia_card_task_hot/images/beforeChosen.png'></div><div class = square><input type='image' id = 2 class = 'card_image' src='/static/experiments/columbia_card_task_hot/images/chosen.png'></div><div class = square><input type='image' id = 3 class = 'card_image' src='/static/experiments/columbia_card_task_hot/images/beforeChosen.png'></div><div class = square><input type='image' id = 4 class = 'card_image' src='/static/experiments/columbia_card_task_hot/images/chosen.png'></div><div class = square><input type='image' id = 5 class = 'card_image' src='/static/experiments/columbia_card_task_hot/images/beforeChosen.png'></div><div class = square><input type='image' id = 6 class = 'card_image' src='/static/experiments/columbia_card_task_hot/images/chosen.png'></div></div>","none","2250","","","","","","","","","","",""
"1402","89","poldrack-single-stim","13","79022","0.0-8.1-0.4-0.4","sub-13-ses-03_1","","1402","0","stim","<div class = cct-box><div class = titleBigBox>   <div class = titleboxLeft><div class = game-text id = game_round>Tour: 2</div></div>   <div class = titleboxLeft1><div class = game-text id = loss_amount>Pertes: -75</div></div>    <div class = titleboxMiddle1><div class = game-text id = gain_amount>Gains: 14</div></div>    <div class = titlebox><div class = game-text>Combien de cartes voulez-vous prendre? </div></div>     <div class = titleboxRight1><div class = game-text id = num_loss_cards><font size='+3'>Mauveaises Cartes: 1</font></div></div>   <div class = titleboxRight><div class = game-text id = current_round>Points du tour: 0</div></div><div class = cardbox><div class = square><input type='image' id = 1 class = 'card_image' src='/static/experiments/columbia_card_task_hot/images/beforeChosen.png'></div><div class = square><input type='image' id = 2 class = 'card_image' src='/static/experiments/columbia_card_task_hot/images/beforeChosen.png'></div><div class = square><input type='image' id = 3 class = 'card_image' src='/static/experiments/columbia_card_task_hot/images/beforeChosen.png'></div><div class = square><input type='image' id = 4 class = 'card_image' src='/static/experiments/columbia_card_task_hot/images/beforeChosen.png'></div><div class = square><input type='image' id = 5 class = 'card_image' src='/static/experiments/columbia_card_task_hot/images/beforeChosen.png'></div><div class = square><input type='image' id = 6 class = 'card_image' src='/static/experiments/columbia_card_task_hot/images/beforeChosen.png'></div></div>","89,71","1402","test","2","1","6","1","14","-75","14","false","",""
"1279","89","poldrack-single-stim","14","80305","0.0-8.1-0.5-0.5","sub-13-ses-03_1","","1279","0","stim","<div class = cct-box><div class = titleBigBox>   <div class = titleboxLeft><div class = game-text id = game_round>Tour: 2</div></div>   <div class = titleboxLeft1><div class = game-text id = loss_amount>Pertes: -75</div></div>    <div class = titleboxMiddle1><div class = game-text id = gain_amount>Gains: 14</div></div>    <div class = titlebox><div class = game-text>Combien de cartes voulez-vous prendre? </div></div>     <div class = titleboxRight1><div class = game-text id = num_loss_cards><font size='+3'>Mauveaises Cartes: 1</font></div></div>   <div class = titleboxRight><div class = game-text id = current_round>Points du tour: 14</div></div><div class = cardbox><div class = square><input type='image' id = 1 class = 'card_image' src='/static/experiments/columbia_card_task_hot/images/beforeChosen.png'></div><div class = square><input type='image' id = 2 class = 'card_image' src='/static/experiments/columbia_card_task_hot/images/beforeChosen.png'></div><div class = square><input type='image' id = 3 class = 'card_image' src='/static/experiments/columbia_card_task_hot/images/beforeChosen.png'></div><div class = square><input type='image' id = 4 class = 'card_image' src='/static/experiments/columbia_card_task_hot/images/beforeChosen.png'></div><div class = square><input type='image' id = 5 class = 'card_image' src='/static/experiments/columbia_card_task_hot/images/chosen.png'></div><div class = square><input type='image' id = 6 class = 'card_image' src='/static/experiments/columbia_card_task_hot/images/beforeChosen.png'></div></div>","89,71","1279","test","2","2","6","1","14","-75","28","false","",""
"1936","89","poldrack-single-stim","15","82250","0.0-8.1-0.6-0.6","sub-13-ses-03_1","","1936","0","stim","<div class = cct-box><div class = titleBigBox>   <div class = titleboxLeft><div class = game-text id = game_round>Tour: 2</div></div>   <div class = titleboxLeft1><div class = game-text id = loss_amount>Pertes: -75</div></div>    <div class = titleboxMiddle1><div class = game-text id = gain_amount>Gains: 14</div></div>    <div class = titlebox><div class = game-text>Combien de cartes voulez-vous prendre? </div></div>     <div class = titleboxRight1><div class = game-text id = num_loss_cards><font size='+3'>Mauveaises Cartes: 1</font></div></div>   <div class = titleboxRight><div class = game-text id = current_round>Points du tour: 28</div></div><div class = cardbox><div class = square><input type='image' id = 1 class = 'card_image' src='/static/experiments/columbia_card_task_hot/images/beforeChosen.png'></div><div class = square><input type='image' id = 2 class = 'card_image' src='/static/experiments/columbia_card_task_hot/images/beforeChosen.png'></div><div class = square><input type='image' id = 3 class = 'card_image' src='/static/experiments/columbia_card_task_hot/images/beforeChosen.png'></div><div class = square><input type='image' id = 4 class = 'card_image' src='/static/experiments/columbia_card_task_hot/images/chosen.png'></div><div class = square><input type='image' id = 5 class = 'card_image' src='/static/experiments/columbia_card_task_hot/images/chosen.png'></div><div class = square><input type='image' id = 6 class = 'card_image' src='/static/experiments/columbia_card_task_hot/images/beforeChosen.png'></div></div>","89,71","1936","test","2","3","6","1","14","-75","42","false","",""
"1551","89","poldrack-single-stim","16","83812","0.0-8.1-0.7-0.7","sub-13-ses-03_1","","1551","0","stim","<div class = cct-box><div class = titleBigBox>   <div class = titleboxLeft><div class = game-text id = game_round>Tour: 2</div></div>   <div class = titleboxLeft1><div class = game-text id = loss_amount>Pertes: -75</div></div>    <div class = titleboxMiddle1><div class = game-text id = gain_amount>Gains: 14</div></div>    <div class = titlebox><div class = game-text>Combien de cartes voulez-vous prendre? </div></div>     <div class = titleboxRight1><div class = game-text id = num_loss_cards><font size='+3'>Mauveaises Cartes: 1</font></div></div>   <div class = titleboxRight><div class = game-text id = current_round>Points du tour: 42</div></div><div class = cardbox><div class = square><input type='image' id = 1 class = 'card_image' src='/static/experiments/columbia_card_task_hot/images/beforeChosen.png'></div><div class = square><input type='image' id = 2 class = 'card_image' src='/static/experiments/columbia_card_task_hot/images/beforeChosen.png'></div><div class = square><input type='image' id = 3 class = 'card_image' src='/static/experiments/columbia_card_task_hot/images/chosen.png'></div><div class = square><input type='image' id = 4 class = 'card_image' src='/static/experiments/columbia_card_task_hot/images/chosen.png'></div><div class = square><input type='image' id = 5 class = 'card_image' src='/static/experiments/columbia_card_task_hot/images/chosen.png'></div><div class = square><input type='image' id = 6 class = 'card_image' src='/static/experiments/columbia_card_task_hot/images/beforeChosen.png'></div></div>","89,71","1551","test","2","4","6","1","14","-75","-33","true","",""
"-1","-1","poldrack-single-stim","17","86289","0.0-8.1-1.1","sub-13-ses-03_1","","2454","0","ITI","<div class = cct-box><div class = titleBigBox>   <div class = titleboxLeft><div class = game-text id = game_round>Tour: 2</div></div>   <div class = titleboxLeft1><div class = game-text id = loss_amount>Pertes: -75</div></div>    <div class = titleboxMiddle1><div class = game-text id = gain_amount>Gains: 14</div></div>    <div class = titlebox><div class = game-text>Combien de cartes voulez-vous prendre? </div></div>     <div class = titleboxRight1><div class = game-text id = num_loss_cards><font size='+3'>Mauveaises Cartes: 1</font></div></div>   <div class = titleboxRight><div class = game-text id = current_round>Points du tour: -33</div></div><div class = cardbox><div class = square><input type='image' id = 1 class = 'card_image' src='/static/experiments/columbia_card_task_hot/images/beforeChosen.png'></div><div class = square><input type='image' id = 2 class = 'card_image' src='/static/experiments/columbia_card_task_hot/images/beforeChosen.png'></div><div class = square><input type='image' id = 3 class = 'card_image' src='/static/experiments/columbia_card_task_hot/images/chosen.png'></div><div class = square><input type='image' id = 4 class = 'card_image' src='/static/experiments/columbia_card_task_hot/images/chosen.png'></div><div class = square><input type='image' id = 5 class = 'card_image' src='/static/experiments/columbia_card_task_hot/images/chosen.png'></div><div class = square><input type='image' id = 6 class = 'card_image' src='/static/experiments/columbia_card_task_hot/images/loss.png'></div></div>","none","2250","","","","","","","","","","",""
"664","89","poldrack-single-stim","18","86960","0.0-8.2-0.8-0.8","sub-13-ses-03_1","","664","0","stim","<div class = cct-box><div class = titleBigBox>   <div class = titleboxLeft><div class = game-text id = game_round>Tour: 3</div></div>   <div class = titleboxLeft1><div class = game-text id = loss_amount>Pertes: -70</div></div>    <div class = titleboxMiddle1><div class = game-text id = gain_amount>Gains: 15</div></div>    <div class = titlebox><div class = game-text>Combien de cartes voulez-vous prendre? </div></div>     <div class = titleboxRight1><div class = game-text id = num_loss_cards><font size='+3'>Mauveaises Cartes: 1</font></div></div>   <div class = titleboxRight><div class = game-text id = current_round>Points du tour: 0</div></div><div class = cardbox><div class = square><input type='image' id = 1 class = 'card_image' src='/static/experiments/columbia_card_task_hot/images/beforeChosen.png'></div><div class = square><input type='image' id = 2 class = 'card_image' src='/static/experiments/columbia_card_task_hot/images/beforeChosen.png'></div><div class = square><input type='image' id = 3 class = 'card_image' src='/static/experiments/columbia_card_task_hot/images/beforeChosen.png'></div><div class = square><input type='image' id = 4 class = 'card_image' src='/static/experiments/columbia_card_task_hot/images/beforeChosen.png'></div><div class = square><input type='image' id = 5 class = 'card_image' src='/static/experiments/columbia_card_task_hot/images/beforeChosen.png'></div><div class = square><input type='image' id = 6 class = 'card_image' src='/static/experiments/columbia_card_task_hot/images/beforeChosen.png'></div></div>","89,71","664","test","3","1","6","1","15","-70","15","false","",""
"498","89","poldrack-single-stim","19","87463","0.0-8.2-0.9-0.9","sub-13-ses-03_1","","498","0","stim","<div class = cct-box><div class = titleBigBox>   <div class = titleboxLeft><div class = game-text id = game_round>Tour: 3</div></div>   <div class = titleboxLeft1><div class = game-text id = loss_amount>Pertes: -70</div></div>    <div class = titleboxMiddle1><div class = game-text id = gain_amount>Gains: 15</div></div>    <div class = titlebox><div class = game-text>Combien de cartes voulez-vous prendre? </div></div>     <div class = titleboxRight1><div class = game-text id = num_loss_cards><font size='+3'>Mauveaises Cartes: 1</font></div></div>   <div class = titleboxRight><div class = game-text id = current_round>Points du tour: 15</div></div><div class = cardbox><div class = square><input type='image' id = 1 class = 'card_image' src='/static/experiments/columbia_card_task_hot/images/beforeChosen.png'></div><div class = square><input type='image' id = 2 class = 'card_image' src='/static/experiments/columbia_card_task_hot/images/beforeChosen.png'></div><div class = square><input type='image' id = 3 class = 'card_image' src='/static/experiments/columbia_card_task_hot/images/beforeChosen.png'></div><div class = square><input type='image' id = 4 class = 'card_image' src='/static/experiments/columbia_card_task_hot/images/beforeChosen.png'></div><div class = square><input type='image' id = 5 class = 'card_image' src='/static/experiments/columbia_card_task_hot/images/chosen.png'></div><div class = square><input type='image' id = 6 class = 'card_image' src='/static/experiments/columbia_card_task_hot/images/beforeChosen.png'></div></div>","89,71","498","test","3","2","6","1","15","-70","30","false","",""
"588","89","poldrack-single-stim","20","88057","0.0-8.2-0.10-0.10","sub-13-ses-03_1","","588","0","stim","<div class = cct-box><div class = titleBigBox>   <div class = titleboxLeft><div class = game-text id = game_round>Tour: 3</div></div>   <div class = titleboxLeft1><div class = game-text id = loss_amount>Pertes: -70</div></div>    <div class = titleboxMiddle1><div class = game-text id = gain_amount>Gains: 15</div></div>    <div class = titlebox><div class = game-text>Combien de cartes voulez-vous prendre? </div></div>     <div class = titleboxRight1><div class = game-text id = num_loss_cards><font size='+3'>Mauveaises Cartes: 1</font></div></div>   <div class = titleboxRight><div class = game-text id = current_round>Points du tour: 30</div></div><div class = cardbox><div class = square><input type='image' id = 1 class = 'card_image' src='/static/experiments/columbia_card_task_hot/images/beforeChosen.png'></div><div class = square><input type='image' id = 2 class = 'card_image' src='/static/experiments/columbia_card_task_hot/images/beforeChosen.png'></div><div class = square><input type='image' id = 3 class = 'card_image' src='/static/experiments/columbia_card_task_hot/images/chosen.png'></div><div class = square><input type='image' id = 4 class = 'card_image' src='/static/experiments/columbia_card_task_hot/images/beforeChosen.png'></div><div class = square><input type='image' id = 5 class = 'card_image' src='/static/experiments/columbia_card_task_hot/images/chosen.png'></div><div class = square><input type='image' id = 6 class = 'card_image' src='/static/experiments/columbia_card_task_hot/images/beforeChosen.png'></div></div>","89,71","588","test","3","3","6","1","15","-70","45","false","",""
"582","71","poldrack-single-stim","21","88646","0.0-8.2-0.11-0.11","sub-13-ses-03_1","","582","0","stim","<div class = cct-box><div class = titleBigBox>   <div class = titleboxLeft><div class = game-text id = game_round>Tour: 3</div></div>   <div class = titleboxLeft1><div class = game-text id = loss_amount>Pertes: -70</div></div>    <div class = titleboxMiddle1><div class = game-text id = gain_amount>Gains: 15</div></div>    <div class = titlebox><div class = game-text>Combien de cartes voulez-vous prendre? </div></div>     <div class = titleboxRight1><div class = game-text id = num_loss_cards><font size='+3'>Mauveaises Cartes: 1</font></div></div>   <div class = titleboxRight><div class = game-text id = current_round>Points du tour: 45</div></div><div class = cardbox><div class = square><input type='image' id = 1 class = 'card_image' src='/static/experiments/columbia_card_task_hot/images/beforeChosen.png'></div><div class = square><input type='image' id = 2 class = 'card_image' src='/static/experiments/columbia_card_task_hot/images/chosen.png'></div><div class = square><input type='image' id = 3 class = 'card_image' src='/static/experiments/columbia_card_task_hot/images/chosen.png'></div><div class = square><input type='image' id = 4 class = 'card_image' src='/static/experiments/columbia_card_task_hot/images/beforeChosen.png'></div><div class = square><input type='image' id = 5 class = 'card_image' src='/static/experiments/columbia_card_task_hot/images/chosen.png'></div><div class = square><input type='image' id = 6 class = 'card_image' src='/static/experiments/columbia_card_task_hot/images/beforeChosen.png'></div></div>","89,71","582","test","3","3","6","1","15","-70","45","false","",""
"-1","-1","poldrack-single-stim","22","91179","0.0-8.2-1.2","sub-13-ses-03_1","","2522","0","ITI","<div class = cct-box><div class = titleBigBox>   <div class = titleboxLeft><div class = game-text id = game_round>Tour: 3</div></div>   <div class = titleboxLeft1><div class = game-text id = loss_amount>Pertes: -70</div></div>    <div class = titleboxMiddle1><div class = game-text id = gain_amount>Gains: 15</div></div>    <div class = titlebox><div class = game-text>Combien de cartes voulez-vous prendre? </div></div>     <div class = titleboxRight1><div class = game-text id = num_loss_cards><font size='+3'>Mauveaises Cartes: 1</font></div></div>   <div class = titleboxRight><div class = game-text id = current_round>Points du tour: 45</div></div><div class = cardbox><div class = square><input type='image' id = 1 class = 'card_image' src='/static/experiments/columbia_card_task_hot/images/beforeChosen.png'></div><div class = square><input type='image' id = 2 class = 'card_image' src='/static/experiments/columbia_card_task_hot/images/chosen.png'></div><div class = square><input type='image' id = 3 class = 'card_image' src='/static/experiments/columbia_card_task_hot/images/chosen.png'></div><div class = square><input type='image' id = 4 class = 'card_image' src='/static/experiments/columbia_card_task_hot/images/beforeChosen.png'></div><div class = square><input type='image' id = 5 class = 'card_image' src='/static/experiments/columbia_card_task_hot/images/chosen.png'></div><div class = square><input type='image' id = 6 class = 'card_image' src='/static/experiments/columbia_card_task_hot/images/beforeChosen.png'></div></div>","none","2250","","","","","","","","","","",""
"1445","89","poldrack-single-stim","23","92630","0.0-8.3-0.12-0.12","sub-13-ses-03_1","","1445","0","stim","<div class = cct-box><div class = titleBigBox>   <div class = titleboxLeft><div class = game-text id = game_round>Tour: 4</div></div>   <div class = titleboxLeft1><div class = game-text id = loss_amount>Pertes: -75</div></div>    <div class = titleboxMiddle1><div class = game-text id = gain_amount>Gains: 17</div></div>    <div class = titlebox><div class = game-text>Combien de cartes voulez-vous prendre? </div></div>     <div class = titleboxRight1><div class = game-text id = num_loss_cards><font size='+3'>Mauveaises Cartes: 1</font></div></div>   <div class = titleboxRight><div class = game-text id = current_round>Points du tour: 0</div></div><div class = cardbox><div class = square><input type='image' id = 1 class = 'card_image' src='/static/experiments/columbia_card_task_hot/images/beforeChosen.png'></div><div class = square><input type='image' id = 2 class = 'card_image' src='/static/experiments/columbia_card_task_hot/images/beforeChosen.png'></div><div class = square><input type='image' id = 3 class = 'card_image' src='/static/experiments/columbia_card_task_hot/images/beforeChosen.png'></div><div class = square><input type='image' id = 4 class = 'card_image' src='/static/experiments/columbia_card_task_hot/images/beforeChosen.png'></div><div class = square><input type='image' id = 5 class = 'card_image' src='/static/experiments/columbia_card_task_hot/images/beforeChosen.png'></div><div class = square><input type='image' id = 6 class = 'card_image' src='/static/experiments/columbia_card_task_hot/images/beforeChosen.png'></div></div>","89,71","1445","test","4","1","6","1","17","-75","-75","true","",""
"-1","-1","poldrack-single-stim","24","95100","0.0-8.3-1.3","sub-13-ses-03_1","","2454","0","ITI","<div class = cct-box><div class = titleBigBox>   <div class = titleboxLeft><div class = game-text id = game_round>Tour: 4</div></div>   <div class = titleboxLeft1><div class = game-text id = loss_amount>Pertes: -75</div></div>    <div class = titleboxMiddle1><div class = game-text id = gain_amount>Gains: 17</div></div>    <div class = titlebox><div class = game-text>Combien de cartes voulez-vous prendre? </div></div>     <div class = titleboxRight1><div class = game-text id = num_loss_cards><font size='+3'>Mauveaises Cartes: 1</font></div></div>   <div class = titleboxRight><div class = game-text id = current_round>Points du tour: -75</div></div><div class = cardbox><div class = square><input type='image' id = 1 class = 'card_image' src='/static/experiments/columbia_card_task_hot/images/beforeChosen.png'></div><div class = square><input type='image' id = 2 class = 'card_image' src='/static/experiments/columbia_card_task_hot/images/beforeChosen.png'></div><div class = square><input type='image' id = 3 class = 'card_image' src='/static/experiments/columbia_card_task_hot/images/beforeChosen.png'></div><div class = square><input type='image' id = 4 class = 'card_image' src='/static/experiments/columbia_card_task_hot/images/loss.png'></div><div class = square><input type='image' id = 5 class = 'card_image' src='/static/experiments/columbia_card_task_hot/images/beforeChosen.png'></div><div class = square><input type='image' id = 6 class = 'card_image' src='/static/experiments/columbia_card_task_hot/images/beforeChosen.png'></div></div>","none","2250","","","","","","","","","","",""
"1626","89","poldrack-single-stim","25","96734","0.0-8.4-0.13-0.13","sub-13-ses-03_1","","1626","0","stim","<div class = cct-box><div class = titleBigBox>   <div class = titleboxLeft><div class = game-text id = game_round>Tour: 5</div></div>   <div class = titleboxLeft1><div class = game-text id = loss_amount>Pertes: -60</div></div>    <div class = titleboxMiddle1><div class = game-text id = gain_amount>Gains: 24</div></div>    <div class = titlebox><div class = game-text>Combien de cartes voulez-vous prendre? </div></div>     <div class = titleboxRight1><div class = game-text id = num_loss_cards><font size='+3'>Mauveaises Cartes: 2</font></div></div>   <div class = titleboxRight><div class = game-text id = current_round>Points du tour: 0</div></div><div class = cardbox><div class = square><input type='image' id = 1 class = 'card_image' src='/static/experiments/columbia_card_task_hot/images/beforeChosen.png'></div><div class = square><input type='image' id = 2 class = 'card_image' src='/static/experiments/columbia_card_task_hot/images/beforeChosen.png'></div><div class = square><input type='image' id = 3 class = 'card_image' src='/static/experiments/columbia_card_task_hot/images/beforeChosen.png'></div><div class = square><input type='image' id = 4 class = 'card_image' src='/static/experiments/columbia_card_task_hot/images/beforeChosen.png'></div><div class = square><input type='image' id = 5 class = 'card_image' src='/static/experiments/columbia_card_task_hot/images/beforeChosen.png'></div><div class = square><input type='image' id = 6 class = 'card_image' src='/static/experiments/columbia_card_task_hot/images/beforeChosen.png'></div><div class = square><input type='image' id = 7 class = 'card_image' src='/static/experiments/columbia_card_task_hot/images/beforeChosen.png'></div><div class = square><input type='image' id = 8 class = 'card_image' src='/static/experiments/columbia_card_task_hot/images/beforeChosen.png'></div></div>","89,71","1626","test","5","1","8","2","24","-60","24","false","",""
"554","89","poldrack-single-stim","26","97297","0.0-8.4-0.14-0.14","sub-13-ses-03_1","","554","0","stim","<div class = cct-box><div class = titleBigBox>   <div class = titleboxLeft><div class = game-text id = game_round>Tour: 5</div></div>   <div class = titleboxLeft1><div class = game-text id = loss_amount>Pertes: -60</div></div>    <div class = titleboxMiddle1><div class = game-text id = gain_amount>Gains: 24</div></div>    <div class = titlebox><div class = game-text>Combien de cartes voulez-vous prendre? </div></div>     <div class = titleboxRight1><div class = game-text id = num_loss_cards><font size='+3'>Mauveaises Cartes: 2</font></div></div>   <div class = titleboxRight><div class = game-text id = current_round>Points du tour: 24</div></div><div class = cardbox><div class = square><input type='image' id = 1 class = 'card_image' src='/static/experiments/columbia_card_task_hot/images/beforeChosen.png'></div><div class = square><input type='image' id = 2 class = 'card_image' src='/static/experiments/columbia_card_task_hot/images/beforeChosen.png'></div><div class = square><input type='image' id = 3 class = 'card_image' src='/static/experiments/columbia_card_task_hot/images/beforeChosen.png'></div><div class = square><input type='image' id = 4 class = 'card_image' src='/static/experiments/columbia_card_task_hot/images/chosen.png'></div><div class = square><input type='image' id = 5 class = 'card_image' src='/static/experiments/columbia_card_task_hot/images/beforeChosen.png'></div><div class = square><input type='image' id = 6 class = 'card_image' src='/static/experiments/columbia_card_task_hot/images/beforeChosen.png'></div><div class = square><input type='image' id = 7 class = 'card_image' src='/static/experiments/columbia_card_task_hot/images/beforeChosen.png'></div><div class = square><input type='image' id = 8 class = 'card_image' src='/static/experiments/columbia_card_task_hot/images/beforeChosen.png'></div></div>","89,71","554","test","5","2","8","2","24","-60","-36","true","",""
"-1","-1","poldrack-single-stim","27","99975","0.0-8.4-1.4","sub-13-ses-03_1","","2658","0","ITI","<div class = cct-box><div class = titleBigBox>   <div class = titleboxLeft><div class = game-text id = game_round>Tour: 5</div></div>   <div class = titleboxLeft1><div class = game-text id = loss_amount>Pertes: -60</div></div>    <div class = titleboxMiddle1><div class = game-text id = gain_amount>Gains: 24</div></div>    <div class = titlebox><div class = game-text>Combien de cartes voulez-vous prendre? </div></div>     <div class = titleboxRight1><div class = game-text id = num_loss_cards><font size='+3'>Mauveaises Cartes: 2</font></div></div>   <div class = titleboxRight><div class = game-text id = current_round>Points du tour: -36</div></div><div class = cardbox><div class = square><input type='image' id = 1 class = 'card_image' src='/static/experiments/columbia_card_task_hot/images/beforeChosen.png'></div><div class = square><input type='image' id = 2 class = 'card_image' src='/static/experiments/columbia_card_task_hot/images/beforeChosen.png'></div><div class = square><input type='image' id = 3 class = 'card_image' src='/static/experiments/columbia_card_task_hot/images/beforeChosen.png'></div><div class = square><input type='image' id = 4 class = 'card_image' src='/static/experiments/columbia_card_task_hot/images/chosen.png'></div><div class = square><input type='image' id = 5 class = 'card_image' src='/static/experiments/columbia_card_task_hot/images/beforeChosen.png'></div><div class = square><input type='image' id = 6 class = 'card_image' src='/static/experiments/columbia_card_task_hot/images/loss.png'></div><div class = square><input type='image' id = 7 class = 'card_image' src='/static/experiments/columbia_card_task_hot/images/beforeChosen.png'></div><div class = square><input type='image' id = 8 class = 'card_image' src='/static/experiments/columbia_card_task_hot/images/beforeChosen.png'></div></div>","none","2250","","","","","","","","","","",""
"937","89","poldrack-single-stim","28","100916","0.0-8.5-0.15-0.15","sub-13-ses-03_1","","937","0","stim","<div class = cct-box><div class = titleBigBox>   <div class = titleboxLeft><div class = game-text id = game_round>Tour: 6</div></div>   <div class = titleboxLeft1><div class = game-text id = loss_amount>Pertes: -75</div></div>    <div class = titleboxMiddle1><div class = game-text id = gain_amount>Gains: 29</div></div>    <div class = titlebox><div class = game-text>Combien de cartes voulez-vous prendre? </div></div>     <div class = titleboxRight1><div class = game-text id = num_loss_cards><font size='+3'>Mauveaises Cartes: 2</font></div></div>   <div class = titleboxRight><div class = game-text id = current_round>Points du tour: 0</div></div><div class = cardbox><div class = square><input type='image' id = 1 class = 'card_image' src='/static/experiments/columbia_card_task_hot/images/beforeChosen.png'></div><div class = square><input type='image' id = 2 class = 'card_image' src='/static/experiments/columbia_card_task_hot/images/beforeChosen.png'></div><div class = square><input type='image' id = 3 class = 'card_image' src='/static/experiments/columbia_card_task_hot/images/beforeChosen.png'></div><div class = square><input type='image' id = 4 class = 'card_image' src='/static/experiments/columbia_card_task_hot/images/beforeChosen.png'></div><div class = square><input type='image' id = 5 class = 'card_image' src='/static/experiments/columbia_card_task_hot/images/beforeChosen.png'></div><div class = square><input type='image' id = 6 class = 'card_image' src='/static/experiments/columbia_card_task_hot/images/beforeChosen.png'></div><div class = square><input type='image' id = 7 class = 'card_image' src='/static/experiments/columbia_card_task_hot/images/beforeChosen.png'></div><div class = square><input type='image' id = 8 class = 'card_image' src='/static/experiments/columbia_card_task_hot/images/beforeChosen.png'></div></div>","89,71","937","test","6","1","8","2","29","-75","29","false","",""
"787","89","poldrack-single-stim","29","101714","0.0-8.5-0.16-0.16","sub-13-ses-03_1","","787","0","stim","<div class = cct-box><div class = titleBigBox>   <div class = titleboxLeft><div class = game-text id = game_round>Tour: 6</div></div>   <div class = titleboxLeft1><div class = game-text id = loss_amount>Pertes: -75</div></div>    <div class = titleboxMiddle1><div class = game-text id = gain_amount>Gains: 29</div></div>    <div class = titlebox><div class = game-text>Combien de cartes voulez-vous prendre? </div></div>     <div class = titleboxRight1><div class = game-text id = num_loss_cards><font size='+3'>Mauveaises Cartes: 2</font></div></div>   <div class = titleboxRight><div class = game-text id = current_round>Points du tour: 29</div></div><div class = cardbox><div class = square><input type='image' id = 1 class = 'card_image' src='/static/experiments/columbia_card_task_hot/images/beforeChosen.png'></div><div class = square><input type='image' id = 2 class = 'card_image' src='/static/experiments/columbia_card_task_hot/images/beforeChosen.png'></div><div class = square><input type='image' id = 3 class = 'card_image' src='/static/experiments/columbia_card_task_hot/images/beforeChosen.png'></div><div class = square><input type='image' id = 4 class = 'card_image' src='/static/experiments/columbia_card_task_hot/images/beforeChosen.png'></div><div class = square><input type='image' id = 5 class = 'card_image' src='/static/experiments/columbia_card_task_hot/images/beforeChosen.png'></div><div class = square><input type='image' id = 6 class = 'card_image' src='/static/experiments/columbia_card_task_hot/images/chosen.png'></div><div class = square><input type='image' id = 7 class = 'card_image' src='/static/experiments/columbia_card_task_hot/images/beforeChosen.png'></div><div class = square><input type='image' id = 8 class = 'card_image' src='/static/experiments/columbia_card_task_hot/images/beforeChosen.png'></div></div>","89,71","787","test","6","2","8","2","29","-75","-46","true","",""
"-1","-1","poldrack-single-stim","30","104120","0.0-8.5-1.5","sub-13-ses-03_1","","2386","0","ITI","<div class = cct-box><div class = titleBigBox>   <div class = titleboxLeft><div class = game-text id = game_round>Tour: 6</div></div>   <div class = titleboxLeft1><div class = game-text id = loss_amount>Pertes: -75</div></div>    <div class = titleboxMiddle1><div class = game-text id = gain_amount>Gains: 29</div></div>    <div class = titlebox><div class = game-text>Combien de cartes voulez-vous prendre? </div></div>     <div class = titleboxRight1><div class = game-text id = num_loss_cards><font size='+3'>Mauveaises Cartes: 2</font></div></div>   <div class = titleboxRight><div class = game-text id = current_round>Points du tour: -46</div></div><div class = cardbox><div class = square><input type='image' id = 1 class = 'card_image' src='/static/experiments/columbia_card_task_hot/images/beforeChosen.png'></div><div class = square><input type='image' id = 2 class = 'card_image' src='/static/experiments/columbia_card_task_hot/images/beforeChosen.png'></div><div class = square><input type='image' id = 3 class = 'card_image' src='/static/experiments/columbia_card_task_hot/images/beforeChosen.png'></div><div class = square><input type='image' id = 4 class = 'card_image' src='/static/experiments/columbia_card_task_hot/images/loss.png'></div><div class = square><input type='image' id = 5 class = 'card_image' src='/static/experiments/columbia_card_task_hot/images/beforeChosen.png'></div><div class = square><input type='image' id = 6 class = 'card_image' src='/static/experiments/columbia_card_task_hot/images/chosen.png'></div><div class = square><input type='image' id = 7 class = 'card_image' src='/static/experiments/columbia_card_task_hot/images/beforeChosen.png'></div><div class = square><input type='image' id = 8 class = 'card_image' src='/static/experiments/columbia_card_task_hot/images/beforeChosen.png'></div></div>","none","2250","","","","","","","","","","",""
"599","89","poldrack-single-stim","31","104727","0.0-8.6-0.17-0.17","sub-13-ses-03_1","","599","0","stim","<div class = cct-box><div class = titleBigBox>   <div class = titleboxLeft><div class = game-text id = game_round>Tour: 7</div></div>   <div class = titleboxLeft1><div class = game-text id = loss_amount>Pertes: -65</div></div>    <div class = titleboxMiddle1><div class = game-text id = gain_amount>Gains: 17</div></div>    <div class = titlebox><div class = game-text>Combien de cartes voulez-vous prendre? </div></div>     <div class = titleboxRight1><div class = game-text id = num_loss_cards><font size='+3'>Mauveaises Cartes: 2</font></div></div>   <div class = titleboxRight><div class = game-text id = current_round>Points du tour: 0</div></div><div class = cardbox><div class = square><input type='image' id = 1 class = 'card_image' src='/static/experiments/columbia_card_task_hot/images/beforeChosen.png'></div><div class = square><input type='image' id = 2 class = 'card_image' src='/static/experiments/columbia_card_task_hot/images/beforeChosen.png'></div><div class = square><input type='image' id = 3 class = 'card_image' src='/static/experiments/columbia_card_task_hot/images/beforeChosen.png'></div><div class = square><input type='image' id = 4 class = 'card_image' src='/static/experiments/columbia_card_task_hot/images/beforeChosen.png'></div><div class = square><input type='image' id = 5 class = 'card_image' src='/static/experiments/columbia_card_task_hot/images/beforeChosen.png'></div><div class = square><input type='image' id = 6 class = 'card_image' src='/static/experiments/columbia_card_task_hot/images/beforeChosen.png'></div><div class = square><input type='image' id = 7 class = 'card_image' src='/static/experiments/columbia_card_task_hot/images/beforeChosen.png'></div><div class = square><input type='image' id = 8 class = 'card_image' src='/static/experiments/columbia_card_task_hot/images/beforeChosen.png'></div><div class = square><input type='image' id = 9 class = 'card_image' src='/static/experiments/columbia_card_task_hot/images/beforeChosen.png'></div></div>","89,71","599","test","7","1","9","2","17","-65","17","false","",""
"741","89","poldrack-single-stim","32","105474","0.0-8.6-0.18-0.18","sub-13-ses-03_1","","741","0","stim","<div class = cct-box><div class = titleBigBox>   <div class = titleboxLeft><div class = game-text id = game_round>Tour: 7</div></div>   <div class = titleboxLeft1><div class = game-text id = loss_amount>Pertes: -65</div></div>    <div class = titleboxMiddle1><div class = game-text id = gain_amount>Gains: 17</div></div>    <div class = titlebox><div class = game-text>Combien de cartes voulez-vous prendre? </div></div>     <div class = titleboxRight1><div class = game-text id = num_loss_cards><font size='+3'>Mauveaises Cartes: 2</font></div></div>   <div class = titleboxRight><div class = game-text id = current_round>Points du tour: 17</div></div><div class = cardbox><div class = square><input type='image' id = 1 class = 'card_image' src='/static/experiments/columbia_card_task_hot/images/beforeChosen.png'></div><div class = square><input type='image' id = 2 class = 'card_image' src='/static/experiments/columbia_card_task_hot/images/beforeChosen.png'></div><div class = square><input type='image' id = 3 class = 'card_image' src='/static/experiments/columbia_card_task_hot/images/beforeChosen.png'></div><div class = square><input type='image' id = 4 class = 'card_image' src='/static/experiments/columbia_card_task_hot/images/beforeChosen.png'></div><div class = square><input type='image' id = 5 class = 'card_image' src='/static/experiments/columbia_card_task_hot/images/beforeChosen.png'></div><div class = square><input type='image' id = 6 class = 'card_image' src='/static/experiments/columbia_card_task_hot/images/beforeChosen.png'></div><div class = square><input type='image' id = 7 class = 'card_image' src='/static/experiments/columbia_card_task_hot/images/beforeChosen.png'></div><div class = square><input type='image' id = 8 class = 'card_image' src='/static/experiments/columbia_card_task_hot/images/chosen.png'></div><div class = square><input type='image' id = 9 class = 'card_image' src='/static/experiments/columbia_card_task_hot/images/beforeChosen.png'></div></div>","89,71","741","test","7","2","9","2","17","-65","34","false","",""
"1369","89","poldrack-single-stim","33","106850","0.0-8.6-0.19-0.19","sub-13-ses-03_1","","1369","0","stim","<div class = cct-box><div class = titleBigBox>   <div class = titleboxLeft><div class = game-text id = game_round>Tour: 7</div></div>   <div class = titleboxLeft1><div class = game-text id = loss_amount>Pertes: -65</div></div>    <div class = titleboxMiddle1><div class = game-text id = gain_amount>Gains: 17</div></div>    <div class = titlebox><div class = game-text>Combien de cartes voulez-vous prendre? </div></div>     <div class = titleboxRight1><div class = game-text id = num_loss_cards><font size='+3'>Mauveaises Cartes: 2</font></div></div>   <div class = titleboxRight><div class = game-text id = current_round>Points du tour: 34</div></div><div class = cardbox><div class = square><input type='image' id = 1 class = 'card_image' src='/static/experiments/columbia_card_task_hot/images/beforeChosen.png'></div><div class = square><input type='image' id = 2 class = 'card_image' src='/static/experiments/columbia_card_task_hot/images/beforeChosen.png'></div><div class = square><input type='image' id = 3 class = 'card_image' src='/static/experiments/columbia_card_task_hot/images/beforeChosen.png'></div><div class = square><input type='image' id = 4 class = 'card_image' src='/static/experiments/columbia_card_task_hot/images/beforeChosen.png'></div><div class = square><input type='image' id = 5 class = 'card_image' src='/static/experiments/columbia_card_task_hot/images/beforeChosen.png'></div><div class = square><input type='image' id = 6 class = 'card_image' src='/static/experiments/columbia_card_task_hot/images/chosen.png'></div><div class = square><input type='image' id = 7 class = 'card_image' src='/static/experiments/columbia_card_task_hot/images/beforeChosen.png'></div><div class = square><input type='image' id = 8 class = 'card_image' src='/static/experiments/columbia_card_task_hot/images/chosen.png'></div><div class = square><input type='image' id = 9 class = 'card_image' src='/static/experiments/columbia_card_task_hot/images/beforeChosen.png'></div></div>","89,71","1369","test","7","3","9","2","17","-65","51","false","",""
"1135","89","poldrack-single-stim","34","108023","0.0-8.6-0.20-0.20","sub-13-ses-03_1","","1135","0","stim","<div class = cct-box><div class = titleBigBox>   <div class = titleboxLeft><div class = game-text id = game_round>Tour: 7</div></div>   <div class = titleboxLeft1><div class = game-text id = loss_amount>Pertes: -65</div></div>    <div class = titleboxMiddle1><div class = game-text id = gain_amount>Gains: 17</div></div>    <div class = titlebox><div class = game-text>Combien de cartes voulez-vous prendre? </div></div>     <div class = titleboxRight1><div class = game-text id = num_loss_cards><font size='+3'>Mauveaises Cartes: 2</font></div></div>   <div class = titleboxRight><div class = game-text id = current_round>Points du tour: 51</div></div><div class = cardbox><div class = square><input type='image' id = 1 class = 'card_image' src='/static/experiments/columbia_card_task_hot/images/beforeChosen.png'></div><div class = square><input type='image' id = 2 class = 'card_image' src='/static/experiments/columbia_card_task_hot/images/beforeChosen.png'></div><div class = square><input type='image' id = 3 class = 'card_image' src='/static/experiments/columbia_card_task_hot/images/beforeChosen.png'></div><div class = square><input type='image' id = 4 class = 'card_image' src='/static/experiments/columbia_card_task_hot/images/beforeChosen.png'></div><div class = square><input type='image' id = 5 class = 'card_image' src='/static/experiments/columbia_card_task_hot/images/beforeChosen.png'></div><div class = square><input type='image' id = 6 class = 'card_image' src='/static/experiments/columbia_card_task_hot/images/chosen.png'></div><div class = square><input type='image' id = 7 class = 'card_image' src='/static/experiments/columbia_card_task_hot/images/chosen.png'></div><div class = square><input type='image' id = 8 class = 'card_image' src='/static/experiments/columbia_card_task_hot/images/chosen.png'></div><div class = square><input type='image' id = 9 class = 'card_image' src='/static/experiments/columbia_card_task_hot/images/beforeChosen.png'></div></div>","89,71","1135","test","7","4","9","2","17","-65","68","false","",""
"1559","89","poldrack-single-stim","35","109588","0.0-8.6-0.21-0.21","sub-13-ses-03_1","","1559","0","stim","<div class = cct-box><div class = titleBigBox>   <div class = titleboxLeft><div class = game-text id = game_round>Tour: 7</div></div>   <div class = titleboxLeft1><div class = game-text id = loss_amount>Pertes: -65</div></div>    <div class = titleboxMiddle1><div class = game-text id = gain_amount>Gains: 17</div></div>    <div class = titlebox><div class = game-text>Combien de cartes voulez-vous prendre? </div></div>     <div class = titleboxRight1><div class = game-text id = num_loss_cards><font size='+3'>Mauveaises Cartes: 2</font></div></div>   <div class = titleboxRight><div class = game-text id = current_round>Points du tour: 68</div></div><div class = cardbox><div class = square><input type='image' id = 1 class = 'card_image' src='/static/experiments/columbia_card_task_hot/images/beforeChosen.png'></div><div class = square><input type='image' id = 2 class = 'card_image' src='/static/experiments/columbia_card_task_hot/images/beforeChosen.png'></div><div class = square><input type='image' id = 3 class = 'card_image' src='/static/experiments/columbia_card_task_hot/images/chosen.png'></div><div class = square><input type='image' id = 4 class = 'card_image' src='/static/experiments/columbia_card_task_hot/images/beforeChosen.png'></div><div class = square><input type='image' id = 5 class = 'card_image' src='/static/experiments/columbia_card_task_hot/images/beforeChosen.png'></div><div class = square><input type='image' id = 6 class = 'card_image' src='/static/experiments/columbia_card_task_hot/images/chosen.png'></div><div class = square><input type='image' id = 7 class = 'card_image' src='/static/experiments/columbia_card_task_hot/images/chosen.png'></div><div class = square><input type='image' id = 8 class = 'card_image' src='/static/experiments/columbia_card_task_hot/images/chosen.png'></div><div class = square><input type='image' id = 9 class = 'card_image' src='/static/experiments/columbia_card_task_hot/images/beforeChosen.png'></div></div>","89,71","1559","test","7","5","9","2","17","-65","3","true","",""
"-1","-1","poldrack-single-stim","36","112129","0.0-8.6-1.6","sub-13-ses-03_1","","2522","0","ITI","<div class = cct-box><div class = titleBigBox>   <div class = titleboxLeft><div class = game-text id = game_round>Tour: 7</div></div>   <div class = titleboxLeft1><div class = game-text id = loss_amount>Pertes: -65</div></div>    <div class = titleboxMiddle1><div class = game-text id = gain_amount>Gains: 17</div></div>    <div class = titlebox><div class = game-text>Combien de cartes voulez-vous prendre? </div></div>     <div class = titleboxRight1><div class = game-text id = num_loss_cards><font size='+3'>Mauveaises Cartes: 2</font></div></div>   <div class = titleboxRight><div class = game-text id = current_round>Points du tour: 3</div></div><div class = cardbox><div class = square><input type='image' id = 1 class = 'card_image' src='/static/experiments/columbia_card_task_hot/images/beforeChosen.png'></div><div class = square><input type='image' id = 2 class = 'card_image' src='/static/experiments/columbia_card_task_hot/images/beforeChosen.png'></div><div class = square><input type='image' id = 3 class = 'card_image' src='/static/experiments/columbia_card_task_hot/images/chosen.png'></div><div class = square><input type='image' id = 4 class = 'card_image' src='/static/experiments/columbia_card_task_hot/images/loss.png'></div><div class = square><input type='image' id = 5 class = 'card_image' src='/static/experiments/columbia_card_task_hot/images/beforeChosen.png'></div><div class = square><input type='image' id = 6 class = 'card_image' src='/static/experiments/columbia_card_task_hot/images/chosen.png'></div><div class = square><input type='image' id = 7 class = 'card_image' src='/static/experiments/columbia_card_task_hot/images/chosen.png'></div><div class = square><input type='image' id = 8 class = 'card_image' src='/static/experiments/columbia_card_task_hot/images/chosen.png'></div><div class = square><input type='image' id = 9 class = 'card_image' src='/static/experiments/columbia_card_task_hot/images/beforeChosen.png'></div></div>","none","2250","","","","","","","","","","",""
"1252","89","poldrack-single-stim","37","113390","0.0-8.7-0.22-0.22","sub-13-ses-03_1","","1252","0","stim","<div class = cct-box><div class = titleBigBox>   <div class = titleboxLeft><div class = game-text id = game_round>Tour: 8</div></div>   <div class = titleboxLeft1><div class = game-text id = loss_amount>Pertes: -95</div></div>    <div class = titleboxMiddle1><div class = game-text id = gain_amount>Gains: 14</div></div>    <div class = titlebox><div class = game-text>Combien de cartes voulez-vous prendre? </div></div>     <div class = titleboxRight1><div class = game-text id = num_loss_cards><font size='+3'>Mauveaises Cartes: 1</font></div></div>   <div class = titleboxRight><div class = game-text id = current_round>Points du tour: 0</div></div><div class = cardbox><div class = square><input type='image' id = 1 class = 'card_image' src='/static/experiments/columbia_card_task_hot/images/beforeChosen.png'></div><div class = square><input type='image' id = 2 class = 'card_image' src='/static/experiments/columbia_card_task_hot/images/beforeChosen.png'></div><div class = square><input type='image' id = 3 class = 'card_image' src='/static/experiments/columbia_card_task_hot/images/beforeChosen.png'></div><div class = square><input type='image' id = 4 class = 'card_image' src='/static/experiments/columbia_card_task_hot/images/beforeChosen.png'></div><div class = square><input type='image' id = 5 class = 'card_image' src='/static/experiments/columbia_card_task_hot/images/beforeChosen.png'></div><div class = square><input type='image' id = 6 class = 'card_image' src='/static/experiments/columbia_card_task_hot/images/beforeChosen.png'></div><div class = square><input type='image' id = 7 class = 'card_image' src='/static/experiments/columbia_card_task_hot/images/beforeChosen.png'></div><div class = square><input type='image' id = 8 class = 'card_image' src='/static/experiments/columbia_card_task_hot/images/beforeChosen.png'></div><div class = square><input type='image' id = 9 class = 'card_image' src='/static/experiments/columbia_card_task_hot/images/beforeChosen.png'></div><div class = square><input type='image' id = 10 class = 'card_image' src='/static/experiments/columbia_card_task_hot/images/beforeChosen.png'></div></div>","89,71","1252","test","8","1","10","1","14","-95","14","false","",""
"437","89","poldrack-single-stim","38","113834","0.0-8.7-0.23-0.23","sub-13-ses-03_1","","437","0","stim","<div class = cct-box><div class = titleBigBox>   <div class = titleboxLeft><div class = game-text id = game_round>Tour: 8</div></div>   <div class = titleboxLeft1><div class = game-text id = loss_amount>Pertes: -95</div></div>    <div class = titleboxMiddle1><div class = game-text id = gain_amount>Gains: 14</div></div>    <div class = titlebox><div class = game-text>Combien de cartes voulez-vous prendre? </div></div>     <div class = titleboxRight1><div class = game-text id = num_loss_cards><font size='+3'>Mauveaises Cartes: 1</font></div></div>   <div class = titleboxRight><div class = game-text id = current_round>Points du tour: 14</div></div><div class = cardbox><div class = square><input type='image' id = 1 class = 'card_image' src='/static/experiments/columbia_card_task_hot/images/beforeChosen.png'></div><div class = square><input type='image' id = 2 class = 'card_image' src='/static/experiments/columbia_card_task_hot/images/beforeChosen.png'></div><div class = square><input type='image' id = 3 class = 'card_image' src='/static/experiments/columbia_card_task_hot/images/beforeChosen.png'></div><div class = square><input type='image' id = 4 class = 'card_image' src='/static/experiments/columbia_card_task_hot/images/beforeChosen.png'></div><div class = square><input type='image' id = 5 class = 'card_image' src='/static/experiments/columbia_card_task_hot/images/beforeChosen.png'></div><div class = square><input type='image' id = 6 class = 'card_image' src='/static/experiments/columbia_card_task_hot/images/beforeChosen.png'></div><div class = square><input type='image' id = 7 class = 'card_image' src='/static/experiments/columbia_card_task_hot/images/beforeChosen.png'></div><div class = square><input type='image' id = 8 class = 'card_image' src='/static/experiments/columbia_card_task_hot/images/chosen.png'></div><div class = square><input type='image' id = 9 class = 'card_image' src='/static/experiments/columbia_card_task_hot/images/beforeChosen.png'></div><div class = square><input type='image' id = 10 class = 'card_image' src='/static/experiments/columbia_card_task_hot/images/beforeChosen.png'></div></div>","89,71","437","test","8","2","10","1","14","-95","-81","true","",""
"-1","-1","poldrack-single-stim","39","116437","0.0-8.7-1.7","sub-13-ses-03_1","","2590","0","ITI","<div class = cct-box><div class = titleBigBox>   <div class = titleboxLeft><div class = game-text id = game_round>Tour: 8</div></div>   <div class = titleboxLeft1><div class = game-text id = loss_amount>Pertes: -95</div></div>    <div class = titleboxMiddle1><div class = game-text id = gain_amount>Gains: 14</div></div>    <div class = titlebox><div class = game-text>Combien de cartes voulez-vous prendre? </div></div>     <div class = titleboxRight1><div class = game-text id = num_loss_cards><font size='+3'>Mauveaises Cartes: 1</font></div></div>   <div class = titleboxRight><div class = game-text id = current_round>Points du tour: -81</div></div><div class = cardbox><div class = square><input type='image' id = 1 class = 'card_image' src='/static/experiments/columbia_card_task_hot/images/beforeChosen.png'></div><div class = square><input type='image' id = 2 class = 'card_image' src='/static/experiments/columbia_card_task_hot/images/beforeChosen.png'></div><div class = square><input type='image' id = 3 class = 'card_image' src='/static/experiments/columbia_card_task_hot/images/loss.png'></div><div class = square><input type='image' id = 4 class = 'card_image' src='/static/experiments/columbia_card_task_hot/images/beforeChosen.png'></div><div class = square><input type='image' id = 5 class = 'card_image' src='/static/experiments/columbia_card_task_hot/images/beforeChosen.png'></div><div class = square><input type='image' id = 6 class = 'card_image' src='/static/experiments/columbia_card_task_hot/images/beforeChosen.png'></div><div class = square><input type='image' id = 7 class = 'card_image' src='/static/experiments/columbia_card_task_hot/images/beforeChosen.png'></div><div class = square><input type='image' id = 8 class = 'card_image' src='/static/experiments/columbia_card_task_hot/images/chosen.png'></div><div class = square><input type='image' id = 9 class = 'card_image' src='/static/experiments/columbia_card_task_hot/images/beforeChosen.png'></div><div class = square><input type='image' id = 10 class = 'card_image' src='/static/experiments/columbia_card_task_hot/images/beforeChosen.png'></div></div>","none","2250","","","","","","","","","","",""
"732","89","poldrack-single-stim","40","117174","0.0-8.8-0.24-0.24","sub-13-ses-03_1","","732","0","stim","<div class = cct-box><div class = titleBigBox>   <div class = titleboxLeft><div class = game-text id = game_round>Tour: 9</div></div>   <div class = titleboxLeft1><div class = game-text id = loss_amount>Pertes: -65</div></div>    <div class = titleboxMiddle1><div class = game-text id = gain_amount>Gains: 15</div></div>    <div class = titlebox><div class = game-text>Combien de cartes voulez-vous prendre? </div></div>     <div class = titleboxRight1><div class = game-text id = num_loss_cards><font size='+3'>Mauveaises Cartes: 2</font></div></div>   <div class = titleboxRight><div class = game-text id = current_round>Points du tour: 0</div></div><div class = cardbox><div class = square><input type='image' id = 1 class = 'card_image' src='/static/experiments/columbia_card_task_hot/images/beforeChosen.png'></div><div class = square><input type='image' id = 2 class = 'card_image' src='/static/experiments/columbia_card_task_hot/images/beforeChosen.png'></div><div class = square><input type='image' id = 3 class = 'card_image' src='/static/experiments/columbia_card_task_hot/images/beforeChosen.png'></div><div class = square><input type='image' id = 4 class = 'card_image' src='/static/experiments/columbia_card_task_hot/images/beforeChosen.png'></div><div class = square><input type='image' id = 5 class = 'card_image' src='/static/experiments/columbia_card_task_hot/images/beforeChosen.png'></div><div class = square><input type='image' id = 6 class = 'card_image' src='/static/experiments/columbia_card_task_hot/images/beforeChosen.png'></div><div class = square><input type='image' id = 7 class = 'card_image' src='/static/experiments/columbia_card_task_hot/images/beforeChosen.png'></div><div class = square><input type='image' id = 8 class = 'card_image' src='/static/experiments/columbia_card_task_hot/images/beforeChosen.png'></div><div class = square><input type='image' id = 9 class = 'card_image' src='/static/experiments/columbia_card_task_hot/images/beforeChosen.png'></div><div class = square><input type='image' id = 10 class = 'card_image' src='/static/experiments/columbia_card_task_hot/images/beforeChosen.png'></div></div>","89,71","732","test","9","1","10","2","15","-65","15","false","",""
"749","89","poldrack-single-stim","41","117931","0.0-8.8-0.25-0.25","sub-13-ses-03_1","","749","0","stim","<div class = cct-box><div class = titleBigBox>   <div class = titleboxLeft><div class = game-text id = game_round>Tour: 9</div></div>   <div class = titleboxLeft1><div class = game-text id = loss_amount>Pertes: -65</div></div>    <div class = titleboxMiddle1><div class = game-text id = gain_amount>Gains: 15</div></div>    <div class = titlebox><div class = game-text>Combien de cartes voulez-vous prendre? </div></div>     <div class = titleboxRight1><div class = game-text id = num_loss_cards><font size='+3'>Mauveaises Cartes: 2</font></div></div>   <div class = titleboxRight><div class = game-text id = current_round>Points du tour: 15</div></div><div class = cardbox><div class = square><input type='image' id = 1 class = 'card_image' src='/static/experiments/columbia_card_task_hot/images/beforeChosen.png'></div><div class = square><input type='image' id = 2 class = 'card_image' src='/static/experiments/columbia_card_task_hot/images/beforeChosen.png'></div><div class = square><input type='image' id = 3 class = 'card_image' src='/static/experiments/columbia_card_task_hot/images/beforeChosen.png'></div><div class = square><input type='image' id = 4 class = 'card_image' src='/static/experiments/columbia_card_task_hot/images/beforeChosen.png'></div><div class = square><input type='image' id = 5 class = 'card_image' src='/static/experiments/columbia_card_task_hot/images/beforeChosen.png'></div><div class = square><input type='image' id = 6 class = 'card_image' src='/static/experiments/columbia_card_task_hot/images/beforeChosen.png'></div><div class = square><input type='image' id = 7 class = 'card_image' src='/static/experiments/columbia_card_task_hot/images/chosen.png'></div><div class = square><input type='image' id = 8 class = 'card_image' src='/static/experiments/columbia_card_task_hot/images/beforeChosen.png'></div><div class = square><input type='image' id = 9 class = 'card_image' src='/static/experiments/columbia_card_task_hot/images/beforeChosen.png'></div><div class = square><input type='image' id = 10 class = 'card_image' src='/static/experiments/columbia_card_task_hot/images/beforeChosen.png'></div></div>","89,71","749","test","9","2","10","2","15","-65","-50","true","",""
"-1","-1","poldrack-single-stim","42","120338","0.0-8.8-1.8","sub-13-ses-03_1","","2386","0","ITI","<div class = cct-box><div class = titleBigBox>   <div class = titleboxLeft><div class = game-text id = game_round>Tour: 9</div></div>   <div class = titleboxLeft1><div class = game-text id = loss_amount>Pertes: -65</div></div>    <div class = titleboxMiddle1><div class = game-text id = gain_amount>Gains: 15</div></div>    <div class = titlebox><div class = game-text>Combien de cartes voulez-vous prendre? </div></div>     <div class = titleboxRight1><div class = game-text id = num_loss_cards><font size='+3'>Mauveaises Cartes: 2</font></div></div>   <div class = titleboxRight><div class = game-text id = current_round>Points du tour: -50</div></div><div class = cardbox><div class = square><input type='image' id = 1 class = 'card_image' src='/static/experiments/columbia_card_task_hot/images/beforeChosen.png'></div><div class = square><input type='image' id = 2 class = 'card_image' src='/static/experiments/columbia_card_task_hot/images/beforeChosen.png'></div><div class = square><input type='image' id = 3 class = 'card_image' src='/static/experiments/columbia_card_task_hot/images/beforeChosen.png'></div><div class = square><input type='image' id = 4 class = 'card_image' src='/static/experiments/columbia_card_task_hot/images/beforeChosen.png'></div><div class = square><input type='image' id = 5 class = 'card_image' src='/static/experiments/columbia_card_task_hot/images/beforeChosen.png'></div><div class = square><input type='image' id = 6 class = 'card_image' src='/static/experiments/columbia_card_task_hot/images/beforeChosen.png'></div><div class = square><input type='image' id = 7 class = 'card_image' src='/static/experiments/columbia_card_task_hot/images/chosen.png'></div><div class = square><input type='image' id = 8 class = 'card_image' src='/static/experiments/columbia_card_task_hot/images/beforeChosen.png'></div><div class = square><input type='image' id = 9 class = 'card_image' src='/static/experiments/columbia_card_task_hot/images/loss.png'></div><div class = square><input type='image' id = 10 class = 'card_image' src='/static/experiments/columbia_card_task_hot/images/beforeChosen.png'></div></div>","none","2250","","","","","","","","","","",""
"932","89","poldrack-single-stim","43","121273","0.0-8.9-0.26-0.26","sub-13-ses-03_1","","932","0","stim","<div class = cct-box><div class = titleBigBox>   <div class = titleboxLeft><div class = game-text id = game_round>Tour: 10</div></div>   <div class = titleboxLeft1><div class = game-text id = loss_amount>Pertes: -65</div></div>    <div class = titleboxMiddle1><div class = game-text id = gain_amount>Gains: 17</div></div>    <div class = titlebox><div class = game-text>Combien de cartes voulez-vous prendre? </div></div>     <div class = titleboxRight1><div class = game-text id = num_loss_cards><font size='+3'>Mauveaises Cartes: 2</font></div></div>   <div class = titleboxRight><div class = game-text id = current_round>Points du tour: 0</div></div><div class = cardbox><div class = square><input type='image' id = 1 class = 'card_image' src='/static/experiments/columbia_card_task_hot/images/beforeChosen.png'></div><div class = square><input type='image' id = 2 class = 'card_image' src='/static/experiments/columbia_card_task_hot/images/beforeChosen.png'></div><div class = square><input type='image' id = 3 class = 'card_image' src='/static/experiments/columbia_card_task_hot/images/beforeChosen.png'></div><div class = square><input type='image' id = 4 class = 'card_image' src='/static/experiments/columbia_card_task_hot/images/beforeChosen.png'></div><div class = square><input type='image' id = 5 class = 'card_image' src='/static/experiments/columbia_card_task_hot/images/beforeChosen.png'></div><div class = square><input type='image' id = 6 class = 'card_image' src='/static/experiments/columbia_card_task_hot/images/beforeChosen.png'></div><div class = square><input type='image' id = 7 class = 'card_image' src='/static/experiments/columbia_card_task_hot/images/beforeChosen.png'></div><div class = square><input type='image' id = 8 class = 'card_image' src='/static/experiments/columbia_card_task_hot/images/beforeChosen.png'></div><div class = square><input type='image' id = 9 class = 'card_image' src='/static/experiments/columbia_card_task_hot/images/beforeChosen.png'></div><div class = square><input type='image' id = 10 class = 'card_image' src='/static/experiments/columbia_card_task_hot/images/beforeChosen.png'></div></div>","89,71","932","test","10","1","10","2","17","-65","17","false","",""
"631","89","poldrack-single-stim","44","121907","0.0-8.9-0.27-0.27","sub-13-ses-03_1","","631","0","stim","<div class = cct-box><div class = titleBigBox>   <div class = titleboxLeft><div class = game-text id = game_round>Tour: 10</div></div>   <div class = titleboxLeft1><div class = game-text id = loss_amount>Pertes: -65</div></div>    <div class = titleboxMiddle1><div class = game-text id = gain_amount>Gains: 17</div></div>    <div class = titlebox><div class = game-text>Combien de cartes voulez-vous prendre? </div></div>     <div class = titleboxRight1><div class = game-text id = num_loss_cards><font size='+3'>Mauveaises Cartes: 2</font></div></div>   <div class = titleboxRight><div class = game-text id = current_round>Points du tour: 17</div></div><div class = cardbox><div class = square><input type='image' id = 1 class = 'card_image' src='/static/experiments/columbia_card_task_hot/images/beforeChosen.png'></div><div class = square><input type='image' id = 2 class = 'card_image' src='/static/experiments/columbia_card_task_hot/images/beforeChosen.png'></div><div class = square><input type='image' id = 3 class = 'card_image' src='/static/experiments/columbia_card_task_hot/images/beforeChosen.png'></div><div class = square><input type='image' id = 4 class = 'card_image' src='/static/experiments/columbia_card_task_hot/images/beforeChosen.png'></div><div class = square><input type='image' id = 5 class = 'card_image' src='/static/experiments/columbia_card_task_hot/images/beforeChosen.png'></div><div class = square><input type='image' id = 6 class = 'card_image' src='/static/experiments/columbia_card_task_hot/images/beforeChosen.png'></div><div class = square><input type='image' id = 7 class = 'card_image' src='/static/experiments/columbia_card_task_hot/images/beforeChosen.png'></div><div class = square><input type='image' id = 8 class = 'card_image' src='/static/experiments/columbia_card_task_hot/images/beforeChosen.png'></div><div class = square><input type='image' id = 9 class = 'card_image' src='/static/experiments/columbia_card_task_hot/images/chosen.png'></div><div class = square><input type='image' id = 10 class = 'card_image' src='/static/experiments/columbia_card_task_hot/images/beforeChosen.png'></div></div>","89,71","631","test","10","2","10","2","17","-65","34","false","",""
"793","89","poldrack-single-stim","45","122708","0.0-8.9-0.28-0.28","sub-13-ses-03_1","","793","0","stim","<div class = cct-box><div class = titleBigBox>   <div class = titleboxLeft><div class = game-text id = game_round>Tour: 10</div></div>   <div class = titleboxLeft1><div class = game-text id = loss_amount>Pertes: -65</div></div>    <div class = titleboxMiddle1><div class = game-text id = gain_amount>Gains: 17</div></div>    <div class = titlebox><div class = game-text>Combien de cartes voulez-vous prendre? </div></div>     <div class = titleboxRight1><div class = game-text id = num_loss_cards><font size='+3'>Mauveaises Cartes: 2</font></div></div>   <div class = titleboxRight><div class = game-text id = current_round>Points du tour: 34</div></div><div class = cardbox><div class = square><input type='image' id = 1 class = 'card_image' src='/static/experiments/columbia_card_task_hot/images/beforeChosen.png'></div><div class = square><input type='image' id = 2 class = 'card_image' src='/static/experiments/columbia_card_task_hot/images/beforeChosen.png'></div><div class = square><input type='image' id = 3 class = 'card_image' src='/static/experiments/columbia_card_task_hot/images/beforeChosen.png'></div><div class = square><input type='image' id = 4 class = 'card_image' src='/static/experiments/columbia_card_task_hot/images/chosen.png'></div><div class = square><input type='image' id = 5 class = 'card_image' src='/static/experiments/columbia_card_task_hot/images/beforeChosen.png'></div><div class = square><input type='image' id = 6 class = 'card_image' src='/static/experiments/columbia_card_task_hot/images/beforeChosen.png'></div><div class = square><input type='image' id = 7 class = 'card_image' src='/static/experiments/columbia_card_task_hot/images/beforeChosen.png'></div><div class = square><input type='image' id = 8 class = 'card_image' src='/static/experiments/columbia_card_task_hot/images/beforeChosen.png'></div><div class = square><input type='image' id = 9 class = 'card_image' src='/static/experiments/columbia_card_task_hot/images/chosen.png'></div><div class = square><input type='image' id = 10 class = 'card_image' src='/static/experiments/columbia_card_task_hot/images/beforeChosen.png'></div></div>","89,71","793","test","10","3","10","2","17","-65","-31","true","",""
"-1","-1","poldrack-single-stim","46","125319","0.0-8.9-1.9","sub-13-ses-03_1","","2590","0","ITI","<div class = cct-box><div class = titleBigBox>   <div class = titleboxLeft><div class = game-text id = game_round>Tour: 10</div></div>   <div class = titleboxLeft1><div class = game-text id = loss_amount>Pertes: -65</div></div>    <div class = titleboxMiddle1><div class = game-text id = gain_amount>Gains: 17</div></div>    <div class = titlebox><div class = game-text>Combien de cartes voulez-vous prendre? </div></div>     <div class = titleboxRight1><div class = game-text id = num_loss_cards><font size='+3'>Mauveaises Cartes: 2</font></div></div>   <div class = titleboxRight><div class = game-text id = current_round>Points du tour: -31</div></div><div class = cardbox><div class = square><input type='image' id = 1 class = 'card_image' src='/static/experiments/columbia_card_task_hot/images/beforeChosen.png'></div><div class = square><input type='image' id = 2 class = 'card_image' src='/static/experiments/columbia_card_task_hot/images/beforeChosen.png'></div><div class = square><input type='image' id = 3 class = 'card_image' src='/static/experiments/columbia_card_task_hot/images/beforeChosen.png'></div><div class = square><input type='image' id = 4 class = 'card_image' src='/static/experiments/columbia_card_task_hot/images/chosen.png'></div><div class = square><input type='image' id = 5 class = 'card_image' src='/static/experiments/columbia_card_task_hot/images/loss.png'></div><div class = square><input type='image' id = 6 class = 'card_image' src='/static/experiments/columbia_card_task_hot/images/beforeChosen.png'></div><div class = square><input type='image' id = 7 class = 'card_image' src='/static/experiments/columbia_card_task_hot/images/beforeChosen.png'></div><div class = square><input type='image' id = 8 class = 'card_image' src='/static/experiments/columbia_card_task_hot/images/beforeChosen.png'></div><div class = square><input type='image' id = 9 class = 'card_image' src='/static/experiments/columbia_card_task_hot/images/chosen.png'></div><div class = square><input type='image' id = 10 class = 'card_image' src='/static/experiments/columbia_card_task_hot/images/beforeChosen.png'></div></div>","none","2250","","","","","","","","","","",""
"466","89","poldrack-single-stim","47","125794","0.0-8.10-0.29-0.29","sub-13-ses-03_1","","466","0","stim","<div class = cct-box><div class = titleBigBox>   <div class = titleboxLeft><div class = game-text id = game_round>Tour: 11</div></div>   <div class = titleboxLeft1><div class = game-text id = loss_amount>Pertes: -70</div></div>    <div class = titleboxMiddle1><div class = game-text id = gain_amount>Gains: 13</div></div>    <div class = titlebox><div class = game-text>Combien de cartes voulez-vous prendre? </div></div>     <div class = titleboxRight1><div class = game-text id = num_loss_cards><font size='+3'>Mauveaises Cartes: 2</font></div></div>   <div class = titleboxRight><div class = game-text id = current_round>Points du tour: 0</div></div><div class = cardbox><div class = square><input type='image' id = 1 class = 'card_image' src='/static/experiments/columbia_card_task_hot/images/beforeChosen.png'></div><div class = square><input type='image' id = 2 class = 'card_image' src='/static/experiments/columbia_card_task_hot/images/beforeChosen.png'></div><div class = square><input type='image' id = 3 class = 'card_image' src='/static/experiments/columbia_card_task_hot/images/beforeChosen.png'></div><div class = square><input type='image' id = 4 class = 'card_image' src='/static/experiments/columbia_card_task_hot/images/beforeChosen.png'></div><div class = square><input type='image' id = 5 class = 'card_image' src='/static/experiments/columbia_card_task_hot/images/beforeChosen.png'></div><div class = square><input type='image' id = 6 class = 'card_image' src='/static/experiments/columbia_card_task_hot/images/beforeChosen.png'></div><div class = square><input type='image' id = 7 class = 'card_image' src='/static/experiments/columbia_card_task_hot/images/beforeChosen.png'></div><div class = square><input type='image' id = 8 class = 'card_image' src='/static/experiments/columbia_card_task_hot/images/beforeChosen.png'></div><div class = square><input type='image' id = 9 class = 'card_image' src='/static/experiments/columbia_card_task_hot/images/beforeChosen.png'></div><div class = square><input type='image' id = 10 class = 'card_image' src='/static/experiments/columbia_card_task_hot/images/beforeChosen.png'></div><div class = square><input type='image' id = 11 class = 'card_image' src='/static/experiments/columbia_card_task_hot/images/beforeChosen.png'></div><div class = square><input type='image' id = 12 class = 'card_image' src='/static/experiments/columbia_card_task_hot/images/beforeChosen.png'></div></div>","89,71","466","test","11","1","12","2","13","-70","13","false","",""
"450","89","poldrack-single-stim","48","126253","0.0-8.10-0.30-0.30","sub-13-ses-03_1","","450","0","stim","<div class = cct-box><div class = titleBigBox>   <div class = titleboxLeft><div class = game-text id = game_round>Tour: 11</div></div>   <div class = titleboxLeft1><div class = game-text id = loss_amount>Pertes: -70</div></div>    <div class = titleboxMiddle1><div class = game-text id = gain_amount>Gains: 13</div></div>    <div class = titlebox><div class = game-text>Combien de cartes voulez-vous prendre? </div></div>     <div class = titleboxRight1><div class = game-text id = num_loss_cards><font size='+3'>Mauveaises Cartes: 2</font></div></div>   <div class = titleboxRight><div class = game-text id = current_round>Points du tour: 13</div></div><div class = cardbox><div class = square><input type='image' id = 1 class = 'card_image' src='/static/experiments/columbia_card_task_hot/images/beforeChosen.png'></div><div class = square><input type='image' id = 2 class = 'card_image' src='/static/experiments/columbia_card_task_hot/images/beforeChosen.png'></div><div class = square><input type='image' id = 3 class = 'card_image' src='/static/experiments/columbia_card_task_hot/images/beforeChosen.png'></div><div class = square><input type='image' id = 4 class = 'card_image' src='/static/experiments/columbia_card_task_hot/images/beforeChosen.png'></div><div class = square><input type='image' id = 5 class = 'card_image' src='/static/experiments/columbia_card_task_hot/images/beforeChosen.png'></div><div class = square><input type='image' id = 6 class = 'card_image' src='/static/experiments/columbia_card_task_hot/images/beforeChosen.png'></div><div class = square><input type='image' id = 7 class = 'card_image' src='/static/experiments/columbia_card_task_hot/images/beforeChosen.png'></div><div class = square><input type='image' id = 8 class = 'card_image' src='/static/experiments/columbia_card_task_hot/images/beforeChosen.png'></div><div class = square><input type='image' id = 9 class = 'card_image' src='/static/experiments/columbia_card_task_hot/images/beforeChosen.png'></div><div class = square><input type='image' id = 10 class = 'card_image' src='/static/experiments/columbia_card_task_hot/images/chosen.png'></div><div class = square><input type='image' id = 11 class = 'card_image' src='/static/experiments/columbia_card_task_hot/images/beforeChosen.png'></div><div class = square><input type='image' id = 12 class = 'card_image' src='/static/experiments/columbia_card_task_hot/images/beforeChosen.png'></div></div>","89,71","450","test","11","2","12","2","13","-70","-57","true","",""
"-1","-1","poldrack-single-stim","49","128579","0.0-8.10-1.10","sub-13-ses-03_1","","2318","0","ITI","<div class = cct-box><div class = titleBigBox>   <div class = titleboxLeft><div class = game-text id = game_round>Tour: 11</div></div>   <div class = titleboxLeft1><div class = game-text id = loss_amount>Pertes: -70</div></div>    <div class = titleboxMiddle1><div class = game-text id = gain_amount>Gains: 13</div></div>    <div class = titlebox><div class = game-text>Combien de cartes voulez-vous prendre? </div></div>     <div class = titleboxRight1><div class = game-text id = num_loss_cards><font size='+3'>Mauveaises Cartes: 2</font></div></div>   <div class = titleboxRight><div class = game-text id = current_round>Points du tour: -57</div></div><div class = cardbox><div class = square><input type='image' id = 1 class = 'card_image' src='/static/experiments/columbia_card_task_hot/images/beforeChosen.png'></div><div class = square><input type='image' id = 2 class = 'card_image' src='/static/experiments/columbia_card_task_hot/images/beforeChosen.png'></div><div class = square><input type='image' id = 3 class = 'card_image' src='/static/experiments/columbia_card_task_hot/images/beforeChosen.png'></div><div class = square><input type='image' id = 4 class = 'card_image' src='/static/experiments/columbia_card_task_hot/images/beforeChosen.png'></div><div class = square><input type='image' id = 5 class = 'card_image' src='/static/experiments/columbia_card_task_hot/images/beforeChosen.png'></div><div class = square><input type='image' id = 6 class = 'card_image' src='/static/experiments/columbia_card_task_hot/images/beforeChosen.png'></div><div class = square><input type='image' id = 7 class = 'card_image' src='/static/experiments/columbia_card_task_hot/images/beforeChosen.png'></div><div class = square><input type='image' id = 8 class = 'card_image' src='/static/experiments/columbia_card_task_hot/images/beforeChosen.png'></div><div class = square><input type='image' id = 9 class = 'card_image' src='/static/experiments/columbia_card_task_hot/images/beforeChosen.png'></div><div class = square><input type='image' id = 10 class = 'card_image' src='/static/experiments/columbia_card_task_hot/images/chosen.png'></div><div class = square><input type='image' id = 11 class = 'card_image' src='/static/experiments/columbia_card_task_hot/images/beforeChosen.png'></div><div class = square><input type='image' id = 12 class = 'card_image' src='/static/experiments/columbia_card_task_hot/images/loss.png'></div></div>","none","2250","","","","","","","","","","",""
"532","89","poldrack-single-stim","50","129118","0.0-8.11-0.31-0.31","sub-13-ses-03_1","","532","0","stim","<div class = cct-box><div class = titleBigBox>   <div class = titleboxLeft><div class = game-text id = game_round>Tour: 12</div></div>   <div class = titleboxLeft1><div class = game-text id = loss_amount>Pertes: -80</div></div>    <div class = titleboxMiddle1><div class = game-text id = gain_amount>Gains: 15</div></div>    <div class = titlebox><div class = game-text>Combien de cartes voulez-vous prendre? </div></div>     <div class = titleboxRight1><div class = game-text id = num_loss_cards><font size='+3'>Mauveaises Cartes: 2</font></div></div>   <div class = titleboxRight><div class = game-text id = current_round>Points du tour: 0</div></div><div class = cardbox><div class = square><input type='image' id = 1 class = 'card_image' src='/static/experiments/columbia_card_task_hot/images/beforeChosen.png'></div><div class = square><input type='image' id = 2 class = 'card_image' src='/static/experiments/columbia_card_task_hot/images/beforeChosen.png'></div><div class = square><input type='image' id = 3 class = 'card_image' src='/static/experiments/columbia_card_task_hot/images/beforeChosen.png'></div><div class = square><input type='image' id = 4 class = 'card_image' src='/static/experiments/columbia_card_task_hot/images/beforeChosen.png'></div><div class = square><input type='image' id = 5 class = 'card_image' src='/static/experiments/columbia_card_task_hot/images/beforeChosen.png'></div><div class = square><input type='image' id = 6 class = 'card_image' src='/static/experiments/columbia_card_task_hot/images/beforeChosen.png'></div><div class = square><input type='image' id = 7 class = 'card_image' src='/static/experiments/columbia_card_task_hot/images/beforeChosen.png'></div><div class = square><input type='image' id = 8 class = 'card_image' src='/static/experiments/columbia_card_task_hot/images/beforeChosen.png'></div><div class = square><input type='image' id = 9 class = 'card_image' src='/static/experiments/columbia_card_task_hot/images/beforeChosen.png'></div><div class = square><input type='image' id = 10 class = 'card_image' src='/static/experiments/columbia_card_task_hot/images/beforeChosen.png'></div><div class = square><input type='image' id = 11 class = 'card_image' src='/static/experiments/columbia_card_task_hot/images/beforeChosen.png'></div><div class = square><input type='image' id = 12 class = 'card_image' src='/static/experiments/columbia_card_task_hot/images/beforeChosen.png'></div></div>","89,71","532","test","12","1","12","2","15","-80","15","false","",""
"525","89","poldrack-single-stim","51","129648","0.0-8.11-0.32-0.32","sub-13-ses-03_1","","525","0","stim","<div class = cct-box><div class = titleBigBox>   <div class = titleboxLeft><div class = game-text id = game_round>Tour: 12</div></div>   <div class = titleboxLeft1><div class = game-text id = loss_amount>Pertes: -80</div></div>    <div class = titleboxMiddle1><div class = game-text id = gain_amount>Gains: 15</div></div>    <div class = titlebox><div class = game-text>Combien de cartes voulez-vous prendre? </div></div>     <div class = titleboxRight1><div class = game-text id = num_loss_cards><font size='+3'>Mauveaises Cartes: 2</font></div></div>   <div class = titleboxRight><div class = game-text id = current_round>Points du tour: 15</div></div><div class = cardbox><div class = square><input type='image' id = 1 class = 'card_image' src='/static/experiments/columbia_card_task_hot/images/beforeChosen.png'></div><div class = square><input type='image' id = 2 class = 'card_image' src='/static/experiments/columbia_card_task_hot/images/chosen.png'></div><div class = square><input type='image' id = 3 class = 'card_image' src='/static/experiments/columbia_card_task_hot/images/beforeChosen.png'></div><div class = square><input type='image' id = 4 class = 'card_image' src='/static/experiments/columbia_card_task_hot/images/beforeChosen.png'></div><div class = square><input type='image' id = 5 class = 'card_image' src='/static/experiments/columbia_card_task_hot/images/beforeChosen.png'></div><div class = square><input type='image' id = 6 class = 'card_image' src='/static/experiments/columbia_card_task_hot/images/beforeChosen.png'></div><div class = square><input type='image' id = 7 class = 'card_image' src='/static/experiments/columbia_card_task_hot/images/beforeChosen.png'></div><div class = square><input type='image' id = 8 class = 'card_image' src='/static/experiments/columbia_card_task_hot/images/beforeChosen.png'></div><div class = square><input type='image' id = 9 class = 'card_image' src='/static/experiments/columbia_card_task_hot/images/beforeChosen.png'></div><div class = square><input type='image' id = 10 class = 'card_image' src='/static/experiments/columbia_card_task_hot/images/beforeChosen.png'></div><div class = square><input type='image' id = 11 class = 'card_image' src='/static/experiments/columbia_card_task_hot/images/beforeChosen.png'></div><div class = square><input type='image' id = 12 class = 'card_image' src='/static/experiments/columbia_card_task_hot/images/beforeChosen.png'></div></div>","89,71","525","test","12","2","12","2","15","-80","30","false","",""
"1364","89","poldrack-single-stim","52","131020","0.0-8.11-0.33-0.33","sub-13-ses-03_1","","1364","0","stim","<div class = cct-box><div class = titleBigBox>   <div class = titleboxLeft><div class = game-text id = game_round>Tour: 12</div></div>   <div class = titleboxLeft1><div class = game-text id = loss_amount>Pertes: -80</div></div>    <div class = titleboxMiddle1><div class = game-text id = gain_amount>Gains: 15</div></div>    <div class = titlebox><div class = game-text>Combien de cartes voulez-vous prendre? </div></div>     <div class = titleboxRight1><div class = game-text id = num_loss_cards><font size='+3'>Mauveaises Cartes: 2</font></div></div>   <div class = titleboxRight><div class = game-text id = current_round>Points du tour: 30</div></div><div class = cardbox><div class = square><input type='image' id = 1 class = 'card_image' src='/static/experiments/columbia_card_task_hot/images/chosen.png'></div><div class = square><input type='image' id = 2 class = 'card_image' src='/static/experiments/columbia_card_task_hot/images/chosen.png'></div><div class = square><input type='image' id = 3 class = 'card_image' src='/static/experiments/columbia_card_task_hot/images/beforeChosen.png'></div><div class = square><input type='image' id = 4 class = 'card_image' src='/static/experiments/columbia_card_task_hot/images/beforeChosen.png'></div><div class = square><input type='image' id = 5 class = 'card_image' src='/static/experiments/columbia_card_task_hot/images/beforeChosen.png'></div><div class = square><input type='image' id = 6 class = 'card_image' src='/static/experiments/columbia_card_task_hot/images/beforeChosen.png'></div><div class = square><input type='image' id = 7 class = 'card_image' src='/static/experiments/columbia_card_task_hot/images/beforeChosen.png'></div><div class = square><input type='image' id = 8 class = 'card_image' src='/static/experiments/columbia_card_task_hot/images/beforeChosen.png'></div><div class = square><input type='image' id = 9 class = 'card_image' src='/static/experiments/columbia_card_task_hot/images/beforeChosen.png'></div><div class = square><input type='image' id = 10 class = 'card_image' src='/static/experiments/columbia_card_task_hot/images/beforeChosen.png'></div><div class = square><input type='image' id = 11 class = 'card_image' src='/static/experiments/columbia_card_task_hot/images/beforeChosen.png'></div><div class = square><input type='image' id = 12 class = 'card_image' src='/static/experiments/columbia_card_task_hot/images/beforeChosen.png'></div></div>","89,71","1364","test","12","3","12","2","15","-80","45","false","",""
"1651","89","poldrack-single-stim","53","132680","0.0-8.11-0.34-0.34","sub-13-ses-03_1","","1651","0","stim","<div class = cct-box><div class = titleBigBox>   <div class = titleboxLeft><div class = game-text id = game_round>Tour: 12</div></div>   <div class = titleboxLeft1><div class = game-text id = loss_amount>Pertes: -80</div></div>    <div class = titleboxMiddle1><div class = game-text id = gain_amount>Gains: 15</div></div>    <div class = titlebox><div class = game-text>Combien de cartes voulez-vous prendre? </div></div>     <div class = titleboxRight1><div class = game-text id = num_loss_cards><font size='+3'>Mauveaises Cartes: 2</font></div></div>   <div class = titleboxRight><div class = game-text id = current_round>Points du tour: 45</div></div><div class = cardbox><div class = square><input type='image' id = 1 class = 'card_image' src='/static/experiments/columbia_card_task_hot/images/chosen.png'></div><div class = square><input type='image' id = 2 class = 'card_image' src='/static/experiments/columbia_card_task_hot/images/chosen.png'></div><div class = square><input type='image' id = 3 class = 'card_image' src='/static/experiments/columbia_card_task_hot/images/beforeChosen.png'></div><div class = square><input type='image' id = 4 class = 'card_image' src='/static/experiments/columbia_card_task_hot/images/beforeChosen.png'></div><div class = square><input type='image' id = 5 class = 'card_image' src='/static/experiments/columbia_card_task_hot/images/beforeChosen.png'></div><div class = square><input type='image' id = 6 class = 'card_image' src='/static/experiments/columbia_card_task_hot/images/beforeChosen.png'></div><div class = square><input type='image' id = 7 class = 'card_image' src='/static/experiments/columbia_card_task_hot/images/chosen.png'></div><div class = square><input type='image' id = 8 class = 'card_image' src='/static/experiments/columbia_card_task_hot/images/beforeChosen.png'></div><div class = square><input type='image' id = 9 class = 'card_image' src='/static/experiments/columbia_card_task_hot/images/beforeChosen.png'></div><div class = square><input type='image' id = 10 class = 'card_image' src='/static/experiments/columbia_card_task_hot/images/beforeChosen.png'></div><div class = square><input type='image' id = 11 class = 'card_image' src='/static/experiments/columbia_card_task_hot/images/beforeChosen.png'></div><div class = square><input type='image' id = 12 class = 'card_image' src='/static/experiments/columbia_card_task_hot/images/beforeChosen.png'></div></div>","89,71","1651","test","12","4","12","2","15","-80","-35","true","",""
