"rt","key_press","trial_type","trial_index","time_elapsed","internal_node_id","subject","text","block_duration","timing_post_trial","trial_id","responses","stimulus","possible_responses","stim_duration","exp_stage","cue","stim_color","stim_number","task","task_switch","cue_switch","trial_num","correct","correct_response","feedback_duration","exp_id"
"1997","13","text","0","2000","0.0-0.0","sub-04_ses-01_1","","","","","","","","","","","","","","","","","","","",""
"17700","89","poldrack-text","1","20718","0.0-1.0","sub-04_ses-01_1","<div class = centerbox><div style = 'font-size: 50px' class = center-text>Veuillez appuyer avec votre index</p></div>","17700","500","fmri_response_test","","","","","","","","","","","","","","","",""
"467","71","poldrack-text","2","21705","0.0-2.0","sub-04_ses-01_1","<div class = centerbox><div style = 'font-size: 50px' class = center-text>Veuillez appuyer avec votre majeur</p></div>","467","500","fmri_response_test","","","","","","","","","","","","","","","",""
"19221","","survey-text","3","41452","0.0-3.0","sub-04_ses-01_1","","","","task_setup","{""Q0"":""1"",""Q1"":""2""}","","","","","","","","","","","","","","",""
"5227","32","poldrack-single-stim","4","47703","0.0-4.0","sub-04_ses-01_1","","5227","0","instructions","","<div class = centerbox><div class = center-text style=""font-size:40px""><strong>Couleur</strong> or <strong>Orange-Bleu</strong>: Index si orange et Majeur si bleu.<br><br><strong>Amplitude</strong> ou <strong>Haut-Bas</strong>: Majeur si >5 et Index si <5.</div></div>","32","5227","","","","","","","","","","","",""
"","","call-function","5","47704","0.0-5.0-0.0","sub-04_ses-01_1","","","","set_stims","","","","","","","","","","","","","","","",""
"-1","-1","poldrack-single-stim","6","48213","0.0-5.0-1.0","sub-04_ses-01_1","","500","0","fixation","","<div class = upperbox><div class = fixation>+</div></div><div class = lowerbox><div class = fixation>+</div></div>","none","500","practice","","","","","","","","","","",""
"-1","-1","poldrack-single-stim","7","49137","0.0-5.0-2.0","sub-04_ses-01_1","","900","0","cue","","<div class = upperbox><div class = ""center-text"" >Amplitude</div></div><div class = lowerbox><div class = fixation>+</div></div>","none","900","practice","Amplitude","#1F45FC","9","magnitude","switch","stay","0","","","",""
"712","71","poldrack-categorize","8","51673","0.0-5.0-3.0","sub-04_ses-01_1","","2000","0","stim","","<div class = upperbox><div class = ""center-text"" >Amplitude</div></div><div class = lowerbox><div class = ""stim-text"" style=color:#1F45FC;>9</div>","89,71","1000","practice","Amplitude","#1F45FC","9","magnitude","switch","stay","0","true","71","500",""
"-1","-1","poldrack-single-stim","9","52194","0.0-5.0-4.0","sub-04_ses-01_1","","500","0","gap",""," ","none","500","practice","","","","","","","","","","",""
"","","call-function","10","52195","0.0-5.0-5.0","sub-04_ses-01_1","","","","set_stims","","","","","","","","","","","","","","","",""
"-1","-1","poldrack-single-stim","11","52713","0.0-5.0-6.0","sub-04_ses-01_1","","500","0","fixation","","<div class = upperbox><div class = fixation>+</div></div><div class = lowerbox><div class = fixation>+</div></div>","none","500","practice","","","","","","","","","","",""
"-1","-1","poldrack-single-stim","12","52833","0.0-5.0-7.0","sub-04_ses-01_1","","100","0","cue","","<div class = upperbox><div class = ""center-text"" >Haut-Bas</div></div><div class = lowerbox><div class = fixation>+</div></div>","none","100","practice","Haut-Bas","#1F45FC","8","magnitude","stay","switch","1","","","",""
"661","71","poldrack-categorize","13","55373","0.0-5.0-8.0","sub-04_ses-01_1","","2000","0","stim","","<div class = upperbox><div class = ""center-text"" >Haut-Bas</div></div><div class = lowerbox><div class = ""stim-text"" style=color:#1F45FC;>8</div>","89,71","1000","practice","Haut-Bas","#1F45FC","8","magnitude","stay","switch","1","true","71","500",""
"-1","-1","poldrack-single-stim","14","55892","0.0-5.0-9.0","sub-04_ses-01_1","","500","0","gap",""," ","none","500","practice","","","","","","","","","","",""
"","","call-function","15","55893","0.0-5.0-10.0","sub-04_ses-01_1","","","","set_stims","","","","","","","","","","","","","","","",""
"-1","-1","poldrack-single-stim","16","56412","0.0-5.0-11.0","sub-04_ses-01_1","","500","0","fixation","","<div class = upperbox><div class = fixation>+</div></div><div class = lowerbox><div class = fixation>+</div></div>","none","500","practice","","","","","","","","","","",""
"-1","-1","poldrack-single-stim","17","56535","0.0-5.0-12.0","sub-04_ses-01_1","","100","0","cue","","<div class = upperbox><div class = ""center-text"" >Haut-Bas</div></div><div class = lowerbox><div class = fixation>+</div></div>","none","100","practice","Haut-Bas","orange","9","magnitude","stay","stay","2","","","",""
"738","71","poldrack-categorize","18","59064","0.0-5.0-13.0","sub-04_ses-01_1","","2000","0","stim","","<div class = upperbox><div class = ""center-text"" >Haut-Bas</div></div><div class = lowerbox><div class = ""stim-text"" style=color:orange;>9</div>","89,71","1000","practice","Haut-Bas","orange","9","magnitude","stay","stay","2","true","71","500",""
"-1","-1","poldrack-single-stim","19","59574","0.0-5.0-14.0","sub-04_ses-01_1","","500","0","gap",""," ","none","500","practice","","","","","","","","","","",""
"","","call-function","20","59574","0.0-5.0-15.0","sub-04_ses-01_1","","","","set_stims","","","","","","","","","","","","","","","",""
"-1","-1","poldrack-single-stim","21","60093","0.0-5.0-16.0","sub-04_ses-01_1","","500","0","fixation","","<div class = upperbox><div class = fixation>+</div></div><div class = lowerbox><div class = fixation>+</div></div>","none","500","practice","","","","","","","","","","",""
"-1","-1","poldrack-single-stim","22","60214","0.0-5.0-17.0","sub-04_ses-01_1","","100","0","cue","","<div class = upperbox><div class = ""center-text"" >Amplitude</div></div><div class = lowerbox><div class = fixation>+</div></div>","none","100","practice","Amplitude","#1F45FC","4","magnitude","stay","switch","3","","","",""
"699","89","poldrack-categorize","23","62753","0.0-5.0-18.0","sub-04_ses-01_1","","2000","0","stim","","<div class = upperbox><div class = ""center-text"" >Amplitude</div></div><div class = lowerbox><div class = ""stim-text"" style=color:#1F45FC;>4</div>","89,71","1000","practice","Amplitude","#1F45FC","4","magnitude","stay","switch","3","true","89","500",""
"-1","-1","poldrack-single-stim","24","63274","0.0-5.0-19.0","sub-04_ses-01_1","","500","0","gap",""," ","none","500","practice","","","","","","","","","","",""
"","","call-function","25","63274","0.0-5.0-20.0","sub-04_ses-01_1","","","","set_stims","","","","","","","","","","","","","","","",""
"-1","-1","poldrack-single-stim","26","63794","0.0-5.0-21.0","sub-04_ses-01_1","","500","0","fixation","","<div class = upperbox><div class = fixation>+</div></div><div class = lowerbox><div class = fixation>+</div></div>","none","500","practice","","","","","","","","","","",""
"-1","-1","poldrack-single-stim","27","64704","0.0-5.0-22.0","sub-04_ses-01_1","","900","0","cue","","<div class = upperbox><div class = ""center-text"" >Haut-Bas</div></div><div class = lowerbox><div class = fixation>+</div></div>","none","900","practice","Haut-Bas","orange","4","magnitude","stay","switch","4","","","",""
"438","89","poldrack-categorize","28","67244","0.0-5.0-23.0","sub-04_ses-01_1","","2000","0","stim","","<div class = upperbox><div class = ""center-text"" >Haut-Bas</div></div><div class = lowerbox><div class = ""stim-text"" style=color:orange;>4</div>","89,71","1000","practice","Haut-Bas","orange","4","magnitude","stay","switch","4","true","89","500",""
"-1","-1","poldrack-single-stim","29","67759","0.0-5.0-24.0","sub-04_ses-01_1","","500","0","gap",""," ","none","500","practice","","","","","","","","","","",""
"","","call-function","30","67760","0.0-5.0-25.0","sub-04_ses-01_1","","","","set_stims","","","","","","","","","","","","","","","",""
"-1","-1","poldrack-single-stim","31","68274","0.0-5.0-26.0","sub-04_ses-01_1","","500","0","fixation","","<div class = upperbox><div class = fixation>+</div></div><div class = lowerbox><div class = fixation>+</div></div>","none","500","practice","","","","","","","","","","",""
"-1","-1","poldrack-single-stim","32","68395","0.0-5.0-27.0","sub-04_ses-01_1","","100","0","cue","","<div class = upperbox><div class = ""center-text"" >Orange-Bleu</div></div><div class = lowerbox><div class = fixation>+</div></div>","none","100","practice","Orange-Bleu","#1F45FC","1","color","switch","stay","5","","","",""
"982","71","poldrack-categorize","33","70923","0.0-5.0-28.0","sub-04_ses-01_1","","2000","0","stim","","<div class = upperbox><div class = ""center-text"" >Orange-Bleu</div></div><div class = lowerbox><div class = ""stim-text"" style=color:#1F45FC;>1</div>","89,71","1000","practice","Orange-Bleu","#1F45FC","1","color","switch","stay","5","true","71","500",""
"-1","-1","poldrack-single-stim","34","71442","0.0-5.0-29.0","sub-04_ses-01_1","","500","0","gap",""," ","none","500","practice","","","","","","","","","","",""
"","","call-function","35","71444","0.0-5.0-30.0","sub-04_ses-01_1","","","","set_stims","","","","","","","","","","","","","","","",""
"-1","-1","poldrack-single-stim","36","71964","0.0-5.0-31.0","sub-04_ses-01_1","","500","0","fixation","","<div class = upperbox><div class = fixation>+</div></div><div class = lowerbox><div class = fixation>+</div></div>","none","500","practice","","","","","","","","","","",""
"-1","-1","poldrack-single-stim","37","72884","0.0-5.0-32.0","sub-04_ses-01_1","","900","0","cue","","<div class = upperbox><div class = ""center-text"" >Orange-Bleu</div></div><div class = lowerbox><div class = fixation>+</div></div>","none","900","practice","Orange-Bleu","orange","9","color","stay","stay","6","","","",""
"437","89","poldrack-categorize","38","75424","0.0-5.0-33.0","sub-04_ses-01_1","","2000","0","stim","","<div class = upperbox><div class = ""center-text"" >Orange-Bleu</div></div><div class = lowerbox><div class = ""stim-text"" style=color:orange;>9</div>","89,71","1000","practice","Orange-Bleu","orange","9","color","stay","stay","6","true","89","500",""
"-1","-1","poldrack-single-stim","39","75943","0.0-5.0-34.0","sub-04_ses-01_1","","500","0","gap",""," ","none","500","practice","","","","","","","","","","",""
"","","call-function","40","75944","0.0-5.0-35.0","sub-04_ses-01_1","","","","set_stims","","","","","","","","","","","","","","","",""
"-1","-1","poldrack-single-stim","41","76464","0.0-5.0-36.0","sub-04_ses-01_1","","500","0","fixation","","<div class = upperbox><div class = fixation>+</div></div><div class = lowerbox><div class = fixation>+</div></div>","none","500","practice","","","","","","","","","","",""
"-1","-1","poldrack-single-stim","42","77384","0.0-5.0-37.0","sub-04_ses-01_1","","900","0","cue","","<div class = upperbox><div class = ""center-text"" >Couleur</div></div><div class = lowerbox><div class = fixation>+</div></div>","none","900","practice","Couleur","#1F45FC","7","color","stay","switch","7","","","",""
"392","71","poldrack-categorize","43","79924","0.0-5.0-38.0","sub-04_ses-01_1","","2000","0","stim","","<div class = upperbox><div class = ""center-text"" >Couleur</div></div><div class = lowerbox><div class = ""stim-text"" style=color:#1F45FC;>7</div>","89,71","1000","practice","Couleur","#1F45FC","7","color","stay","switch","7","true","71","500",""
"-1","-1","poldrack-single-stim","44","80444","0.0-5.0-39.0","sub-04_ses-01_1","","500","0","gap",""," ","none","500","practice","","","","","","","","","","",""
"","","call-function","45","80444","0.0-5.0-40.0","sub-04_ses-01_1","","","","set_stims","","","","","","","","","","","","","","","",""
"-1","-1","poldrack-single-stim","46","80963","0.0-5.0-41.0","sub-04_ses-01_1","","500","0","fixation","","<div class = upperbox><div class = fixation>+</div></div><div class = lowerbox><div class = fixation>+</div></div>","none","500","practice","","","","","","","","","","",""
"-1","-1","poldrack-single-stim","47","81883","0.0-5.0-42.0","sub-04_ses-01_1","","900","0","cue","","<div class = upperbox><div class = ""center-text"" >Haut-Bas</div></div><div class = lowerbox><div class = fixation>+</div></div>","none","900","practice","Haut-Bas","orange","4","magnitude","switch","switch","8","","","",""
"433","89","poldrack-categorize","48","84424","0.0-5.0-43.0","sub-04_ses-01_1","","2000","0","stim","","<div class = upperbox><div class = ""center-text"" >Haut-Bas</div></div><div class = lowerbox><div class = ""stim-text"" style=color:orange;>4</div>","89,71","1000","practice","Haut-Bas","orange","4","magnitude","switch","switch","8","true","89","500",""
"-1","-1","poldrack-single-stim","49","84934","0.0-5.0-44.0","sub-04_ses-01_1","","500","0","gap",""," ","none","500","practice","","","","","","","","","","",""
"","","call-function","50","84934","0.0-5.0-45.0","sub-04_ses-01_1","","","","set_stims","","","","","","","","","","","","","","","",""
"-1","-1","poldrack-single-stim","51","85454","0.0-5.0-46.0","sub-04_ses-01_1","","500","0","fixation","","<div class = upperbox><div class = fixation>+</div></div><div class = lowerbox><div class = fixation>+</div></div>","none","500","practice","","","","","","","","","","",""
"-1","-1","poldrack-single-stim","52","85575","0.0-5.0-47.0","sub-04_ses-01_1","","100","0","cue","","<div class = upperbox><div class = ""center-text"" >Haut-Bas</div></div><div class = lowerbox><div class = fixation>+</div></div>","none","100","practice","Haut-Bas","#1F45FC","6","magnitude","stay","stay","9","","","",""
"814","71","poldrack-categorize","53","88114","0.0-5.0-48.0","sub-04_ses-01_1","","2000","0","stim","","<div class = upperbox><div class = ""center-text"" >Haut-Bas</div></div><div class = lowerbox><div class = ""stim-text"" style=color:#1F45FC;>6</div>","89,71","1000","practice","Haut-Bas","#1F45FC","6","magnitude","stay","stay","9","true","71","500",""
"-1","-1","poldrack-single-stim","54","88633","0.0-5.0-49.0","sub-04_ses-01_1","","500","0","gap",""," ","none","500","practice","","","","","","","","","","",""
"","","call-function","55","88634","0.0-5.0-50.0","sub-04_ses-01_1","","","","set_stims","","","","","","","","","","","","","","","",""
"-1","-1","poldrack-single-stim","56","89154","0.0-5.0-51.0","sub-04_ses-01_1","","500","0","fixation","","<div class = upperbox><div class = fixation>+</div></div><div class = lowerbox><div class = fixation>+</div></div>","none","500","practice","","","","","","","","","","",""
"-1","-1","poldrack-single-stim","57","90074","0.0-5.0-52.0","sub-04_ses-01_1","","900","0","cue","","<div class = upperbox><div class = ""center-text"" >Orange-Bleu</div></div><div class = lowerbox><div class = fixation>+</div></div>","none","900","practice","Orange-Bleu","#1F45FC","2","color","switch","stay","10","","","",""
"655","71","poldrack-categorize","58","92613","0.0-5.0-53.0","sub-04_ses-01_1","","2000","0","stim","","<div class = upperbox><div class = ""center-text"" >Orange-Bleu</div></div><div class = lowerbox><div class = ""stim-text"" style=color:#1F45FC;>2</div>","89,71","1000","practice","Orange-Bleu","#1F45FC","2","color","switch","stay","10","true","71","500",""
"-1","-1","poldrack-single-stim","59","93134","0.0-5.0-54.0","sub-04_ses-01_1","","500","0","gap",""," ","none","500","practice","","","","","","","","","","",""
"","","call-function","60","93134","0.0-5.0-55.0","sub-04_ses-01_1","","","","set_stims","","","","","","","","","","","","","","","",""
"-1","-1","poldrack-single-stim","61","93653","0.0-5.0-56.0","sub-04_ses-01_1","","500","0","fixation","","<div class = upperbox><div class = fixation>+</div></div><div class = lowerbox><div class = fixation>+</div></div>","none","500","practice","","","","","","","","","","",""
"-1","-1","poldrack-single-stim","62","94564","0.0-5.0-57.0","sub-04_ses-01_1","","900","0","cue","","<div class = upperbox><div class = ""center-text"" >Orange-Bleu</div></div><div class = lowerbox><div class = fixation>+</div></div>","none","900","practice","Orange-Bleu","orange","3","color","stay","stay","11","","","",""
"423","89","poldrack-categorize","63","97093","0.0-5.0-58.0","sub-04_ses-01_1","","2000","0","stim","","<div class = upperbox><div class = ""center-text"" >Orange-Bleu</div></div><div class = lowerbox><div class = ""stim-text"" style=color:orange;>3</div>","89,71","1000","practice","Orange-Bleu","orange","3","color","stay","stay","11","true","89","500",""
"-1","-1","poldrack-single-stim","64","97657","0.0-5.0-59.0","sub-04_ses-01_1","","500","0","gap",""," ","none","500","practice","","","","","","","","","","",""
"","","call-function","65","97658","0.0-5.0-60.0","sub-04_ses-01_1","","","","set_stims","","","","","","","","","","","","","","","",""
"-1","-1","poldrack-single-stim","66","98174","0.0-5.0-61.0","sub-04_ses-01_1","","500","0","fixation","","<div class = upperbox><div class = fixation>+</div></div><div class = lowerbox><div class = fixation>+</div></div>","none","500","practice","","","","","","","","","","",""
"-1","-1","poldrack-single-stim","67","98294","0.0-5.0-62.0","sub-04_ses-01_1","","100","0","cue","","<div class = upperbox><div class = ""center-text"" >Amplitude</div></div><div class = lowerbox><div class = fixation>+</div></div>","none","100","practice","Amplitude","orange","2","magnitude","switch","switch","12","","","",""
"785","89","poldrack-categorize","68","100834","0.0-5.0-63.0","sub-04_ses-01_1","","2000","0","stim","","<div class = upperbox><div class = ""center-text"" >Amplitude</div></div><div class = lowerbox><div class = ""stim-text"" style=color:orange;>2</div>","89,71","1000","practice","Amplitude","orange","2","magnitude","switch","switch","12","true","89","500",""
"-1","-1","poldrack-single-stim","69","101354","0.0-5.0-64.0","sub-04_ses-01_1","","500","0","gap",""," ","none","500","practice","","","","","","","","","","",""
"","","call-function","70","101354","0.0-5.0-65.0","sub-04_ses-01_1","","","","set_stims","","","","","","","","","","","","","","","",""
"-1","-1","poldrack-single-stim","71","101873","0.0-5.0-66.0","sub-04_ses-01_1","","500","0","fixation","","<div class = upperbox><div class = fixation>+</div></div><div class = lowerbox><div class = fixation>+</div></div>","none","500","practice","","","","","","","","","","",""
"-1","-1","poldrack-single-stim","72","102793","0.0-5.0-67.0","sub-04_ses-01_1","","900","0","cue","","<div class = upperbox><div class = ""center-text"" >Couleur</div></div><div class = lowerbox><div class = fixation>+</div></div>","none","900","practice","Couleur","orange","4","color","switch","switch","13","","","",""
"486","89","poldrack-categorize","73","105332","0.0-5.0-68.0","sub-04_ses-01_1","","2000","0","stim","","<div class = upperbox><div class = ""center-text"" >Couleur</div></div><div class = lowerbox><div class = ""stim-text"" style=color:orange;>4</div>","89,71","1000","practice","Couleur","orange","4","color","switch","switch","13","true","89","500",""
"-1","-1","poldrack-single-stim","74","105853","0.0-5.0-69.0","sub-04_ses-01_1","","500","0","gap",""," ","none","500","practice","","","","","","","","","","",""
"","","call-function","75","105854","0.0-5.0-70.0","sub-04_ses-01_1","","","","set_stims","","","","","","","","","","","","","","","",""
"-1","-1","poldrack-single-stim","76","106375","0.0-5.0-71.0","sub-04_ses-01_1","","500","0","fixation","","<div class = upperbox><div class = fixation>+</div></div><div class = lowerbox><div class = fixation>+</div></div>","none","500","practice","","","","","","","","","","",""
"-1","-1","poldrack-single-stim","77","106493","0.0-5.0-72.0","sub-04_ses-01_1","","100","0","cue","","<div class = upperbox><div class = ""center-text"" >Amplitude</div></div><div class = lowerbox><div class = fixation>+</div></div>","none","100","practice","Amplitude","orange","1","magnitude","switch","stay","14","","","",""
"665","89","poldrack-categorize","78","109033","0.0-5.0-73.0","sub-04_ses-01_1","","2000","0","stim","","<div class = upperbox><div class = ""center-text"" >Amplitude</div></div><div class = lowerbox><div class = ""stim-text"" style=color:orange;>1</div>","89,71","1000","practice","Amplitude","orange","1","magnitude","switch","stay","14","true","89","500",""
"-1","-1","poldrack-single-stim","79","109553","0.0-5.0-74.0","sub-04_ses-01_1","","500","0","gap",""," ","none","500","practice","","","","","","","","","","",""
"","","call-function","80","109553","0.0-5.0-75.0","sub-04_ses-01_1","","","","set_stims","","","","","","","","","","","","","","","",""
"-1","-1","poldrack-single-stim","81","110072","0.0-5.0-76.0","sub-04_ses-01_1","","500","0","fixation","","<div class = upperbox><div class = fixation>+</div></div><div class = lowerbox><div class = fixation>+</div></div>","none","500","practice","","","","","","","","","","",""
"-1","-1","poldrack-single-stim","82","110193","0.0-5.0-77.0","sub-04_ses-01_1","","100","0","cue","","<div class = upperbox><div class = ""center-text"" >Couleur</div></div><div class = lowerbox><div class = fixation>+</div></div>","none","100","practice","Couleur","#1F45FC","8","color","switch","switch","15","","","",""
"994","71","poldrack-categorize","83","112732","0.0-5.0-78.0","sub-04_ses-01_1","","2000","0","stim","","<div class = upperbox><div class = ""center-text"" >Couleur</div></div><div class = lowerbox><div class = ""stim-text"" style=color:#1F45FC;>8</div>","89,71","1000","practice","Couleur","#1F45FC","8","color","switch","switch","15","true","71","500",""
"-1","-1","poldrack-single-stim","84","113254","0.0-5.0-79.0","sub-04_ses-01_1","","500","0","gap",""," ","none","500","practice","","","","","","","","","","",""
"10361","32","poldrack-text","85","123630","0.0-6.0","sub-04_ses-01_1","<div class = centerbox><div  class = center-text>Scanner Setup</div></div>","10361","0","fmri_scanner_wait","","","","","","","","","","","","","","","",""
"71668","84","poldrack-text","86","195301","0.0-7.0","sub-04_ses-01_1","<div class = centerbox><div style='color:red'; class = center-text>+</div></div>","71668","0","fmri_trigger_wait","","","","","","","","","","","","","","","",""
"-1","-1","poldrack-single-stim","87","196314","0.0-8.0","sub-04_ses-01_1","","1000","0","fmri_buffer","","","none","1000","","","","","","","","","","","",""
"-1","-1","poldrack-single-stim","88","197833","0.0-9.0","sub-04_ses-01_1","","1500","500","test_start_block","","<div class = centerbox><div class = center-text>Preparez-vous!</p></div>","none","1500","","","","","","","","","","","",""
"-1","-1","poldrack-single-stim","89","198874","0.0-10.0","sub-04_ses-01_1","","500","0","fixation","","<div class = upperbox><div class = fixation>+</div></div><div class = lowerbox><div class = fixation>+</div></div>","none","500","test","","","","","","","","","","",""
"","","call-function","90","198874","0.0-11.0","sub-04_ses-01_1","","","","set_stims","","","","","","","","","","","","","","","",""
"-1","-1","poldrack-single-stim","91","199794","0.0-12.0","sub-04_ses-01_1","","900","0","cue","","<div class = upperbox><div class = ""center-text"" >Amplitude</div></div><div class = lowerbox><div class = fixation>+</div></div>","none","900","test","Amplitude","#1F45FC","9","magnitude","stay","stay","0","","","",""
"440","71","poldrack-single-stim","92","203023","0.0-13.0","sub-04_ses-01_1","","3224","0","stim","","<div class = upperbox><div class = ""center-text"" >Amplitude</div></div><div class = lowerbox><div class = ""stim-text"" style=color:#1F45FC;>9</div>","89,71","1000","test","Amplitude","#1F45FC","9","magnitude","stay","stay","0","true","71","",""
"","","call-function","93","203024","0.0-14.0","sub-04_ses-01_1","","","","set_stims","","","","","","","","","","","","","","","",""
"-1","-1","poldrack-single-stim","94","203943","0.0-15.0","sub-04_ses-01_1","","900","0","cue","","<div class = upperbox><div class = ""center-text"" >Orange-Bleu</div></div><div class = lowerbox><div class = fixation>+</div></div>","none","900","test","Orange-Bleu","#1F45FC","8","color","switch","switch","1","","","",""
"450","71","poldrack-single-stim","95","206363","0.0-16.0","sub-04_ses-01_1","","2408","0","stim","","<div class = upperbox><div class = ""center-text"" >Orange-Bleu</div></div><div class = lowerbox><div class = ""stim-text"" style=color:#1F45FC;>8</div>","89,71","1000","test","Orange-Bleu","#1F45FC","8","color","switch","switch","1","true","71","",""
"","","call-function","96","206363","0.0-17.0","sub-04_ses-01_1","","","","set_stims","","","","","","","","","","","","","","","",""
"-1","-1","poldrack-single-stim","97","207283","0.0-18.0","sub-04_ses-01_1","","900","0","cue","","<div class = upperbox><div class = ""center-text"" >Amplitude</div></div><div class = lowerbox><div class = fixation>+</div></div>","none","900","test","Amplitude","orange","9","magnitude","switch","stay","2","","","",""
"500","71","poldrack-single-stim","98","210103","0.0-19.0","sub-04_ses-01_1","","2816","0","stim","","<div class = upperbox><div class = ""center-text"" >Amplitude</div></div><div class = lowerbox><div class = ""stim-text"" style=color:orange;>9</div>","89,71","1000","test","Amplitude","orange","9","magnitude","switch","stay","2","true","71","",""
"","","call-function","99","210104","0.0-20.0","sub-04_ses-01_1","","","","set_stims","","","","","","","","","","","","","","","",""
"-1","-1","poldrack-single-stim","100","210222","0.0-21.0","sub-04_ses-01_1","","100","0","cue","","<div class = upperbox><div class = ""center-text"" >Couleur</div></div><div class = lowerbox><div class = fixation>+</div></div>","none","100","test","Couleur","#1F45FC","4","color","switch","stay","3","","","",""
"812","71","poldrack-single-stim","101","212643","0.0-22.0","sub-04_ses-01_1","","2408","0","stim","","<div class = upperbox><div class = ""center-text"" >Couleur</div></div><div class = lowerbox><div class = ""stim-text"" style=color:#1F45FC;>4</div>","89,71","1000","test","Couleur","#1F45FC","4","color","switch","stay","3","true","71","",""
"","","call-function","102","212644","0.0-23.0","sub-04_ses-01_1","","","","set_stims","","","","","","","","","","","","","","","",""
"-1","-1","poldrack-single-stim","103","213563","0.0-24.0","sub-04_ses-01_1","","900","0","cue","","<div class = upperbox><div class = ""center-text"" >Amplitude</div></div><div class = lowerbox><div class = fixation>+</div></div>","none","900","test","Amplitude","orange","4","magnitude","switch","switch","4","","","",""
"420","89","poldrack-single-stim","104","215702","0.0-25.0","sub-04_ses-01_1","","2136","0","stim","","<div class = upperbox><div class = ""center-text"" >Amplitude</div></div><div class = lowerbox><div class = ""stim-text"" style=color:orange;>4</div>","89,71","1000","test","Amplitude","orange","4","magnitude","switch","switch","4","true","89","",""
"","","call-function","105","215703","0.0-26.0","sub-04_ses-01_1","","","","set_stims","","","","","","","","","","","","","","","",""
"-1","-1","poldrack-single-stim","106","216625","0.0-27.0","sub-04_ses-01_1","","900","0","cue","","<div class = upperbox><div class = ""center-text"" >Amplitude</div></div><div class = lowerbox><div class = fixation>+</div></div>","none","900","test","Amplitude","#1F45FC","1","magnitude","stay","stay","5","","","",""
"598","89","poldrack-single-stim","107","218773","0.0-28.0","sub-04_ses-01_1","","2136","0","stim","","<div class = upperbox><div class = ""center-text"" >Amplitude</div></div><div class = lowerbox><div class = ""stim-text"" style=color:#1F45FC;>1</div>","89,71","1000","test","Amplitude","#1F45FC","1","magnitude","stay","stay","5","true","89","",""
"","","call-function","108","218774","0.0-29.0","sub-04_ses-01_1","","","","set_stims","","","","","","","","","","","","","","","",""
"-1","-1","poldrack-single-stim","109","218895","0.0-30.0","sub-04_ses-01_1","","100","0","cue","","<div class = upperbox><div class = ""center-text"" >Haut-Bas</div></div><div class = lowerbox><div class = fixation>+</div></div>","none","100","test","Haut-Bas","orange","9","magnitude","stay","switch","6","","","",""
"842","71","poldrack-single-stim","110","220912","0.0-31.0","sub-04_ses-01_1","","2000","0","stim","","<div class = upperbox><div class = ""center-text"" >Haut-Bas</div></div><div class = lowerbox><div class = ""stim-text"" style=color:orange;>9</div>","89,71","1000","test","Haut-Bas","orange","9","magnitude","stay","switch","6","true","71","",""
"","","call-function","111","220914","0.0-32.0","sub-04_ses-01_1","","","","set_stims","","","","","","","","","","","","","","","",""
"-1","-1","poldrack-single-stim","112","221833","0.0-33.0","sub-04_ses-01_1","","900","0","cue","","<div class = upperbox><div class = ""center-text"" >Amplitude</div></div><div class = lowerbox><div class = fixation>+</div></div>","none","900","test","Amplitude","#1F45FC","7","magnitude","stay","switch","7","","","",""
"523","71","poldrack-single-stim","113","223853","0.0-34.0","sub-04_ses-01_1","","2000","0","stim","","<div class = upperbox><div class = ""center-text"" >Amplitude</div></div><div class = lowerbox><div class = ""stim-text"" style=color:#1F45FC;>7</div>","89,71","1000","test","Amplitude","#1F45FC","7","magnitude","stay","switch","7","true","71","",""
"","","call-function","114","223854","0.0-35.0","sub-04_ses-01_1","","","","set_stims","","","","","","","","","","","","","","","",""
"-1","-1","poldrack-single-stim","115","224773","0.0-36.0","sub-04_ses-01_1","","900","0","cue","","<div class = upperbox><div class = ""center-text"" >Orange-Bleu</div></div><div class = lowerbox><div class = fixation>+</div></div>","none","900","test","Orange-Bleu","orange","4","color","switch","stay","8","","","",""
"487","89","poldrack-single-stim","116","227052","0.0-37.0","sub-04_ses-01_1","","2272","0","stim","","<div class = upperbox><div class = ""center-text"" >Orange-Bleu</div></div><div class = lowerbox><div class = ""stim-text"" style=color:orange;>4</div>","89,71","1000","test","Orange-Bleu","orange","4","color","switch","stay","8","true","89","",""
"","","call-function","117","227053","0.0-38.0","sub-04_ses-01_1","","","","set_stims","","","","","","","","","","","","","","","",""
"-1","-1","poldrack-single-stim","118","227173","0.0-39.0","sub-04_ses-01_1","","100","0","cue","","<div class = upperbox><div class = ""center-text"" >Amplitude</div></div><div class = lowerbox><div class = fixation>+</div></div>","none","100","test","Amplitude","#1F45FC","6","magnitude","switch","switch","9","","","",""
"776","71","poldrack-single-stim","119","229593","0.0-40.0","sub-04_ses-01_1","","2408","0","stim","","<div class = upperbox><div class = ""center-text"" >Amplitude</div></div><div class = lowerbox><div class = ""stim-text"" style=color:#1F45FC;>6</div>","89,71","1000","test","Amplitude","#1F45FC","6","magnitude","switch","switch","9","true","71","",""
"","","call-function","120","229594","0.0-41.0","sub-04_ses-01_1","","","","set_stims","","","","","","","","","","","","","","","",""
"-1","-1","poldrack-single-stim","121","230513","0.0-42.0","sub-04_ses-01_1","","900","0","cue","","<div class = upperbox><div class = ""center-text"" >Orange-Bleu</div></div><div class = lowerbox><div class = fixation>+</div></div>","none","900","test","Orange-Bleu","#1F45FC","2","color","switch","stay","10","","","",""
"494","71","poldrack-single-stim","122","232533","0.0-43.0","sub-04_ses-01_1","","2000","0","stim","","<div class = upperbox><div class = ""center-text"" >Orange-Bleu</div></div><div class = lowerbox><div class = ""stim-text"" style=color:#1F45FC;>2</div>","89,71","1000","test","Orange-Bleu","#1F45FC","2","color","switch","stay","10","true","71","",""
"","","call-function","123","232535","0.0-44.0","sub-04_ses-01_1","","","","set_stims","","","","","","","","","","","","","","","",""
"-1","-1","poldrack-single-stim","124","232643","0.0-45.0","sub-04_ses-01_1","","100","0","cue","","<div class = upperbox><div class = ""center-text"" >Couleur</div></div><div class = lowerbox><div class = fixation>+</div></div>","none","100","test","Couleur","orange","3","color","stay","switch","11","","","",""
"763","89","poldrack-single-stim","125","234792","0.0-46.0","sub-04_ses-01_1","","2136","0","stim","","<div class = upperbox><div class = ""center-text"" >Couleur</div></div><div class = lowerbox><div class = ""stim-text"" style=color:orange;>3</div>","89,71","1000","test","Couleur","orange","3","color","stay","switch","11","true","89","",""
"","","call-function","126","234794","0.0-47.0","sub-04_ses-01_1","","","","set_stims","","","","","","","","","","","","","","","",""
"-1","-1","poldrack-single-stim","127","235712","0.0-48.0","sub-04_ses-01_1","","900","0","cue","","<div class = upperbox><div class = ""center-text"" >Haut-Bas</div></div><div class = lowerbox><div class = fixation>+</div></div>","none","900","test","Haut-Bas","orange","2","magnitude","switch","switch","12","","","",""
"452","89","poldrack-single-stim","128","237733","0.0-49.0","sub-04_ses-01_1","","2000","0","stim","","<div class = upperbox><div class = ""center-text"" >Haut-Bas</div></div><div class = lowerbox><div class = ""stim-text"" style=color:orange;>2</div>","89,71","1000","test","Haut-Bas","orange","2","magnitude","switch","switch","12","true","89","",""
"","","call-function","129","237733","0.0-50.0","sub-04_ses-01_1","","","","set_stims","","","","","","","","","","","","","","","",""
"-1","-1","poldrack-single-stim","130","238653","0.0-51.0","sub-04_ses-01_1","","900","0","cue","","<div class = upperbox><div class = ""center-text"" >Couleur</div></div><div class = lowerbox><div class = fixation>+</div></div>","none","900","test","Couleur","orange","4","color","switch","stay","13","","","",""
"460","89","poldrack-single-stim","131","241071","0.0-52.0","sub-04_ses-01_1","","2408","0","stim","","<div class = upperbox><div class = ""center-text"" >Couleur</div></div><div class = lowerbox><div class = ""stim-text"" style=color:orange;>4</div>","89,71","1000","test","Couleur","orange","4","color","switch","stay","13","true","89","",""
"","","call-function","132","241073","0.0-53.0","sub-04_ses-01_1","","","","set_stims","","","","","","","","","","","","","","","",""
"-1","-1","poldrack-single-stim","133","241193","0.0-54.0","sub-04_ses-01_1","","100","0","cue","","<div class = upperbox><div class = ""center-text"" >Orange-Bleu</div></div><div class = lowerbox><div class = fixation>+</div></div>","none","100","test","Orange-Bleu","orange","1","color","stay","switch","14","","","",""
"707","89","poldrack-single-stim","134","243472","0.0-55.0","sub-04_ses-01_1","","2272","0","stim","","<div class = upperbox><div class = ""center-text"" >Orange-Bleu</div></div><div class = lowerbox><div class = ""stim-text"" style=color:orange;>1</div>","89,71","1000","test","Orange-Bleu","orange","1","color","stay","switch","14","true","89","",""
"","","call-function","135","243473","0.0-56.0","sub-04_ses-01_1","","","","set_stims","","","","","","","","","","","","","","","",""
"-1","-1","poldrack-single-stim","136","244393","0.0-57.0","sub-04_ses-01_1","","900","0","cue","","<div class = upperbox><div class = ""center-text"" >Haut-Bas</div></div><div class = lowerbox><div class = fixation>+</div></div>","none","900","test","Haut-Bas","#1F45FC","8","magnitude","switch","stay","15","","","",""
"481","71","poldrack-single-stim","137","246412","0.0-58.0","sub-04_ses-01_1","","2000","0","stim","","<div class = upperbox><div class = ""center-text"" >Haut-Bas</div></div><div class = lowerbox><div class = ""stim-text"" style=color:#1F45FC;>8</div>","89,71","1000","test","Haut-Bas","#1F45FC","8","magnitude","switch","stay","15","true","71","",""
"","","call-function","138","246412","0.0-59.0","sub-04_ses-01_1","","","","set_stims","","","","","","","","","","","","","","","",""
"-1","-1","poldrack-single-stim","139","247324","0.0-60.0","sub-04_ses-01_1","","900","0","cue","","<div class = upperbox><div class = ""center-text"" >Amplitude</div></div><div class = lowerbox><div class = fixation>+</div></div>","none","900","test","Amplitude","orange","9","magnitude","stay","switch","16","","","",""
"537","71","poldrack-single-stim","140","249602","0.0-61.0","sub-04_ses-01_1","","2272","0","stim","","<div class = upperbox><div class = ""center-text"" >Amplitude</div></div><div class = lowerbox><div class = ""stim-text"" style=color:orange;>9</div>","89,71","1000","test","Amplitude","orange","9","magnitude","stay","switch","16","true","71","",""
"","","call-function","141","249603","0.0-62.0","sub-04_ses-01_1","","","","set_stims","","","","","","","","","","","","","","","",""
"-1","-1","poldrack-single-stim","142","249722","0.0-63.0","sub-04_ses-01_1","","100","0","cue","","<div class = upperbox><div class = ""center-text"" >Orange-Bleu</div></div><div class = lowerbox><div class = fixation>+</div></div>","none","100","test","Orange-Bleu","orange","6","color","switch","switch","17","","","",""
"944","89","poldrack-single-stim","143","251742","0.0-64.0","sub-04_ses-01_1","","2000","0","stim","","<div class = upperbox><div class = ""center-text"" >Orange-Bleu</div></div><div class = lowerbox><div class = ""stim-text"" style=color:orange;>6</div>","89,71","1000","test","Orange-Bleu","orange","6","color","switch","switch","17","true","89","",""
"","","call-function","144","251742","0.0-65.0","sub-04_ses-01_1","","","","set_stims","","","","","","","","","","","","","","","",""
"-1","-1","poldrack-single-stim","145","251862","0.0-66.0","sub-04_ses-01_1","","100","0","cue","","<div class = upperbox><div class = ""center-text"" >Haut-Bas</div></div><div class = lowerbox><div class = fixation>+</div></div>","none","100","test","Haut-Bas","orange","7","magnitude","switch","stay","18","","","",""
"1171","71","poldrack-single-stim","146","253882","0.0-67.0","sub-04_ses-01_1","","2000","0","stim","","<div class = upperbox><div class = ""center-text"" >Haut-Bas</div></div><div class = lowerbox><div class = ""stim-text"" style=color:orange;>7</div>","89,71","1000","test","Haut-Bas","orange","7","magnitude","switch","stay","18","true","71","",""
"","","call-function","147","253884","0.0-68.0","sub-04_ses-01_1","","","","set_stims","","","","","","","","","","","","","","","",""
"-1","-1","poldrack-single-stim","148","254002","0.0-69.0","sub-04_ses-01_1","","100","0","cue","","<div class = upperbox><div class = ""center-text"" >Haut-Bas</div></div><div class = lowerbox><div class = fixation>+</div></div>","none","100","test","Haut-Bas","orange","3","magnitude","stay","stay","19","","","",""
"846","89","poldrack-single-stim","149","256282","0.0-70.0","sub-04_ses-01_1","","2272","0","stim","","<div class = upperbox><div class = ""center-text"" >Haut-Bas</div></div><div class = lowerbox><div class = ""stim-text"" style=color:orange;>3</div>","89,71","1000","test","Haut-Bas","orange","3","magnitude","stay","stay","19","true","89","",""
"","","call-function","150","256282","0.0-71.0","sub-04_ses-01_1","","","","set_stims","","","","","","","","","","","","","","","",""
"-1","-1","poldrack-single-stim","151","257193","0.0-72.0","sub-04_ses-01_1","","900","0","cue","","<div class = upperbox><div class = ""center-text"" >Couleur</div></div><div class = lowerbox><div class = fixation>+</div></div>","none","900","test","Couleur","orange","1","color","switch","switch","20","","","",""
"480","89","poldrack-single-stim","152","259342","0.0-73.0","sub-04_ses-01_1","","2136","0","stim","","<div class = upperbox><div class = ""center-text"" >Couleur</div></div><div class = lowerbox><div class = ""stim-text"" style=color:orange;>1</div>","89,71","1000","test","Couleur","orange","1","color","switch","switch","20","true","89","",""
"","","call-function","153","259344","0.0-74.0","sub-04_ses-01_1","","","","set_stims","","","","","","","","","","","","","","","",""
"-1","-1","poldrack-single-stim","154","260264","0.0-75.0","sub-04_ses-01_1","","900","0","cue","","<div class = upperbox><div class = ""center-text"" >Amplitude</div></div><div class = lowerbox><div class = fixation>+</div></div>","none","900","test","Amplitude","orange","6","magnitude","switch","stay","21","","","",""
"535","71","poldrack-single-stim","155","262283","0.0-76.0","sub-04_ses-01_1","","2000","0","stim","","<div class = upperbox><div class = ""center-text"" >Amplitude</div></div><div class = lowerbox><div class = ""stim-text"" style=color:orange;>6</div>","89,71","1000","test","Amplitude","orange","6","magnitude","switch","stay","21","true","71","",""
"","","call-function","156","262285","0.0-77.0","sub-04_ses-01_1","","","","set_stims","","","","","","","","","","","","","","","",""
"-1","-1","poldrack-single-stim","157","262402","0.0-78.0","sub-04_ses-01_1","","100","0","cue","","<div class = upperbox><div class = ""center-text"" >Amplitude</div></div><div class = lowerbox><div class = fixation>+</div></div>","none","100","test","Amplitude","orange","7","magnitude","stay","stay","22","","","",""
"686","71","poldrack-single-stim","158","264423","0.0-79.0","sub-04_ses-01_1","","2000","0","stim","","<div class = upperbox><div class = ""center-text"" >Amplitude</div></div><div class = lowerbox><div class = ""stim-text"" style=color:orange;>7</div>","89,71","1000","test","Amplitude","orange","7","magnitude","stay","stay","22","true","71","",""
"","","call-function","159","264423","0.0-80.0","sub-04_ses-01_1","","","","set_stims","","","","","","","","","","","","","","","",""
"-1","-1","poldrack-single-stim","160","265344","0.0-81.0","sub-04_ses-01_1","","900","0","cue","","<div class = upperbox><div class = ""center-text"" >Orange-Bleu</div></div><div class = lowerbox><div class = fixation>+</div></div>","none","900","test","Orange-Bleu","orange","7","color","switch","stay","23","","","",""
"501","89","poldrack-single-stim","161","267402","0.0-82.0","sub-04_ses-01_1","","2000","0","stim","","<div class = upperbox><div class = ""center-text"" >Orange-Bleu</div></div><div class = lowerbox><div class = ""stim-text"" style=color:orange;>7</div>","89,71","1000","test","Orange-Bleu","orange","7","color","switch","stay","23","true","89","",""
"","","call-function","162","267403","0.0-83.0","sub-04_ses-01_1","","","","set_stims","","","","","","","","","","","","","","","",""
"-1","-1","poldrack-single-stim","163","268313","0.0-84.0","sub-04_ses-01_1","","900","0","cue","","<div class = upperbox><div class = ""center-text"" >Couleur</div></div><div class = lowerbox><div class = fixation>+</div></div>","none","900","test","Couleur","orange","2","color","stay","switch","24","","","",""
"447","89","poldrack-single-stim","164","270331","0.0-85.0","sub-04_ses-01_1","","2000","0","stim","","<div class = upperbox><div class = ""center-text"" >Couleur</div></div><div class = lowerbox><div class = ""stim-text"" style=color:orange;>2</div>","89,71","1000","test","Couleur","orange","2","color","stay","switch","24","true","89","",""
"","","call-function","165","270333","0.0-86.0","sub-04_ses-01_1","","","","set_stims","","","","","","","","","","","","","","","",""
"-1","-1","poldrack-single-stim","166","270453","0.0-87.0","sub-04_ses-01_1","","100","0","cue","","<div class = upperbox><div class = ""center-text"" >Couleur</div></div><div class = lowerbox><div class = fixation>+</div></div>","none","100","test","Couleur","#1F45FC","7","color","stay","stay","25","","","",""
"688","71","poldrack-single-stim","167","272473","0.0-88.0","sub-04_ses-01_1","","2000","0","stim","","<div class = upperbox><div class = ""center-text"" >Couleur</div></div><div class = lowerbox><div class = ""stim-text"" style=color:#1F45FC;>7</div>","89,71","1000","test","Couleur","#1F45FC","7","color","stay","stay","25","true","71","",""
"","","call-function","168","272474","0.0-89.0","sub-04_ses-01_1","","","","set_stims","","","","","","","","","","","","","","","",""
"-1","-1","poldrack-single-stim","169","272592","0.0-90.0","sub-04_ses-01_1","","100","0","cue","","<div class = upperbox><div class = ""center-text"" >Amplitude</div></div><div class = lowerbox><div class = fixation>+</div></div>","none","100","test","Amplitude","orange","3","magnitude","switch","switch","26","","","",""
"777","89","poldrack-single-stim","170","274733","0.0-91.0","sub-04_ses-01_1","","2136","0","stim","","<div class = upperbox><div class = ""center-text"" >Amplitude</div></div><div class = lowerbox><div class = ""stim-text"" style=color:orange;>3</div>","89,71","1000","test","Amplitude","orange","3","magnitude","switch","switch","26","true","89","",""
"","","call-function","171","274734","0.0-92.0","sub-04_ses-01_1","","","","set_stims","","","","","","","","","","","","","","","",""
"-1","-1","poldrack-single-stim","172","274852","0.0-93.0","sub-04_ses-01_1","","100","0","cue","","<div class = upperbox><div class = ""center-text"" >Amplitude</div></div><div class = lowerbox><div class = fixation>+</div></div>","none","100","test","Amplitude","#1F45FC","2","magnitude","stay","stay","27","","","",""
"595","89","poldrack-single-stim","173","276872","0.0-94.0","sub-04_ses-01_1","","2000","0","stim","","<div class = upperbox><div class = ""center-text"" >Amplitude</div></div><div class = lowerbox><div class = ""stim-text"" style=color:#1F45FC;>2</div>","89,71","1000","test","Amplitude","#1F45FC","2","magnitude","stay","stay","27","true","89","",""
"","","call-function","174","276872","0.0-95.0","sub-04_ses-01_1","","","","set_stims","","","","","","","","","","","","","","","",""
"-1","-1","poldrack-single-stim","175","277792","0.0-96.0","sub-04_ses-01_1","","900","0","cue","","<div class = upperbox><div class = ""center-text"" >Orange-Bleu</div></div><div class = lowerbox><div class = fixation>+</div></div>","none","900","test","Orange-Bleu","orange","2","color","switch","stay","28","","","",""
"488","89","poldrack-single-stim","176","279802","0.0-97.0","sub-04_ses-01_1","","2000","0","stim","","<div class = upperbox><div class = ""center-text"" >Orange-Bleu</div></div><div class = lowerbox><div class = ""stim-text"" style=color:orange;>2</div>","89,71","1000","test","Orange-Bleu","orange","2","color","switch","stay","28","true","89","",""
"","","call-function","177","279803","0.0-98.0","sub-04_ses-01_1","","","","set_stims","","","","","","","","","","","","","","","",""
"-1","-1","poldrack-single-stim","178","280723","0.0-99.0","sub-04_ses-01_1","","900","0","cue","","<div class = upperbox><div class = ""center-text"" >Couleur</div></div><div class = lowerbox><div class = fixation>+</div></div>","none","900","test","Couleur","orange","9","color","stay","switch","29","","","",""
"470","89","poldrack-single-stim","179","282863","0.0-100.0","sub-04_ses-01_1","","2136","0","stim","","<div class = upperbox><div class = ""center-text"" >Couleur</div></div><div class = lowerbox><div class = ""stim-text"" style=color:orange;>9</div>","89,71","1000","test","Couleur","orange","9","color","stay","switch","29","true","89","",""
"","","call-function","180","282863","0.0-101.0","sub-04_ses-01_1","","","","set_stims","","","","","","","","","","","","","","","",""
"-1","-1","poldrack-single-stim","181","282982","0.0-102.0","sub-04_ses-01_1","","100","0","cue","","<div class = upperbox><div class = ""center-text"" >Orange-Bleu</div></div><div class = lowerbox><div class = fixation>+</div></div>","none","100","test","Orange-Bleu","#1F45FC","1","color","stay","switch","30","","","",""
"626","71","poldrack-single-stim","182","285003","0.0-103.0","sub-04_ses-01_1","","2000","0","stim","","<div class = upperbox><div class = ""center-text"" >Orange-Bleu</div></div><div class = lowerbox><div class = ""stim-text"" style=color:#1F45FC;>1</div>","89,71","1000","test","Orange-Bleu","#1F45FC","1","color","stay","switch","30","true","71","",""
"","","call-function","183","285003","0.0-104.0","sub-04_ses-01_1","","","","set_stims","","","","","","","","","","","","","","","",""
"-1","-1","poldrack-single-stim","184","285924","0.0-105.0","sub-04_ses-01_1","","900","0","cue","","<div class = upperbox><div class = ""center-text"" >Amplitude</div></div><div class = lowerbox><div class = fixation>+</div></div>","none","900","test","Amplitude","orange","6","magnitude","switch","stay","31","","","",""
"655","71","poldrack-single-stim","185","288082","0.0-106.0","sub-04_ses-01_1","","2136","0","stim","","<div class = upperbox><div class = ""center-text"" >Amplitude</div></div><div class = lowerbox><div class = ""stim-text"" style=color:orange;>6</div>","89,71","1000","test","Amplitude","orange","6","magnitude","switch","stay","31","true","71","",""
"","","call-function","186","288084","0.0-107.0","sub-04_ses-01_1","","","","set_stims","","","","","","","","","","","","","","","",""
"-1","-1","poldrack-single-stim","187","289004","0.0-108.0","sub-04_ses-01_1","","900","0","cue","","<div class = upperbox><div class = ""center-text"" >Orange-Bleu</div></div><div class = lowerbox><div class = fixation>+</div></div>","none","900","test","Orange-Bleu","orange","9","color","switch","stay","32","","","",""
"492","89","poldrack-single-stim","188","291704","0.0-109.0","sub-04_ses-01_1","","2680","0","stim","","<div class = upperbox><div class = ""center-text"" >Orange-Bleu</div></div><div class = lowerbox><div class = ""stim-text"" style=color:orange;>9</div>","89,71","1000","test","Orange-Bleu","orange","9","color","switch","stay","32","true","89","",""
"","","call-function","189","291706","0.0-110.0","sub-04_ses-01_1","","","","set_stims","","","","","","","","","","","","","","","",""
"-1","-1","poldrack-single-stim","190","292614","0.0-111.0","sub-04_ses-01_1","","900","0","cue","","<div class = upperbox><div class = ""center-text"" >Orange-Bleu</div></div><div class = lowerbox><div class = fixation>+</div></div>","none","900","test","Orange-Bleu","orange","7","color","stay","stay","33","","","",""
"526","89","poldrack-single-stim","191","294892","0.0-112.0","sub-04_ses-01_1","","2272","0","stim","","<div class = upperbox><div class = ""center-text"" >Orange-Bleu</div></div><div class = lowerbox><div class = ""stim-text"" style=color:orange;>7</div>","89,71","1000","test","Orange-Bleu","orange","7","color","stay","stay","33","true","89","",""
"","","call-function","192","294894","0.0-113.0","sub-04_ses-01_1","","","","set_stims","","","","","","","","","","","","","","","",""
"-1","-1","poldrack-single-stim","193","295012","0.0-114.0","sub-04_ses-01_1","","100","0","cue","","<div class = upperbox><div class = ""center-text"" >Orange-Bleu</div></div><div class = lowerbox><div class = fixation>+</div></div>","none","100","test","Orange-Bleu","#1F45FC","2","color","stay","stay","34","","","",""
"812","71","poldrack-single-stim","194","297153","0.0-115.0","sub-04_ses-01_1","","2136","0","stim","","<div class = upperbox><div class = ""center-text"" >Orange-Bleu</div></div><div class = lowerbox><div class = ""stim-text"" style=color:#1F45FC;>2</div>","89,71","1000","test","Orange-Bleu","#1F45FC","2","color","stay","stay","34","true","71","",""
"","","call-function","195","297153","0.0-116.0","sub-04_ses-01_1","","","","set_stims","","","","","","","","","","","","","","","",""
"-1","-1","poldrack-single-stim","196","297272","0.0-117.0","sub-04_ses-01_1","","100","0","cue","","<div class = upperbox><div class = ""center-text"" >Amplitude</div></div><div class = lowerbox><div class = fixation>+</div></div>","none","100","test","Amplitude","orange","9","magnitude","switch","stay","35","","","",""
"851","71","poldrack-single-stim","197","299293","0.0-118.0","sub-04_ses-01_1","","2000","0","stim","","<div class = upperbox><div class = ""center-text"" >Amplitude</div></div><div class = lowerbox><div class = ""stim-text"" style=color:orange;>9</div>","89,71","1000","test","Amplitude","orange","9","magnitude","switch","stay","35","true","71","",""
"","","call-function","198","299293","0.0-119.0","sub-04_ses-01_1","","","","set_stims","","","","","","","","","","","","","","","",""
"-1","-1","poldrack-single-stim","199","300213","0.0-120.0","sub-04_ses-01_1","","900","0","cue","","<div class = upperbox><div class = ""center-text"" >Couleur</div></div><div class = lowerbox><div class = fixation>+</div></div>","none","900","test","Couleur","orange","4","color","switch","switch","36","","","",""
"515","89","poldrack-single-stim","200","302362","0.0-121.0","sub-04_ses-01_1","","2136","0","stim","","<div class = upperbox><div class = ""center-text"" >Couleur</div></div><div class = lowerbox><div class = ""stim-text"" style=color:orange;>4</div>","89,71","1000","test","Couleur","orange","4","color","switch","switch","36","true","89","",""
"","","call-function","201","302364","0.0-122.0","sub-04_ses-01_1","","","","set_stims","","","","","","","","","","","","","","","",""
"-1","-1","poldrack-single-stim","202","302482","0.0-123.0","sub-04_ses-01_1","","100","0","cue","","<div class = upperbox><div class = ""center-text"" >Haut-Bas</div></div><div class = lowerbox><div class = fixation>+</div></div>","none","100","test","Haut-Bas","orange","1","magnitude","switch","switch","37","","","",""
"641","89","poldrack-single-stim","203","305182","0.0-124.0","sub-04_ses-01_1","","2680","0","stim","","<div class = upperbox><div class = ""center-text"" >Haut-Bas</div></div><div class = lowerbox><div class = ""stim-text"" style=color:orange;>1</div>","89,71","1000","test","Haut-Bas","orange","1","magnitude","switch","switch","37","true","89","",""
"","","call-function","204","305184","0.0-125.0","sub-04_ses-01_1","","","","set_stims","","","","","","","","","","","","","","","",""
"-1","-1","poldrack-single-stim","205","305308","0.0-126.0","sub-04_ses-01_1","","100","0","cue","","<div class = upperbox><div class = ""center-text"" >Couleur</div></div><div class = lowerbox><div class = fixation>+</div></div>","none","100","test","Couleur","#1F45FC","3","color","switch","switch","38","","","",""
"981","71","poldrack-single-stim","206","307602","0.0-127.0","sub-04_ses-01_1","","2272","0","stim","","<div class = upperbox><div class = ""center-text"" >Couleur</div></div><div class = lowerbox><div class = ""stim-text"" style=color:#1F45FC;>3</div>","89,71","1000","test","Couleur","#1F45FC","3","color","switch","switch","38","true","71","",""
"","","call-function","207","307603","0.0-128.0","sub-04_ses-01_1","","","","set_stims","","","","","","","","","","","","","","","",""
"-1","-1","poldrack-single-stim","208","307723","0.0-129.0","sub-04_ses-01_1","","100","0","cue","","<div class = upperbox><div class = ""center-text"" >Orange-Bleu</div></div><div class = lowerbox><div class = fixation>+</div></div>","none","100","test","Orange-Bleu","orange","2","color","stay","switch","39","","","",""
"722","89","poldrack-single-stim","209","309743","0.0-130.0","sub-04_ses-01_1","","2000","0","stim","","<div class = upperbox><div class = ""center-text"" >Orange-Bleu</div></div><div class = lowerbox><div class = ""stim-text"" style=color:orange;>2</div>","89,71","1000","test","Orange-Bleu","orange","2","color","stay","switch","39","true","89","",""
"","","call-function","210","309744","0.0-131.0","sub-04_ses-01_1","","","","set_stims","","","","","","","","","","","","","","","",""
"-1","-1","poldrack-single-stim","211","310663","0.0-132.0","sub-04_ses-01_1","","900","0","cue","","<div class = upperbox><div class = ""center-text"" >Amplitude</div></div><div class = lowerbox><div class = fixation>+</div></div>","none","900","test","Amplitude","orange","7","magnitude","switch","stay","40","","","",""
"424","71","poldrack-single-stim","212","312673","0.0-133.0","sub-04_ses-01_1","","2000","0","stim","","<div class = upperbox><div class = ""center-text"" >Amplitude</div></div><div class = lowerbox><div class = ""stim-text"" style=color:orange;>7</div>","89,71","1000","test","Amplitude","orange","7","magnitude","switch","stay","40","true","71","",""
"","","call-function","213","312674","0.0-134.0","sub-04_ses-01_1","","","","set_stims","","","","","","","","","","","","","","","",""
"-1","-1","poldrack-single-stim","214","313593","0.0-135.0","sub-04_ses-01_1","","900","0","cue","","<div class = upperbox><div class = ""center-text"" >Amplitude</div></div><div class = lowerbox><div class = fixation>+</div></div>","none","900","test","Amplitude","orange","1","magnitude","stay","stay","41","","","",""
"454","89","poldrack-single-stim","215","315742","0.0-136.0","sub-04_ses-01_1","","2136","0","stim","","<div class = upperbox><div class = ""center-text"" >Amplitude</div></div><div class = lowerbox><div class = ""stim-text"" style=color:orange;>1</div>","89,71","1000","test","Amplitude","orange","1","magnitude","stay","stay","41","true","89","",""
"","","call-function","216","315742","0.0-137.0","sub-04_ses-01_1","","","","set_stims","","","","","","","","","","","","","","","",""
"-1","-1","poldrack-single-stim","217","315862","0.0-138.0","sub-04_ses-01_1","","100","0","cue","","<div class = upperbox><div class = ""center-text"" >Amplitude</div></div><div class = lowerbox><div class = fixation>+</div></div>","none","100","test","Amplitude","#1F45FC","3","magnitude","stay","stay","42","","","",""
"1250","89","poldrack-single-stim","218","317882","0.0-139.0","sub-04_ses-01_1","","2000","0","stim","","<div class = upperbox><div class = ""center-text"" >Amplitude</div></div><div class = lowerbox><div class = ""stim-text"" style=color:#1F45FC;>3</div>","89,71","1000","test","Amplitude","#1F45FC","3","magnitude","stay","stay","42","true","89","",""
"","","call-function","219","317884","0.0-140.0","sub-04_ses-01_1","","","","set_stims","","","","","","","","","","","","","","","",""
"-1","-1","poldrack-single-stim","220","318004","0.0-141.0","sub-04_ses-01_1","","100","0","cue","","<div class = upperbox><div class = ""center-text"" >Amplitude</div></div><div class = lowerbox><div class = fixation>+</div></div>","none","100","test","Amplitude","#1F45FC","9","magnitude","stay","stay","43","","","",""
"632","71","poldrack-single-stim","221","320023","0.0-142.0","sub-04_ses-01_1","","2000","0","stim","","<div class = upperbox><div class = ""center-text"" >Amplitude</div></div><div class = lowerbox><div class = ""stim-text"" style=color:#1F45FC;>9</div>","89,71","1000","test","Amplitude","#1F45FC","9","magnitude","stay","stay","43","true","71","",""
"","","call-function","222","320023","0.0-143.0","sub-04_ses-01_1","","","","set_stims","","","","","","","","","","","","","","","",""
"-1","-1","poldrack-single-stim","223","320943","0.0-144.0","sub-04_ses-01_1","","900","0","cue","","<div class = upperbox><div class = ""center-text"" >Haut-Bas</div></div><div class = lowerbox><div class = fixation>+</div></div>","none","900","test","Haut-Bas","orange","3","magnitude","stay","switch","44","","","",""
"522","89","poldrack-single-stim","224","322963","0.0-145.0","sub-04_ses-01_1","","2000","0","stim","","<div class = upperbox><div class = ""center-text"" >Haut-Bas</div></div><div class = lowerbox><div class = ""stim-text"" style=color:orange;>3</div>","89,71","1000","test","Haut-Bas","orange","3","magnitude","stay","switch","44","true","89","",""
"","","call-function","225","322963","0.0-146.0","sub-04_ses-01_1","","","","set_stims","","","","","","","","","","","","","","","",""
"-1","-1","poldrack-single-stim","226","323083","0.0-147.0","sub-04_ses-01_1","","100","0","cue","","<div class = upperbox><div class = ""center-text"" >Orange-Bleu</div></div><div class = lowerbox><div class = fixation>+</div></div>","none","100","test","Orange-Bleu","#1F45FC","7","color","switch","switch","45","","","",""
"833","71","poldrack-single-stim","227","325366","0.0-148.0","sub-04_ses-01_1","","2272","0","stim","","<div class = upperbox><div class = ""center-text"" >Orange-Bleu</div></div><div class = lowerbox><div class = ""stim-text"" style=color:#1F45FC;>7</div>","89,71","1000","test","Orange-Bleu","#1F45FC","7","color","switch","switch","45","true","71","",""
"","","call-function","228","325367","0.0-149.0","sub-04_ses-01_1","","","","set_stims","","","","","","","","","","","","","","","",""
"-1","-1","poldrack-single-stim","229","325484","0.0-150.0","sub-04_ses-01_1","","100","0","cue","","<div class = upperbox><div class = ""center-text"" >Haut-Bas</div></div><div class = lowerbox><div class = fixation>+</div></div>","none","100","test","Haut-Bas","#1F45FC","1","magnitude","switch","stay","46","","","",""
"673","89","poldrack-single-stim","230","327902","0.0-151.0","sub-04_ses-01_1","","2408","0","stim","","<div class = upperbox><div class = ""center-text"" >Haut-Bas</div></div><div class = lowerbox><div class = ""stim-text"" style=color:#1F45FC;>1</div>","89,71","1000","test","Haut-Bas","#1F45FC","1","magnitude","switch","stay","46","true","89","",""
"","","call-function","231","327902","0.0-152.0","sub-04_ses-01_1","","","","set_stims","","","","","","","","","","","","","","","",""
"-1","-1","poldrack-single-stim","232","328023","0.0-153.0","sub-04_ses-01_1","","100","0","cue","","<div class = upperbox><div class = ""center-text"" >Haut-Bas</div></div><div class = lowerbox><div class = fixation>+</div></div>","none","100","test","Haut-Bas","orange","1","magnitude","stay","stay","47","","","",""
"548","89","poldrack-single-stim","233","330042","0.0-154.0","sub-04_ses-01_1","","2000","0","stim","","<div class = upperbox><div class = ""center-text"" >Haut-Bas</div></div><div class = lowerbox><div class = ""stim-text"" style=color:orange;>1</div>","89,71","1000","test","Haut-Bas","orange","1","magnitude","stay","stay","47","true","89","",""
"","","call-function","234","330043","0.0-155.0","sub-04_ses-01_1","","","","set_stims","","","","","","","","","","","","","","","",""
"-1","-1","poldrack-single-stim","235","330964","0.0-156.0","sub-04_ses-01_1","","900","0","cue","","<div class = upperbox><div class = ""center-text"" >Haut-Bas</div></div><div class = lowerbox><div class = fixation>+</div></div>","none","900","test","Haut-Bas","#1F45FC","4","magnitude","stay","stay","48","","","",""
"495","89","poldrack-single-stim","236","332983","0.0-157.0","sub-04_ses-01_1","","2000","0","stim","","<div class = upperbox><div class = ""center-text"" >Haut-Bas</div></div><div class = lowerbox><div class = ""stim-text"" style=color:#1F45FC;>4</div>","89,71","1000","test","Haut-Bas","#1F45FC","4","magnitude","stay","stay","48","true","89","",""
"","","call-function","237","332983","0.0-158.0","sub-04_ses-01_1","","","","set_stims","","","","","","","","","","","","","","","",""
"-1","-1","poldrack-single-stim","238","333103","0.0-159.0","sub-04_ses-01_1","","100","0","cue","","<div class = upperbox><div class = ""center-text"" >Orange-Bleu</div></div><div class = lowerbox><div class = fixation>+</div></div>","none","100","test","Orange-Bleu","orange","6","color","switch","stay","49","","","",""
"815","71","poldrack-single-stim","239","335113","0.0-160.0","sub-04_ses-01_1","","2000","0","stim","","<div class = upperbox><div class = ""center-text"" >Orange-Bleu</div></div><div class = lowerbox><div class = ""stim-text"" style=color:orange;>6</div>","89,71","1000","test","Orange-Bleu","orange","6","color","switch","stay","49","false","89","",""
"","","call-function","240","335113","0.0-161.0","sub-04_ses-01_1","","","","set_stims","","","","","","","","","","","","","","","",""
"-1","-1","poldrack-single-stim","241","336023","0.0-162.0","sub-04_ses-01_1","","900","0","cue","","<div class = upperbox><div class = ""center-text"" >Haut-Bas</div></div><div class = lowerbox><div class = fixation>+</div></div>","none","900","test","Haut-Bas","#1F45FC","6","magnitude","switch","stay","50","","","",""
"678","71","poldrack-single-stim","242","338303","0.0-163.0","sub-04_ses-01_1","","2272","0","stim","","<div class = upperbox><div class = ""center-text"" >Haut-Bas</div></div><div class = lowerbox><div class = ""stim-text"" style=color:#1F45FC;>6</div>","89,71","1000","test","Haut-Bas","#1F45FC","6","magnitude","switch","stay","50","true","71","",""
"","","call-function","243","338303","0.0-164.0","sub-04_ses-01_1","","","","set_stims","","","","","","","","","","","","","","","",""
"-1","-1","poldrack-single-stim","244","338423","0.0-165.0","sub-04_ses-01_1","","100","0","cue","","<div class = upperbox><div class = ""center-text"" >Haut-Bas</div></div><div class = lowerbox><div class = fixation>+</div></div>","none","100","test","Haut-Bas","#1F45FC","1","magnitude","stay","stay","51","","","",""
"593","89","poldrack-single-stim","245","340564","0.0-166.0","sub-04_ses-01_1","","2136","0","stim","","<div class = upperbox><div class = ""center-text"" >Haut-Bas</div></div><div class = lowerbox><div class = ""stim-text"" style=color:#1F45FC;>1</div>","89,71","1000","test","Haut-Bas","#1F45FC","1","magnitude","stay","stay","51","true","89","",""
"","","call-function","246","340565","0.0-167.0","sub-04_ses-01_1","","","","set_stims","","","","","","","","","","","","","","","",""
"-1","-1","poldrack-single-stim","247","340683","0.0-168.0","sub-04_ses-01_1","","100","0","cue","","<div class = upperbox><div class = ""center-text"" >Couleur</div></div><div class = lowerbox><div class = fixation>+</div></div>","none","100","test","Couleur","orange","6","color","switch","switch","52","","","",""
"590","89","poldrack-single-stim","248","342703","0.0-169.0","sub-04_ses-01_1","","2000","0","stim","","<div class = upperbox><div class = ""center-text"" >Couleur</div></div><div class = lowerbox><div class = ""stim-text"" style=color:orange;>6</div>","89,71","1000","test","Couleur","orange","6","color","switch","switch","52","true","89","",""
"","","call-function","249","342704","0.0-170.0","sub-04_ses-01_1","","","","set_stims","","","","","","","","","","","","","","","",""
"-1","-1","poldrack-single-stim","250","342823","0.0-171.0","sub-04_ses-01_1","","100","0","cue","","<div class = upperbox><div class = ""center-text"" >Orange-Bleu</div></div><div class = lowerbox><div class = fixation>+</div></div>","none","100","test","Orange-Bleu","orange","3","color","stay","switch","53","","","",""
"574","89","poldrack-single-stim","251","345382","0.0-172.0","sub-04_ses-01_1","","2544","0","stim","","<div class = upperbox><div class = ""center-text"" >Orange-Bleu</div></div><div class = lowerbox><div class = ""stim-text"" style=color:orange;>3</div>","89,71","1000","test","Orange-Bleu","orange","3","color","stay","switch","53","true","89","",""
"","","call-function","252","345383","0.0-173.0","sub-04_ses-01_1","","","","set_stims","","","","","","","","","","","","","","","",""
"-1","-1","poldrack-single-stim","253","346303","0.0-174.0","sub-04_ses-01_1","","900","0","cue","","<div class = upperbox><div class = ""center-text"" >Haut-Bas</div></div><div class = lowerbox><div class = fixation>+</div></div>","none","900","test","Haut-Bas","orange","3","magnitude","switch","stay","54","","","",""
"454","89","poldrack-single-stim","254","348582","0.0-175.0","sub-04_ses-01_1","","2272","0","stim","","<div class = upperbox><div class = ""center-text"" >Haut-Bas</div></div><div class = lowerbox><div class = ""stim-text"" style=color:orange;>3</div>","89,71","1000","test","Haut-Bas","orange","3","magnitude","switch","stay","54","true","89","",""
"","","call-function","255","348582","0.0-176.0","sub-04_ses-01_1","","","","set_stims","","","","","","","","","","","","","","","",""
"-1","-1","poldrack-single-stim","256","349504","0.0-177.0","sub-04_ses-01_1","","900","0","cue","","<div class = upperbox><div class = ""center-text"" >Haut-Bas</div></div><div class = lowerbox><div class = fixation>+</div></div>","none","900","test","Haut-Bas","#1F45FC","9","magnitude","stay","stay","55","","","",""
"538","71","poldrack-single-stim","257","351783","0.0-178.0","sub-04_ses-01_1","","2272","0","stim","","<div class = upperbox><div class = ""center-text"" >Haut-Bas</div></div><div class = lowerbox><div class = ""stim-text"" style=color:#1F45FC;>9</div>","89,71","1000","test","Haut-Bas","#1F45FC","9","magnitude","stay","stay","55","true","71","",""
"","","call-function","258","351784","0.0-179.0","sub-04_ses-01_1","","","","set_stims","","","","","","","","","","","","","","","",""
"-1","-1","poldrack-single-stim","259","352704","0.0-180.0","sub-04_ses-01_1","","900","0","cue","","<div class = upperbox><div class = ""center-text"" >Amplitude</div></div><div class = lowerbox><div class = fixation>+</div></div>","none","900","test","Amplitude","#1F45FC","3","magnitude","stay","switch","56","","","",""
"701","89","poldrack-single-stim","260","354722","0.0-181.0","sub-04_ses-01_1","","2000","0","stim","","<div class = upperbox><div class = ""center-text"" >Amplitude</div></div><div class = lowerbox><div class = ""stim-text"" style=color:#1F45FC;>3</div>","89,71","1000","test","Amplitude","#1F45FC","3","magnitude","stay","switch","56","true","89","",""
"","","call-function","261","354724","0.0-182.0","sub-04_ses-01_1","","","","set_stims","","","","","","","","","","","","","","","",""
"-1","-1","poldrack-single-stim","262","354843","0.0-183.0","sub-04_ses-01_1","","100","0","cue","","<div class = upperbox><div class = ""center-text"" >Amplitude</div></div><div class = lowerbox><div class = fixation>+</div></div>","none","100","test","Amplitude","#1F45FC","3","magnitude","stay","stay","57","","","",""
"627","89","poldrack-single-stim","263","356863","0.0-184.0","sub-04_ses-01_1","","2000","0","stim","","<div class = upperbox><div class = ""center-text"" >Amplitude</div></div><div class = lowerbox><div class = ""stim-text"" style=color:#1F45FC;>3</div>","89,71","1000","test","Amplitude","#1F45FC","3","magnitude","stay","stay","57","true","89","",""
"","","call-function","264","356864","0.0-185.0","sub-04_ses-01_1","","","","set_stims","","","","","","","","","","","","","","","",""
"-1","-1","poldrack-single-stim","265","356983","0.0-186.0","sub-04_ses-01_1","","100","0","cue","","<div class = upperbox><div class = ""center-text"" >Couleur</div></div><div class = lowerbox><div class = fixation>+</div></div>","none","100","test","Couleur","orange","8","color","switch","stay","58","","","",""
"799","89","poldrack-single-stim","266","359123","0.0-187.0","sub-04_ses-01_1","","2136","0","stim","","<div class = upperbox><div class = ""center-text"" >Couleur</div></div><div class = lowerbox><div class = ""stim-text"" style=color:orange;>8</div>","89,71","1000","test","Couleur","orange","8","color","switch","stay","58","true","89","",""
"","","call-function","267","359124","0.0-188.0","sub-04_ses-01_1","","","","set_stims","","","","","","","","","","","","","","","",""
"-1","-1","poldrack-single-stim","268","359233","0.0-189.0","sub-04_ses-01_1","","100","0","cue","","<div class = upperbox><div class = ""center-text"" >Amplitude</div></div><div class = lowerbox><div class = fixation>+</div></div>","none","100","test","Amplitude","#1F45FC","7","magnitude","switch","stay","59","","","",""
"753","71","poldrack-single-stim","269","361243","0.0-190.0","sub-04_ses-01_1","","2000","0","stim","","<div class = upperbox><div class = ""center-text"" >Amplitude</div></div><div class = lowerbox><div class = ""stim-text"" style=color:#1F45FC;>7</div>","89,71","1000","test","Amplitude","#1F45FC","7","magnitude","switch","stay","59","true","71","",""
"","","call-function","270","361244","0.0-191.0","sub-04_ses-01_1","","","","set_stims","","","","","","","","","","","","","","","",""
"-1","-1","poldrack-single-stim","271","361364","0.0-192.0","sub-04_ses-01_1","","100","0","cue","","<div class = upperbox><div class = ""center-text"" >Haut-Bas</div></div><div class = lowerbox><div class = fixation>+</div></div>","none","100","test","Haut-Bas","orange","1","magnitude","stay","switch","60","","","",""
"784","89","poldrack-single-stim","272","363503","0.0-193.0","sub-04_ses-01_1","","2136","0","stim","","<div class = upperbox><div class = ""center-text"" >Haut-Bas</div></div><div class = lowerbox><div class = ""stim-text"" style=color:orange;>1</div>","89,71","1000","test","Haut-Bas","orange","1","magnitude","stay","switch","60","true","89","",""
"","","call-function","273","363503","0.0-194.0","sub-04_ses-01_1","","","","set_stims","","","","","","","","","","","","","","","",""
"-1","-1","poldrack-single-stim","274","364423","0.0-195.0","sub-04_ses-01_1","","900","0","cue","","<div class = upperbox><div class = ""center-text"" >Orange-Bleu</div></div><div class = lowerbox><div class = fixation>+</div></div>","none","900","test","Orange-Bleu","#1F45FC","6","color","switch","switch","61","","","",""
"330","71","poldrack-single-stim","275","366703","0.0-196.0","sub-04_ses-01_1","","2272","0","stim","","<div class = upperbox><div class = ""center-text"" >Orange-Bleu</div></div><div class = lowerbox><div class = ""stim-text"" style=color:#1F45FC;>6</div>","89,71","1000","test","Orange-Bleu","#1F45FC","6","color","switch","switch","61","true","71","",""
"","","call-function","276","366703","0.0-197.0","sub-04_ses-01_1","","","","set_stims","","","","","","","","","","","","","","","",""
"-1","-1","poldrack-single-stim","277","367623","0.0-198.0","sub-04_ses-01_1","","900","0","cue","","<div class = upperbox><div class = ""center-text"" >Amplitude</div></div><div class = lowerbox><div class = fixation>+</div></div>","none","900","test","Amplitude","#1F45FC","8","magnitude","switch","switch","62","","","",""
"409","71","poldrack-single-stim","278","369763","0.0-199.0","sub-04_ses-01_1","","2136","0","stim","","<div class = upperbox><div class = ""center-text"" >Amplitude</div></div><div class = lowerbox><div class = ""stim-text"" style=color:#1F45FC;>8</div>","89,71","1000","test","Amplitude","#1F45FC","8","magnitude","switch","switch","62","true","71","",""
"","","call-function","279","369764","0.0-200.0","sub-04_ses-01_1","","","","set_stims","","","","","","","","","","","","","","","",""
"-1","-1","poldrack-single-stim","280","369882","0.0-201.0","sub-04_ses-01_1","","100","0","cue","","<div class = upperbox><div class = ""center-text"" >Amplitude</div></div><div class = lowerbox><div class = fixation>+</div></div>","none","100","test","Amplitude","#1F45FC","1","magnitude","stay","stay","63","","","",""
"582","89","poldrack-single-stim","281","372163","0.0-202.0","sub-04_ses-01_1","","2272","0","stim","","<div class = upperbox><div class = ""center-text"" >Amplitude</div></div><div class = lowerbox><div class = ""stim-text"" style=color:#1F45FC;>1</div>","89,71","1000","test","Amplitude","#1F45FC","1","magnitude","stay","stay","63","true","89","",""
"","","call-function","282","372164","0.0-203.0","sub-04_ses-01_1","","","","set_stims","","","","","","","","","","","","","","","",""
"-1","-1","poldrack-single-stim","283","372282","0.0-204.0","sub-04_ses-01_1","","100","0","cue","","<div class = upperbox><div class = ""center-text"" >Orange-Bleu</div></div><div class = lowerbox><div class = fixation>+</div></div>","none","100","test","Orange-Bleu","orange","6","color","switch","stay","64","","","",""
"681","89","poldrack-single-stim","284","374294","0.0-205.0","sub-04_ses-01_1","","2000","0","stim","","<div class = upperbox><div class = ""center-text"" >Orange-Bleu</div></div><div class = lowerbox><div class = ""stim-text"" style=color:orange;>6</div>","89,71","1000","test","Orange-Bleu","orange","6","color","switch","stay","64","true","89","",""
"","","call-function","285","374294","0.0-206.0","sub-04_ses-01_1","","","","set_stims","","","","","","","","","","","","","","","",""
"-1","-1","poldrack-single-stim","286","375203","0.0-207.0","sub-04_ses-01_1","","900","0","cue","","<div class = upperbox><div class = ""center-text"" >Orange-Bleu</div></div><div class = lowerbox><div class = fixation>+</div></div>","none","900","test","Orange-Bleu","orange","9","color","stay","stay","65","","","",""
"497","89","poldrack-single-stim","287","378022","0.0-208.0","sub-04_ses-01_1","","2816","0","stim","","<div class = upperbox><div class = ""center-text"" >Orange-Bleu</div></div><div class = lowerbox><div class = ""stim-text"" style=color:orange;>9</div>","89,71","1000","test","Orange-Bleu","orange","9","color","stay","stay","65","true","89","",""
"","","call-function","288","378024","0.0-209.0","sub-04_ses-01_1","","","","set_stims","","","","","","","","","","","","","","","",""
"-1","-1","poldrack-single-stim","289","378142","0.0-210.0","sub-04_ses-01_1","","100","0","cue","","<div class = upperbox><div class = ""center-text"" >Couleur</div></div><div class = lowerbox><div class = fixation>+</div></div>","none","100","test","Couleur","orange","8","color","stay","switch","66","","","",""
"853","89","poldrack-single-stim","290","380553","0.0-211.0","sub-04_ses-01_1","","2408","0","stim","","<div class = upperbox><div class = ""center-text"" >Couleur</div></div><div class = lowerbox><div class = ""stim-text"" style=color:orange;>8</div>","89,71","1000","test","Couleur","orange","8","color","stay","switch","66","true","89","",""
"","","call-function","291","380554","0.0-212.0","sub-04_ses-01_1","","","","set_stims","","","","","","","","","","","","","","","",""
"-1","-1","poldrack-single-stim","292","381474","0.0-213.0","sub-04_ses-01_1","","900","0","cue","","<div class = upperbox><div class = ""center-text"" >Couleur</div></div><div class = lowerbox><div class = fixation>+</div></div>","none","900","test","Couleur","orange","8","color","stay","stay","67","","","",""
"452","89","poldrack-single-stim","293","383492","0.0-214.0","sub-04_ses-01_1","","2000","0","stim","","<div class = upperbox><div class = ""center-text"" >Couleur</div></div><div class = lowerbox><div class = ""stim-text"" style=color:orange;>8</div>","89,71","1000","test","Couleur","orange","8","color","stay","stay","67","true","89","",""
"","","call-function","294","383493","0.0-215.0","sub-04_ses-01_1","","","","set_stims","","","","","","","","","","","","","","","",""
"-1","-1","poldrack-single-stim","295","383613","0.0-216.0","sub-04_ses-01_1","","100","0","cue","","<div class = upperbox><div class = ""center-text"" >Couleur</div></div><div class = lowerbox><div class = fixation>+</div></div>","none","100","test","Couleur","#1F45FC","2","color","stay","stay","68","","","",""
"831","71","poldrack-single-stim","296","386172","0.0-217.0","sub-04_ses-01_1","","2544","0","stim","","<div class = upperbox><div class = ""center-text"" >Couleur</div></div><div class = lowerbox><div class = ""stim-text"" style=color:#1F45FC;>2</div>","89,71","1000","test","Couleur","#1F45FC","2","color","stay","stay","68","true","71","",""
"","","call-function","297","386173","0.0-218.0","sub-04_ses-01_1","","","","set_stims","","","","","","","","","","","","","","","",""
"-1","-1","poldrack-single-stim","298","386293","0.0-219.0","sub-04_ses-01_1","","100","0","cue","","<div class = upperbox><div class = ""center-text"" >Amplitude</div></div><div class = lowerbox><div class = fixation>+</div></div>","none","100","test","Amplitude","#1F45FC","1","magnitude","switch","stay","69","","","",""
"645","89","poldrack-single-stim","299","388433","0.0-220.0","sub-04_ses-01_1","","2136","0","stim","","<div class = upperbox><div class = ""center-text"" >Amplitude</div></div><div class = lowerbox><div class = ""stim-text"" style=color:#1F45FC;>1</div>","89,71","1000","test","Amplitude","#1F45FC","1","magnitude","switch","stay","69","true","89","",""
"","","call-function","300","388433","0.0-221.0","sub-04_ses-01_1","","","","set_stims","","","","","","","","","","","","","","","",""
"-1","-1","poldrack-single-stim","301","388553","0.0-222.0","sub-04_ses-01_1","","100","0","cue","","<div class = upperbox><div class = ""center-text"" >Couleur</div></div><div class = lowerbox><div class = fixation>+</div></div>","none","100","test","Couleur","orange","7","color","switch","switch","70","","","",""
"890","89","poldrack-single-stim","302","390573","0.0-223.0","sub-04_ses-01_1","","2000","0","stim","","<div class = upperbox><div class = ""center-text"" >Couleur</div></div><div class = lowerbox><div class = ""stim-text"" style=color:orange;>7</div>","89,71","1000","test","Couleur","orange","7","color","switch","switch","70","true","89","",""
"","","call-function","303","390573","0.0-224.0","sub-04_ses-01_1","","","","set_stims","","","","","","","","","","","","","","","",""
"-1","-1","poldrack-single-stim","304","390692","0.0-225.0","sub-04_ses-01_1","","100","0","cue","","<div class = upperbox><div class = ""center-text"" >Couleur</div></div><div class = lowerbox><div class = fixation>+</div></div>","none","100","test","Couleur","#1F45FC","7","color","stay","stay","71","","","",""
"815","71","poldrack-single-stim","305","392712","0.0-226.0","sub-04_ses-01_1","","2000","0","stim","","<div class = upperbox><div class = ""center-text"" >Couleur</div></div><div class = lowerbox><div class = ""stim-text"" style=color:#1F45FC;>7</div>","89,71","1000","test","Couleur","#1F45FC","7","color","stay","stay","71","true","71","",""
"","","call-function","306","392713","0.0-227.0","sub-04_ses-01_1","","","","set_stims","","","","","","","","","","","","","","","",""
"-1","-1","poldrack-single-stim","307","393632","0.0-228.0","sub-04_ses-01_1","","900","0","cue","","<div class = upperbox><div class = ""center-text"" >Orange-Bleu</div></div><div class = lowerbox><div class = fixation>+</div></div>","none","900","test","Orange-Bleu","orange","8","color","stay","switch","72","","","",""
"422","89","poldrack-single-stim","308","395773","0.0-229.0","sub-04_ses-01_1","","2136","0","stim","","<div class = upperbox><div class = ""center-text"" >Orange-Bleu</div></div><div class = lowerbox><div class = ""stim-text"" style=color:orange;>8</div>","89,71","1000","test","Orange-Bleu","orange","8","color","stay","switch","72","true","89","",""
"","","call-function","309","395774","0.0-230.0","sub-04_ses-01_1","","","","set_stims","","","","","","","","","","","","","","","",""
"-1","-1","poldrack-single-stim","310","395893","0.0-231.0","sub-04_ses-01_1","","100","0","cue","","<div class = upperbox><div class = ""center-text"" >Orange-Bleu</div></div><div class = lowerbox><div class = fixation>+</div></div>","none","100","test","Orange-Bleu","orange","3","color","stay","stay","73","","","",""
"804","89","poldrack-single-stim","311","398033","0.0-232.0","sub-04_ses-01_1","","2136","0","stim","","<div class = upperbox><div class = ""center-text"" >Orange-Bleu</div></div><div class = lowerbox><div class = ""stim-text"" style=color:orange;>3</div>","89,71","1000","test","Orange-Bleu","orange","3","color","stay","stay","73","true","89","",""
"","","call-function","312","398033","0.0-233.0","sub-04_ses-01_1","","","","set_stims","","","","","","","","","","","","","","","",""
"-1","-1","poldrack-single-stim","313","398953","0.0-234.0","sub-04_ses-01_1","","900","0","cue","","<div class = upperbox><div class = ""center-text"" >Amplitude</div></div><div class = lowerbox><div class = fixation>+</div></div>","none","900","test","Amplitude","#1F45FC","4","magnitude","switch","stay","74","","","",""
"1028","89","poldrack-single-stim","314","401231","0.0-235.0","sub-04_ses-01_1","","2272","0","stim","","<div class = upperbox><div class = ""center-text"" >Amplitude</div></div><div class = lowerbox><div class = ""stim-text"" style=color:#1F45FC;>4</div>","89,71","1000","test","Amplitude","#1F45FC","4","magnitude","switch","stay","74","true","89","",""
"","","call-function","315","401233","0.0-236.0","sub-04_ses-01_1","","","","set_stims","","","","","","","","","","","","","","","",""
"-1","-1","poldrack-single-stim","316","402142","0.0-237.0","sub-04_ses-01_1","","900","0","cue","","<div class = upperbox><div class = ""center-text"" >Haut-Bas</div></div><div class = lowerbox><div class = fixation>+</div></div>","none","900","test","Haut-Bas","orange","7","magnitude","stay","switch","75","","","",""
"993","71","poldrack-single-stim","317","405383","0.0-238.0","sub-04_ses-01_1","","3224","0","stim","","<div class = upperbox><div class = ""center-text"" >Haut-Bas</div></div><div class = lowerbox><div class = ""stim-text"" style=color:orange;>7</div>","89,71","1000","test","Haut-Bas","orange","7","magnitude","stay","switch","75","true","71","",""
"","","call-function","318","405384","0.0-239.0","sub-04_ses-01_1","","","","set_stims","","","","","","","","","","","","","","","",""
"-1","-1","poldrack-single-stim","319","405503","0.0-240.0","sub-04_ses-01_1","","100","0","cue","","<div class = upperbox><div class = ""center-text"" >Amplitude</div></div><div class = lowerbox><div class = fixation>+</div></div>","none","100","test","Amplitude","orange","9","magnitude","stay","switch","76","","","",""
"989","89","poldrack-single-stim","320","407522","0.0-241.0","sub-04_ses-01_1","","2000","0","stim","","<div class = upperbox><div class = ""center-text"" >Amplitude</div></div><div class = lowerbox><div class = ""stim-text"" style=color:orange;>9</div>","89,71","1000","test","Amplitude","orange","9","magnitude","stay","switch","76","false","71","",""
"","","call-function","321","407523","0.0-242.0","sub-04_ses-01_1","","","","set_stims","","","","","","","","","","","","","","","",""
"-1","-1","poldrack-single-stim","322","408444","0.0-243.0","sub-04_ses-01_1","","900","0","cue","","<div class = upperbox><div class = ""center-text"" >Couleur</div></div><div class = lowerbox><div class = fixation>+</div></div>","none","900","test","Couleur","#1F45FC","1","color","switch","stay","77","","","",""
"593","71","poldrack-single-stim","323","410452","0.0-244.0","sub-04_ses-01_1","","2000","0","stim","","<div class = upperbox><div class = ""center-text"" >Couleur</div></div><div class = lowerbox><div class = ""stim-text"" style=color:#1F45FC;>1</div>","89,71","1000","test","Couleur","#1F45FC","1","color","switch","stay","77","true","71","",""
"","","call-function","324","410453","0.0-245.0","sub-04_ses-01_1","","","","set_stims","","","","","","","","","","","","","","","",""
"-1","-1","poldrack-single-stim","325","410573","0.0-246.0","sub-04_ses-01_1","","100","0","cue","","<div class = upperbox><div class = ""center-text"" >Haut-Bas</div></div><div class = lowerbox><div class = fixation>+</div></div>","none","100","test","Haut-Bas","#1F45FC","4","magnitude","switch","switch","78","","","",""
"885","89","poldrack-single-stim","326","412863","0.0-247.0","sub-04_ses-01_1","","2272","0","stim","","<div class = upperbox><div class = ""center-text"" >Haut-Bas</div></div><div class = lowerbox><div class = ""stim-text"" style=color:#1F45FC;>4</div>","89,71","1000","test","Haut-Bas","#1F45FC","4","magnitude","switch","switch","78","true","89","",""
"","","call-function","327","412864","0.0-248.0","sub-04_ses-01_1","","","","set_stims","","","","","","","","","","","","","","","",""
"-1","-1","poldrack-single-stim","328","412982","0.0-249.0","sub-04_ses-01_1","","100","0","cue","","<div class = upperbox><div class = ""center-text"" >Couleur</div></div><div class = lowerbox><div class = fixation>+</div></div>","none","100","test","Couleur","orange","8","color","switch","stay","79","","","",""
"654","89","poldrack-single-stim","329","415132","0.0-250.0","sub-04_ses-01_1","","2136","0","stim","","<div class = upperbox><div class = ""center-text"" >Couleur</div></div><div class = lowerbox><div class = ""stim-text"" style=color:orange;>8</div>","89,71","1000","test","Couleur","orange","8","color","switch","stay","79","true","89","",""
"-1","-1","poldrack-single-stim","330","425148","0.0-251.0","sub-04_ses-01_1","","10000","1000","rest_block","","<div class = centerbox><div class = center-text>+</div></div>","none","10000","","","","","","","","","","","",""
"-1","-1","poldrack-single-stim","331","427674","0.0-252.0","sub-04_ses-01_1","","1500","500","test_start_block","","<div class = centerbox><div class = center-text>Preparez-vous!</p></div>","none","1500","","","","","","","","","","","",""
"-1","-1","poldrack-single-stim","332","428713","0.0-253.0","sub-04_ses-01_1","","500","0","fixation","","<div class = upperbox><div class = fixation>+</div></div><div class = lowerbox><div class = fixation>+</div></div>","none","500","test","","","","","","","","","","",""
"","","call-function","333","428714","0.0-254.0","sub-04_ses-01_1","","","","set_stims","","","","","","","","","","","","","","","",""
"-1","-1","poldrack-single-stim","334","429635","0.0-255.0","sub-04_ses-01_1","","900","0","cue","","<div class = upperbox><div class = ""center-text"" >Amplitude</div></div><div class = lowerbox><div class = fixation>+</div></div>","none","900","test","Amplitude","#1F45FC","9","magnitude","stay","stay","0","","","",""
"388","71","poldrack-single-stim","335","431652","0.0-256.0","sub-04_ses-01_1","","2000","0","stim","","<div class = upperbox><div class = ""center-text"" >Amplitude</div></div><div class = lowerbox><div class = ""stim-text"" style=color:#1F45FC;>9</div>","89,71","1000","test","Amplitude","#1F45FC","9","magnitude","stay","stay","0","true","71","",""
"","","call-function","336","431653","0.0-257.0","sub-04_ses-01_1","","","","set_stims","","","","","","","","","","","","","","","",""
"-1","-1","poldrack-single-stim","337","432573","0.0-258.0","sub-04_ses-01_1","","900","0","cue","","<div class = upperbox><div class = ""center-text"" >Couleur</div></div><div class = lowerbox><div class = fixation>+</div></div>","none","900","test","Couleur","#1F45FC","8","color","switch","switch","1","","","",""
"362","71","poldrack-single-stim","338","434584","0.0-259.0","sub-04_ses-01_1","","2000","0","stim","","<div class = upperbox><div class = ""center-text"" >Couleur</div></div><div class = lowerbox><div class = ""stim-text"" style=color:#1F45FC;>8</div>","89,71","1000","test","Couleur","#1F45FC","8","color","switch","switch","1","true","71","",""
"","","call-function","339","434585","0.0-260.0","sub-04_ses-01_1","","","","set_stims","","","","","","","","","","","","","","","",""
"-1","-1","poldrack-single-stim","340","435493","0.0-261.0","sub-04_ses-01_1","","900","0","cue","","<div class = upperbox><div class = ""center-text"" >Haut-Bas</div></div><div class = lowerbox><div class = fixation>+</div></div>","none","900","test","Haut-Bas","orange","9","magnitude","switch","stay","2","","","",""
"743","71","poldrack-single-stim","341","437512","0.0-262.0","sub-04_ses-01_1","","2000","0","stim","","<div class = upperbox><div class = ""center-text"" >Haut-Bas</div></div><div class = lowerbox><div class = ""stim-text"" style=color:orange;>9</div>","89,71","1000","test","Haut-Bas","orange","9","magnitude","switch","stay","2","true","71","",""
"","","call-function","342","437514","0.0-263.0","sub-04_ses-01_1","","","","set_stims","","","","","","","","","","","","","","","",""
"-1","-1","poldrack-single-stim","343","437632","0.0-264.0","sub-04_ses-01_1","","100","0","cue","","<div class = upperbox><div class = ""center-text"" >Orange-Bleu</div></div><div class = lowerbox><div class = fixation>+</div></div>","none","100","test","Orange-Bleu","#1F45FC","4","color","switch","stay","3","","","",""
"961","89","poldrack-single-stim","344","440333","0.0-265.0","sub-04_ses-01_1","","2680","0","stim","","<div class = upperbox><div class = ""center-text"" >Orange-Bleu</div></div><div class = lowerbox><div class = ""stim-text"" style=color:#1F45FC;>4</div>","89,71","1000","test","Orange-Bleu","#1F45FC","4","color","switch","stay","3","false","71","",""
"","","call-function","345","440333","0.0-266.0","sub-04_ses-01_1","","","","set_stims","","","","","","","","","","","","","","","",""
"-1","-1","poldrack-single-stim","346","441254","0.0-267.0","sub-04_ses-01_1","","900","0","cue","","<div class = upperbox><div class = ""center-text"" >Haut-Bas</div></div><div class = lowerbox><div class = fixation>+</div></div>","none","900","test","Haut-Bas","orange","4","magnitude","switch","switch","4","","","",""
"621","89","poldrack-single-stim","347","443262","0.0-268.0","sub-04_ses-01_1","","2000","0","stim","","<div class = upperbox><div class = ""center-text"" >Haut-Bas</div></div><div class = lowerbox><div class = ""stim-text"" style=color:orange;>4</div>","89,71","1000","test","Haut-Bas","orange","4","magnitude","switch","switch","4","true","89","",""
"","","call-function","348","443264","0.0-269.0","sub-04_ses-01_1","","","","set_stims","","","","","","","","","","","","","","","",""
"-1","-1","poldrack-single-stim","349","444183","0.0-270.0","sub-04_ses-01_1","","900","0","cue","","<div class = upperbox><div class = ""center-text"" >Haut-Bas</div></div><div class = lowerbox><div class = fixation>+</div></div>","none","900","test","Haut-Bas","#1F45FC","1","magnitude","stay","stay","5","","","",""
"519","89","poldrack-single-stim","350","446463","0.0-271.0","sub-04_ses-01_1","","2272","0","stim","","<div class = upperbox><div class = ""center-text"" >Haut-Bas</div></div><div class = lowerbox><div class = ""stim-text"" style=color:#1F45FC;>1</div>","89,71","1000","test","Haut-Bas","#1F45FC","1","magnitude","stay","stay","5","true","89","",""
"","","call-function","351","446463","0.0-272.0","sub-04_ses-01_1","","","","set_stims","","","","","","","","","","","","","","","",""
"-1","-1","poldrack-single-stim","352","446583","0.0-273.0","sub-04_ses-01_1","","100","0","cue","","<div class = upperbox><div class = ""center-text"" >Amplitude</div></div><div class = lowerbox><div class = fixation>+</div></div>","none","100","test","Amplitude","orange","9","magnitude","stay","switch","6","","","",""
"644","71","poldrack-single-stim","353","448592","0.0-274.0","sub-04_ses-01_1","","2000","0","stim","","<div class = upperbox><div class = ""center-text"" >Amplitude</div></div><div class = lowerbox><div class = ""stim-text"" style=color:orange;>9</div>","89,71","1000","test","Amplitude","orange","9","magnitude","stay","switch","6","true","71","",""
"","","call-function","354","448594","0.0-275.0","sub-04_ses-01_1","","","","set_stims","","","","","","","","","","","","","","","",""
"-1","-1","poldrack-single-stim","355","449514","0.0-276.0","sub-04_ses-01_1","","900","0","cue","","<div class = upperbox><div class = ""center-text"" >Haut-Bas</div></div><div class = lowerbox><div class = fixation>+</div></div>","none","900","test","Haut-Bas","#1F45FC","7","magnitude","stay","switch","7","","","",""
"478","71","poldrack-single-stim","356","451792","0.0-277.0","sub-04_ses-01_1","","2272","0","stim","","<div class = upperbox><div class = ""center-text"" >Haut-Bas</div></div><div class = lowerbox><div class = ""stim-text"" style=color:#1F45FC;>7</div>","89,71","1000","test","Haut-Bas","#1F45FC","7","magnitude","stay","switch","7","true","71","",""
"","","call-function","357","451794","0.0-278.0","sub-04_ses-01_1","","","","set_stims","","","","","","","","","","","","","","","",""
"-1","-1","poldrack-single-stim","358","452713","0.0-279.0","sub-04_ses-01_1","","900","0","cue","","<div class = upperbox><div class = ""center-text"" >Orange-Bleu</div></div><div class = lowerbox><div class = fixation>+</div></div>","none","900","test","Orange-Bleu","orange","4","color","switch","stay","8","","","",""
"418","89","poldrack-single-stim","359","455673","0.0-280.0","sub-04_ses-01_1","","2952","0","stim","","<div class = upperbox><div class = ""center-text"" >Orange-Bleu</div></div><div class = lowerbox><div class = ""stim-text"" style=color:orange;>4</div>","89,71","1000","test","Orange-Bleu","orange","4","color","switch","stay","8","true","89","",""
"","","call-function","360","455673","0.0-281.0","sub-04_ses-01_1","","","","set_stims","","","","","","","","","","","","","","","",""
"-1","-1","poldrack-single-stim","361","455793","0.0-282.0","sub-04_ses-01_1","","100","0","cue","","<div class = upperbox><div class = ""center-text"" >Haut-Bas</div></div><div class = lowerbox><div class = fixation>+</div></div>","none","100","test","Haut-Bas","#1F45FC","6","magnitude","switch","switch","9","","","",""
"841","71","poldrack-single-stim","362","457813","0.0-283.0","sub-04_ses-01_1","","2000","0","stim","","<div class = upperbox><div class = ""center-text"" >Haut-Bas</div></div><div class = lowerbox><div class = ""stim-text"" style=color:#1F45FC;>6</div>","89,71","1000","test","Haut-Bas","#1F45FC","6","magnitude","switch","switch","9","true","71","",""
"","","call-function","363","457814","0.0-284.0","sub-04_ses-01_1","","","","set_stims","","","","","","","","","","","","","","","",""
"-1","-1","poldrack-single-stim","364","458723","0.0-285.0","sub-04_ses-01_1","","900","0","cue","","<div class = upperbox><div class = ""center-text"" >Couleur</div></div><div class = lowerbox><div class = fixation>+</div></div>","none","900","test","Couleur","#1F45FC","2","color","switch","stay","10","","","",""
"754","71","poldrack-single-stim","365","460743","0.0-286.0","sub-04_ses-01_1","","2000","0","stim","","<div class = upperbox><div class = ""center-text"" >Couleur</div></div><div class = lowerbox><div class = ""stim-text"" style=color:#1F45FC;>2</div>","89,71","1000","test","Couleur","#1F45FC","2","color","switch","stay","10","true","71","",""
"","","call-function","366","460744","0.0-287.0","sub-04_ses-01_1","","","","set_stims","","","","","","","","","","","","","","","",""
"-1","-1","poldrack-single-stim","367","460862","0.0-288.0","sub-04_ses-01_1","","100","0","cue","","<div class = upperbox><div class = ""center-text"" >Orange-Bleu</div></div><div class = lowerbox><div class = fixation>+</div></div>","none","100","test","Orange-Bleu","orange","3","color","stay","switch","11","","","",""
"658","89","poldrack-single-stim","368","462881","0.0-289.0","sub-04_ses-01_1","","2000","0","stim","","<div class = upperbox><div class = ""center-text"" >Orange-Bleu</div></div><div class = lowerbox><div class = ""stim-text"" style=color:orange;>3</div>","89,71","1000","test","Orange-Bleu","orange","3","color","stay","switch","11","true","89","",""
"","","call-function","369","462882","0.0-290.0","sub-04_ses-01_1","","","","set_stims","","","","","","","","","","","","","","","",""
"-1","-1","poldrack-single-stim","370","463794","0.0-291.0","sub-04_ses-01_1","","900","0","cue","","<div class = upperbox><div class = ""center-text"" >Haut-Bas</div></div><div class = lowerbox><div class = fixation>+</div></div>","none","900","test","Haut-Bas","orange","2","magnitude","switch","switch","12","","","",""
"755","89","poldrack-single-stim","371","465812","0.0-292.0","sub-04_ses-01_1","","2000","0","stim","","<div class = upperbox><div class = ""center-text"" >Haut-Bas</div></div><div class = lowerbox><div class = ""stim-text"" style=color:orange;>2</div>","89,71","1000","test","Haut-Bas","orange","2","magnitude","switch","switch","12","true","89","",""
"","","call-function","372","465813","0.0-293.0","sub-04_ses-01_1","","","","set_stims","","","","","","","","","","","","","","","",""
"-1","-1","poldrack-single-stim","373","466733","0.0-294.0","sub-04_ses-01_1","","900","0","cue","","<div class = upperbox><div class = ""center-text"" >Orange-Bleu</div></div><div class = lowerbox><div class = fixation>+</div></div>","none","900","test","Orange-Bleu","orange","4","color","switch","stay","13","","","",""
"635","89","poldrack-single-stim","374","468873","0.0-295.0","sub-04_ses-01_1","","2136","0","stim","","<div class = upperbox><div class = ""center-text"" >Orange-Bleu</div></div><div class = lowerbox><div class = ""stim-text"" style=color:orange;>4</div>","89,71","1000","test","Orange-Bleu","orange","4","color","switch","stay","13","true","89","",""
"","","call-function","375","468874","0.0-296.0","sub-04_ses-01_1","","","","set_stims","","","","","","","","","","","","","","","",""
