"rt","key_press","trial_type","trial_index","time_elapsed","internal_node_id","subject","text","block_duration","timing_post_trial","trial_id","responses","stimulus","possible_responses","stim_duration","exp_stage","cue","stim_color","stim_number","task","task_switch","cue_switch","trial_num","correct","correct_response","feedback_duration","exp_id"
"2204","13","text","0","2209","0.0-0.0","sub-07_ses-01_2","","","","","","","","","","","","","","","","","","","",""
"3655","89","poldrack-text","1","6885","0.0-1.0","sub-07_ses-01_2","<div class = centerbox><div style = 'font-size: 50px' class = center-text>Veuillez appuyer avec votre index</p></div>","3655","500","fmri_response_test","","","","","","","","","","","","","","","",""
"381","71","poldrack-text","2","7782","0.0-2.0","sub-07_ses-01_2","<div class = centerbox><div style = 'font-size: 50px' class = center-text>Veuillez appuyer avec votre majeur</p></div>","381","500","fmri_response_test","","","","","","","","","","","","","","","",""
"6966","","survey-text","3","15265","0.0-3.0","sub-07_ses-01_2","","","","task_setup","{""Q0"":""2"",""Q1"":""2""}","","","","","","","","","","","","","","",""
"7880","32","poldrack-single-stim","4","24151","0.0-4.0","sub-07_ses-01_2","","7880","0","instructions","","<div class = centerbox><div class = center-text style=""font-size:40px""><strong>Couleur</strong> or <strong>Orange-Bleu</strong>: Majeur si orange et Index si bleu.<br><br><strong>Amplitude</strong> ou <strong>Haut-Bas</strong>: Majeur si >5 et Index si <5.</div></div>","32","7880","","","","","","","","","","","",""
"","","call-function","5","24151","0.0-5.0-0.0","sub-07_ses-01_2","","","","set_stims","","","","","","","","","","","","","","","",""
"-1","-1","poldrack-single-stim","6","24657","0.0-5.0-1.0","sub-07_ses-01_2","","500","0","fixation","","<div class = upperbox><div class = fixation>+</div></div><div class = lowerbox><div class = fixation>+</div></div>","none","500","practice","","","","","","","","","","",""
"-1","-1","poldrack-single-stim","7","24779","0.0-5.0-2.0","sub-07_ses-01_2","","100","0","cue","","<div class = upperbox><div class = ""center-text"" >Couleur</div></div><div class = lowerbox><div class = fixation>+</div></div>","none","100","practice","Couleur","#1F45FC","7","color","switch","stay","0","","","",""
"-1","-1","poldrack-categorize","8","27316","0.0-5.0-3.0","sub-07_ses-01_2","","2000","0","stim","","<div class = upperbox><div class = ""center-text"" >Couleur</div></div><div class = lowerbox><div class = ""stim-text"" style=color:#1F45FC;>7</div>","89,71","1000","practice","Couleur","#1F45FC","7","color","switch","stay","0","false","89","500",""
"-1","-1","poldrack-single-stim","9","27839","0.0-5.0-4.0","sub-07_ses-01_2","","500","0","gap",""," ","none","500","practice","","","","","","","","","","",""
"","","call-function","10","27839","0.0-5.0-5.0","sub-07_ses-01_2","","","","set_stims","","","","","","","","","","","","","","","",""
"-1","-1","poldrack-single-stim","11","28358","0.0-5.0-6.0","sub-07_ses-01_2","","500","0","fixation","","<div class = upperbox><div class = fixation>+</div></div><div class = lowerbox><div class = fixation>+</div></div>","none","500","practice","","","","","","","","","","",""
"-1","-1","poldrack-single-stim","12","28478","0.0-5.0-7.0","sub-07_ses-01_2","","100","0","cue","","<div class = upperbox><div class = ""center-text"" >Orange-Bleu</div></div><div class = lowerbox><div class = fixation>+</div></div>","none","100","practice","Orange-Bleu","#1F45FC","8","color","stay","switch","1","","","",""
"1627","89","poldrack-categorize","13","31007","0.0-5.0-8.0","sub-07_ses-01_2","","2000","0","stim","","<div class = upperbox><div class = ""center-text"" >Orange-Bleu</div></div><div class = lowerbox><div class = ""stim-text"" style=color:#1F45FC;>8</div>","89,71","1000","practice","Orange-Bleu","#1F45FC","8","color","stay","switch","1","true","89","500",""
"-1","-1","poldrack-single-stim","14","31528","0.0-5.0-9.0","sub-07_ses-01_2","","500","0","gap",""," ","none","500","practice","","","","","","","","","","",""
"","","call-function","15","31528","0.0-5.0-10.0","sub-07_ses-01_2","","","","set_stims","","","","","","","","","","","","","","","",""
"-1","-1","poldrack-single-stim","16","32046","0.0-5.0-11.0","sub-07_ses-01_2","","500","0","fixation","","<div class = upperbox><div class = fixation>+</div></div><div class = lowerbox><div class = fixation>+</div></div>","none","500","practice","","","","","","","","","","",""
"-1","-1","poldrack-single-stim","17","32968","0.0-5.0-12.0","sub-07_ses-01_2","","900","0","cue","","<div class = upperbox><div class = ""center-text"" >Amplitude</div></div><div class = lowerbox><div class = fixation>+</div></div>","none","900","practice","Amplitude","#1F45FC","1","magnitude","switch","stay","2","","","",""
"590","89","poldrack-categorize","18","35506","0.0-5.0-13.0","sub-07_ses-01_2","","2000","0","stim","","<div class = upperbox><div class = ""center-text"" >Amplitude</div></div><div class = lowerbox><div class = ""stim-text"" style=color:#1F45FC;>1</div>","89,71","1000","practice","Amplitude","#1F45FC","1","magnitude","switch","stay","2","true","89","500",""
"-1","-1","poldrack-single-stim","19","36027","0.0-5.0-14.0","sub-07_ses-01_2","","500","0","gap",""," ","none","500","practice","","","","","","","","","","",""
"","","call-function","20","36028","0.0-5.0-15.0","sub-07_ses-01_2","","","","set_stims","","","","","","","","","","","","","","","",""
"-1","-1","poldrack-single-stim","21","36547","0.0-5.0-16.0","sub-07_ses-01_2","","500","0","fixation","","<div class = upperbox><div class = fixation>+</div></div><div class = lowerbox><div class = fixation>+</div></div>","none","500","practice","","","","","","","","","","",""
"-1","-1","poldrack-single-stim","22","36668","0.0-5.0-17.0","sub-07_ses-01_2","","100","0","cue","","<div class = upperbox><div class = ""center-text"" >Amplitude</div></div><div class = lowerbox><div class = fixation>+</div></div>","none","100","practice","Amplitude","orange","2","magnitude","stay","stay","3","","","",""
"1089","89","poldrack-categorize","23","39206","0.0-5.0-18.0","sub-07_ses-01_2","","2000","0","stim","","<div class = upperbox><div class = ""center-text"" >Amplitude</div></div><div class = lowerbox><div class = ""stim-text"" style=color:orange;>2</div>","89,71","1000","practice","Amplitude","orange","2","magnitude","stay","stay","3","true","89","500",""
"-1","-1","poldrack-single-stim","24","39717","0.0-5.0-19.0","sub-07_ses-01_2","","500","0","gap",""," ","none","500","practice","","","","","","","","","","",""
"","","call-function","25","39717","0.0-5.0-20.0","sub-07_ses-01_2","","","","set_stims","","","","","","","","","","","","","","","",""
"-1","-1","poldrack-single-stim","26","40236","0.0-5.0-21.0","sub-07_ses-01_2","","500","0","fixation","","<div class = upperbox><div class = fixation>+</div></div><div class = lowerbox><div class = fixation>+</div></div>","none","500","practice","","","","","","","","","","",""
"-1","-1","poldrack-single-stim","27","40348","0.0-5.0-22.0","sub-07_ses-01_2","","100","0","cue","","<div class = upperbox><div class = ""center-text"" >Haut-Bas</div></div><div class = lowerbox><div class = fixation>+</div></div>","none","100","practice","Haut-Bas","#1F45FC","8","magnitude","stay","switch","4","","","",""
"865","71","poldrack-categorize","28","42888","0.0-5.0-23.0","sub-07_ses-01_2","","2000","0","stim","","<div class = upperbox><div class = ""center-text"" >Haut-Bas</div></div><div class = lowerbox><div class = ""stim-text"" style=color:#1F45FC;>8</div>","89,71","1000","practice","Haut-Bas","#1F45FC","8","magnitude","stay","switch","4","true","71","500",""
"-1","-1","poldrack-single-stim","29","43407","0.0-5.0-24.0","sub-07_ses-01_2","","500","0","gap",""," ","none","500","practice","","","","","","","","","","",""
"","","call-function","30","43407","0.0-5.0-25.0","sub-07_ses-01_2","","","","set_stims","","","","","","","","","","","","","","","",""
"-1","-1","poldrack-single-stim","31","43927","0.0-5.0-26.0","sub-07_ses-01_2","","500","0","fixation","","<div class = upperbox><div class = fixation>+</div></div><div class = lowerbox><div class = fixation>+</div></div>","none","500","practice","","","","","","","","","","",""
"-1","-1","poldrack-single-stim","32","44848","0.0-5.0-27.0","sub-07_ses-01_2","","900","0","cue","","<div class = upperbox><div class = ""center-text"" >Haut-Bas</div></div><div class = lowerbox><div class = fixation>+</div></div>","none","900","practice","Haut-Bas","#1F45FC","2","magnitude","stay","stay","5","","","",""
"396","89","poldrack-categorize","33","47377","0.0-5.0-28.0","sub-07_ses-01_2","","2000","0","stim","","<div class = upperbox><div class = ""center-text"" >Haut-Bas</div></div><div class = lowerbox><div class = ""stim-text"" style=color:#1F45FC;>2</div>","89,71","1000","practice","Haut-Bas","#1F45FC","2","magnitude","stay","stay","5","true","89","500",""
"-1","-1","poldrack-single-stim","34","47897","0.0-5.0-29.0","sub-07_ses-01_2","","500","0","gap",""," ","none","500","practice","","","","","","","","","","",""
"","","call-function","35","47898","0.0-5.0-30.0","sub-07_ses-01_2","","","","set_stims","","","","","","","","","","","","","","","",""
"-1","-1","poldrack-single-stim","36","48406","0.0-5.0-31.0","sub-07_ses-01_2","","500","0","fixation","","<div class = upperbox><div class = fixation>+</div></div><div class = lowerbox><div class = fixation>+</div></div>","none","500","practice","","","","","","","","","","",""
"-1","-1","poldrack-single-stim","37","48527","0.0-5.0-32.0","sub-07_ses-01_2","","100","0","cue","","<div class = upperbox><div class = ""center-text"" >Couleur</div></div><div class = lowerbox><div class = fixation>+</div></div>","none","100","practice","Couleur","#1F45FC","8","color","switch","stay","6","","","",""
"817","89","poldrack-categorize","38","51058","0.0-5.0-33.0","sub-07_ses-01_2","","2000","0","stim","","<div class = upperbox><div class = ""center-text"" >Couleur</div></div><div class = lowerbox><div class = ""stim-text"" style=color:#1F45FC;>8</div>","89,71","1000","practice","Couleur","#1F45FC","8","color","switch","stay","6","true","89","500",""
"-1","-1","poldrack-single-stim","39","51576","0.0-5.0-34.0","sub-07_ses-01_2","","500","0","gap",""," ","none","500","practice","","","","","","","","","","",""
"","","call-function","40","51577","0.0-5.0-35.0","sub-07_ses-01_2","","","","set_stims","","","","","","","","","","","","","","","",""
"-1","-1","poldrack-single-stim","41","52096","0.0-5.0-36.0","sub-07_ses-01_2","","500","0","fixation","","<div class = upperbox><div class = fixation>+</div></div><div class = lowerbox><div class = fixation>+</div></div>","none","500","practice","","","","","","","","","","",""
"-1","-1","poldrack-single-stim","42","52216","0.0-5.0-37.0","sub-07_ses-01_2","","100","0","cue","","<div class = upperbox><div class = ""center-text"" >Haut-Bas</div></div><div class = lowerbox><div class = fixation>+</div></div>","none","100","practice","Haut-Bas","#1F45FC","9","magnitude","switch","switch","7","","","",""
"718","71","poldrack-categorize","43","54757","0.0-5.0-38.0","sub-07_ses-01_2","","2000","0","stim","","<div class = upperbox><div class = ""center-text"" >Haut-Bas</div></div><div class = lowerbox><div class = ""stim-text"" style=color:#1F45FC;>9</div>","89,71","1000","practice","Haut-Bas","#1F45FC","9","magnitude","switch","switch","7","true","71","500",""
"-1","-1","poldrack-single-stim","44","55277","0.0-5.0-39.0","sub-07_ses-01_2","","500","0","gap",""," ","none","500","practice","","","","","","","","","","",""
"","","call-function","45","55278","0.0-5.0-40.0","sub-07_ses-01_2","","","","set_stims","","","","","","","","","","","","","","","",""
"-1","-1","poldrack-single-stim","46","55797","0.0-5.0-41.0","sub-07_ses-01_2","","500","0","fixation","","<div class = upperbox><div class = fixation>+</div></div><div class = lowerbox><div class = fixation>+</div></div>","none","500","practice","","","","","","","","","","",""
"-1","-1","poldrack-single-stim","47","56717","0.0-5.0-42.0","sub-07_ses-01_2","","900","0","cue","","<div class = upperbox><div class = ""center-text"" >Orange-Bleu</div></div><div class = lowerbox><div class = fixation>+</div></div>","none","900","practice","Orange-Bleu","#1F45FC","9","color","switch","stay","8","","","",""
"741","89","poldrack-categorize","48","59257","0.0-5.0-43.0","sub-07_ses-01_2","","2000","0","stim","","<div class = upperbox><div class = ""center-text"" >Orange-Bleu</div></div><div class = lowerbox><div class = ""stim-text"" style=color:#1F45FC;>9</div>","89,71","1000","practice","Orange-Bleu","#1F45FC","9","color","switch","stay","8","true","89","500",""
"-1","-1","poldrack-single-stim","49","59776","0.0-5.0-44.0","sub-07_ses-01_2","","500","0","gap",""," ","none","500","practice","","","","","","","","","","",""
"","","call-function","50","59776","0.0-5.0-45.0","sub-07_ses-01_2","","","","set_stims","","","","","","","","","","","","","","","",""
"-1","-1","poldrack-single-stim","51","60297","0.0-5.0-46.0","sub-07_ses-01_2","","500","0","fixation","","<div class = upperbox><div class = fixation>+</div></div><div class = lowerbox><div class = fixation>+</div></div>","none","500","practice","","","","","","","","","","",""
"-1","-1","poldrack-single-stim","52","61218","0.0-5.0-47.0","sub-07_ses-01_2","","900","0","cue","","<div class = upperbox><div class = ""center-text"" >Amplitude</div></div><div class = lowerbox><div class = fixation>+</div></div>","none","900","practice","Amplitude","orange","7","magnitude","switch","switch","9","","","",""
"828","89","poldrack-categorize","53","63757","0.0-5.0-48.0","sub-07_ses-01_2","","2000","0","stim","","<div class = upperbox><div class = ""center-text"" >Amplitude</div></div><div class = lowerbox><div class = ""stim-text"" style=color:orange;>7</div>","89,71","1000","practice","Amplitude","orange","7","magnitude","switch","switch","9","false","71","500",""
"-1","-1","poldrack-single-stim","54","64278","0.0-5.0-49.0","sub-07_ses-01_2","","500","0","gap",""," ","none","500","practice","","","","","","","","","","",""
"","","call-function","55","64279","0.0-5.0-50.0","sub-07_ses-01_2","","","","set_stims","","","","","","","","","","","","","","","",""
"-1","-1","poldrack-single-stim","56","64798","0.0-5.0-51.0","sub-07_ses-01_2","","500","0","fixation","","<div class = upperbox><div class = fixation>+</div></div><div class = lowerbox><div class = fixation>+</div></div>","none","500","practice","","","","","","","","","","",""
"-1","-1","poldrack-single-stim","57","64918","0.0-5.0-52.0","sub-07_ses-01_2","","100","0","cue","","<div class = upperbox><div class = ""center-text"" >Orange-Bleu</div></div><div class = lowerbox><div class = fixation>+</div></div>","none","100","practice","Orange-Bleu","#1F45FC","8","color","switch","switch","10","","","",""
"1186","89","poldrack-categorize","58","67456","0.0-5.0-53.0","sub-07_ses-01_2","","2000","0","stim","","<div class = upperbox><div class = ""center-text"" >Orange-Bleu</div></div><div class = lowerbox><div class = ""stim-text"" style=color:#1F45FC;>8</div>","89,71","1000","practice","Orange-Bleu","#1F45FC","8","color","switch","switch","10","true","89","500",""
"-1","-1","poldrack-single-stim","59","67978","0.0-5.0-54.0","sub-07_ses-01_2","","500","0","gap",""," ","none","500","practice","","","","","","","","","","",""
"","","call-function","60","67978","0.0-5.0-55.0","sub-07_ses-01_2","","","","set_stims","","","","","","","","","","","","","","","",""
"-1","-1","poldrack-single-stim","61","68497","0.0-5.0-56.0","sub-07_ses-01_2","","500","0","fixation","","<div class = upperbox><div class = fixation>+</div></div><div class = lowerbox><div class = fixation>+</div></div>","none","500","practice","","","","","","","","","","",""
"-1","-1","poldrack-single-stim","62","68618","0.0-5.0-57.0","sub-07_ses-01_2","","100","0","cue","","<div class = upperbox><div class = ""center-text"" >Orange-Bleu</div></div><div class = lowerbox><div class = fixation>+</div></div>","none","100","practice","Orange-Bleu","orange","4","color","stay","stay","11","","","",""
"999","71","poldrack-categorize","63","71147","0.0-5.0-58.0","sub-07_ses-01_2","","2000","0","stim","","<div class = upperbox><div class = ""center-text"" >Orange-Bleu</div></div><div class = lowerbox><div class = ""stim-text"" style=color:orange;>4</div>","89,71","1000","practice","Orange-Bleu","orange","4","color","stay","stay","11","true","71","500",""
"-1","-1","poldrack-single-stim","64","71692","0.0-5.0-59.0","sub-07_ses-01_2","","500","0","gap",""," ","none","500","practice","","","","","","","","","","",""
"","","call-function","65","71693","0.0-5.0-60.0","sub-07_ses-01_2","","","","set_stims","","","","","","","","","","","","","","","",""
"-1","-1","poldrack-single-stim","66","72207","0.0-5.0-61.0","sub-07_ses-01_2","","500","0","fixation","","<div class = upperbox><div class = fixation>+</div></div><div class = lowerbox><div class = fixation>+</div></div>","none","500","practice","","","","","","","","","","",""
"-1","-1","poldrack-single-stim","67","73127","0.0-5.0-62.0","sub-07_ses-01_2","","900","0","cue","","<div class = upperbox><div class = ""center-text"" >Couleur</div></div><div class = lowerbox><div class = fixation>+</div></div>","none","900","practice","Couleur","orange","8","color","stay","switch","12","","","",""
"644","71","poldrack-categorize","68","75667","0.0-5.0-63.0","sub-07_ses-01_2","","2000","0","stim","","<div class = upperbox><div class = ""center-text"" >Couleur</div></div><div class = lowerbox><div class = ""stim-text"" style=color:orange;>8</div>","89,71","1000","practice","Couleur","orange","8","color","stay","switch","12","true","71","500",""
"-1","-1","poldrack-single-stim","69","76187","0.0-5.0-64.0","sub-07_ses-01_2","","500","0","gap",""," ","none","500","practice","","","","","","","","","","",""
"","","call-function","70","76187","0.0-5.0-65.0","sub-07_ses-01_2","","","","set_stims","","","","","","","","","","","","","","","",""
"-1","-1","poldrack-single-stim","71","76707","0.0-5.0-66.0","sub-07_ses-01_2","","500","0","fixation","","<div class = upperbox><div class = fixation>+</div></div><div class = lowerbox><div class = fixation>+</div></div>","none","500","practice","","","","","","","","","","",""
"-1","-1","poldrack-single-stim","72","77627","0.0-5.0-67.0","sub-07_ses-01_2","","900","0","cue","","<div class = upperbox><div class = ""center-text"" >Orange-Bleu</div></div><div class = lowerbox><div class = fixation>+</div></div>","none","900","practice","Orange-Bleu","orange","9","color","stay","switch","13","","","",""
"961","71","poldrack-categorize","73","80167","0.0-5.0-68.0","sub-07_ses-01_2","","2000","0","stim","","<div class = upperbox><div class = ""center-text"" >Orange-Bleu</div></div><div class = lowerbox><div class = ""stim-text"" style=color:orange;>9</div>","89,71","1000","practice","Orange-Bleu","orange","9","color","stay","switch","13","true","71","500",""
"-1","-1","poldrack-single-stim","74","80686","0.0-5.0-69.0","sub-07_ses-01_2","","500","0","gap",""," ","none","500","practice","","","","","","","","","","",""
"","","call-function","75","80686","0.0-5.0-70.0","sub-07_ses-01_2","","","","set_stims","","","","","","","","","","","","","","","",""
"-1","-1","poldrack-single-stim","76","81206","0.0-5.0-71.0","sub-07_ses-01_2","","500","0","fixation","","<div class = upperbox><div class = fixation>+</div></div><div class = lowerbox><div class = fixation>+</div></div>","none","500","practice","","","","","","","","","","",""
"-1","-1","poldrack-single-stim","77","82127","0.0-5.0-72.0","sub-07_ses-01_2","","900","0","cue","","<div class = upperbox><div class = ""center-text"" >Haut-Bas</div></div><div class = lowerbox><div class = fixation>+</div></div>","none","900","practice","Haut-Bas","orange","7","magnitude","switch","switch","14","","","",""
"972","71","poldrack-categorize","78","84656","0.0-5.0-73.0","sub-07_ses-01_2","","2000","0","stim","","<div class = upperbox><div class = ""center-text"" >Haut-Bas</div></div><div class = lowerbox><div class = ""stim-text"" style=color:orange;>7</div>","89,71","1000","practice","Haut-Bas","orange","7","magnitude","switch","switch","14","true","71","500",""
"-1","-1","poldrack-single-stim","79","85177","0.0-5.0-74.0","sub-07_ses-01_2","","500","0","gap",""," ","none","500","practice","","","","","","","","","","",""
"","","call-function","80","85177","0.0-5.0-75.0","sub-07_ses-01_2","","","","set_stims","","","","","","","","","","","","","","","",""
"-1","-1","poldrack-single-stim","81","85696","0.0-5.0-76.0","sub-07_ses-01_2","","500","0","fixation","","<div class = upperbox><div class = fixation>+</div></div><div class = lowerbox><div class = fixation>+</div></div>","none","500","practice","","","","","","","","","","",""
"-1","-1","poldrack-single-stim","82","86616","0.0-5.0-77.0","sub-07_ses-01_2","","900","0","cue","","<div class = upperbox><div class = ""center-text"" >Haut-Bas</div></div><div class = lowerbox><div class = fixation>+</div></div>","none","900","practice","Haut-Bas","#1F45FC","1","magnitude","stay","stay","15","","","",""
"554","89","poldrack-categorize","83","89156","0.0-5.0-78.0","sub-07_ses-01_2","","2000","0","stim","","<div class = upperbox><div class = ""center-text"" >Haut-Bas</div></div><div class = lowerbox><div class = ""stim-text"" style=color:#1F45FC;>1</div>","89,71","1000","practice","Haut-Bas","#1F45FC","1","magnitude","stay","stay","15","true","89","500",""
"-1","-1","poldrack-single-stim","84","89667","0.0-5.0-79.0","sub-07_ses-01_2","","500","0","gap",""," ","none","500","practice","","","","","","","","","","",""
"2417","32","poldrack-text","85","92096","0.0-6.0","sub-07_ses-01_2","<div class = centerbox><div  class = center-text>Scanner Setup</div></div>","2417","0","fmri_scanner_wait","","","","","","","","","","","","","","","",""
"55704","84","poldrack-text","86","147803","0.0-7.0","sub-07_ses-01_2","<div class = centerbox><div style='color:red'; class = center-text>+</div></div>","55704","0","fmri_trigger_wait","","","","","","","","","","","","","","","",""
"-1","-1","poldrack-single-stim","87","148817","0.0-8.0","sub-07_ses-01_2","","1000","0","fmri_buffer","","","none","1000","","","","","","","","","","","",""
"-1","-1","poldrack-single-stim","88","150339","0.0-9.0","sub-07_ses-01_2","","1500","500","test_start_block","","<div class = centerbox><div class = center-text>Preparez-vous!</p></div>","none","1500","","","","","","","","","","","",""
"-1","-1","poldrack-single-stim","89","151377","0.0-10.0","sub-07_ses-01_2","","500","0","fixation","","<div class = upperbox><div class = fixation>+</div></div><div class = lowerbox><div class = fixation>+</div></div>","none","500","test","","","","","","","","","","",""
"","","call-function","90","151378","0.0-11.0","sub-07_ses-01_2","","","","set_stims","","","","","","","","","","","","","","","",""
"-1","-1","poldrack-single-stim","91","151488","0.0-12.0","sub-07_ses-01_2","","100","0","cue","","<div class = upperbox><div class = ""center-text"" >Orange-Bleu</div></div><div class = lowerbox><div class = fixation>+</div></div>","none","100","test","Orange-Bleu","#1F45FC","7","color","stay","stay","0","","","",""
"869","89","poldrack-single-stim","92","154717","0.0-13.0","sub-07_ses-01_2","","3224","0","stim","","<div class = upperbox><div class = ""center-text"" >Orange-Bleu</div></div><div class = lowerbox><div class = ""stim-text"" style=color:#1F45FC;>7</div>","89,71","1000","test","Orange-Bleu","#1F45FC","7","color","stay","stay","0","true","89","",""
"","","call-function","93","154717","0.0-14.0","sub-07_ses-01_2","","","","set_stims","","","","","","","","","","","","","","","",""
"-1","-1","poldrack-single-stim","94","155637","0.0-15.0","sub-07_ses-01_2","","900","0","cue","","<div class = upperbox><div class = ""center-text"" >Amplitude</div></div><div class = lowerbox><div class = fixation>+</div></div>","none","900","test","Amplitude","#1F45FC","8","magnitude","switch","stay","1","","","",""
"624","71","poldrack-single-stim","95","158058","0.0-16.0","sub-07_ses-01_2","","2408","0","stim","","<div class = upperbox><div class = ""center-text"" >Amplitude</div></div><div class = lowerbox><div class = ""stim-text"" style=color:#1F45FC;>8</div>","89,71","1000","test","Amplitude","#1F45FC","8","magnitude","switch","stay","1","true","71","",""
"","","call-function","96","158060","0.0-17.0","sub-07_ses-01_2","","","","set_stims","","","","","","","","","","","","","","","",""
"-1","-1","poldrack-single-stim","97","158968","0.0-18.0","sub-07_ses-01_2","","900","0","cue","","<div class = upperbox><div class = ""center-text"" >Couleur</div></div><div class = lowerbox><div class = fixation>+</div></div>","none","900","test","Couleur","#1F45FC","1","color","switch","stay","2","","","",""
"628","89","poldrack-single-stim","98","161797","0.0-19.0","sub-07_ses-01_2","","2816","0","stim","","<div class = upperbox><div class = ""center-text"" >Couleur</div></div><div class = lowerbox><div class = ""stim-text"" style=color:#1F45FC;>1</div>","89,71","1000","test","Couleur","#1F45FC","1","color","switch","stay","2","true","89","",""
"","","call-function","99","161798","0.0-20.0","sub-07_ses-01_2","","","","set_stims","","","","","","","","","","","","","","","",""
"-1","-1","poldrack-single-stim","100","161917","0.0-21.0","sub-07_ses-01_2","","100","0","cue","","<div class = upperbox><div class = ""center-text"" >Amplitude</div></div><div class = lowerbox><div class = fixation>+</div></div>","none","100","test","Amplitude","orange","2","magnitude","switch","stay","3","","","",""
"855","89","poldrack-single-stim","101","164336","0.0-22.0","sub-07_ses-01_2","","2408","0","stim","","<div class = upperbox><div class = ""center-text"" >Amplitude</div></div><div class = lowerbox><div class = ""stim-text"" style=color:orange;>2</div>","89,71","1000","test","Amplitude","orange","2","magnitude","switch","stay","3","true","89","",""
"","","call-function","102","164337","0.0-23.0","sub-07_ses-01_2","","","","set_stims","","","","","","","","","","","","","","","",""
"-1","-1","poldrack-single-stim","103","164457","0.0-24.0","sub-07_ses-01_2","","100","0","cue","","<div class = upperbox><div class = ""center-text"" >Orange-Bleu</div></div><div class = lowerbox><div class = fixation>+</div></div>","none","100","test","Orange-Bleu","#1F45FC","8","color","switch","switch","4","","","",""
"878","89","poldrack-single-stim","104","166606","0.0-25.0","sub-07_ses-01_2","","2136","0","stim","","<div class = upperbox><div class = ""center-text"" >Orange-Bleu</div></div><div class = lowerbox><div class = ""stim-text"" style=color:#1F45FC;>8</div>","89,71","1000","test","Orange-Bleu","#1F45FC","8","color","switch","switch","4","true","89","",""
"","","call-function","105","166607","0.0-26.0","sub-07_ses-01_2","","","","set_stims","","","","","","","","","","","","","","","",""
"-1","-1","poldrack-single-stim","106","167527","0.0-27.0","sub-07_ses-01_2","","900","0","cue","","<div class = upperbox><div class = ""center-text"" >Orange-Bleu</div></div><div class = lowerbox><div class = fixation>+</div></div>","none","900","test","Orange-Bleu","#1F45FC","2","color","stay","stay","5","","","",""
"618","89","poldrack-single-stim","107","169677","0.0-28.0","sub-07_ses-01_2","","2136","0","stim","","<div class = upperbox><div class = ""center-text"" >Orange-Bleu</div></div><div class = lowerbox><div class = ""stim-text"" style=color:#1F45FC;>2</div>","89,71","1000","test","Orange-Bleu","#1F45FC","2","color","stay","stay","5","true","89","",""
"","","call-function","108","169678","0.0-29.0","sub-07_ses-01_2","","","","set_stims","","","","","","","","","","","","","","","",""
"-1","-1","poldrack-single-stim","109","170596","0.0-30.0","sub-07_ses-01_2","","900","0","cue","","<div class = upperbox><div class = ""center-text"" >Couleur</div></div><div class = lowerbox><div class = fixation>+</div></div>","none","900","test","Couleur","#1F45FC","8","color","stay","switch","6","","","",""
"646","89","poldrack-single-stim","110","172616","0.0-31.0","sub-07_ses-01_2","","2000","0","stim","","<div class = upperbox><div class = ""center-text"" >Couleur</div></div><div class = lowerbox><div class = ""stim-text"" style=color:#1F45FC;>8</div>","89,71","1000","test","Couleur","#1F45FC","8","color","stay","switch","6","true","89","",""
"","","call-function","111","172617","0.0-32.0","sub-07_ses-01_2","","","","set_stims","","","","","","","","","","","","","","","",""
"-1","-1","poldrack-single-stim","112","172737","0.0-33.0","sub-07_ses-01_2","","100","0","cue","","<div class = upperbox><div class = ""center-text"" >Orange-Bleu</div></div><div class = lowerbox><div class = fixation>+</div></div>","none","100","test","Orange-Bleu","#1F45FC","9","color","stay","switch","7","","","",""
"780","89","poldrack-single-stim","113","174757","0.0-34.0","sub-07_ses-01_2","","2000","0","stim","","<div class = upperbox><div class = ""center-text"" >Orange-Bleu</div></div><div class = lowerbox><div class = ""stim-text"" style=color:#1F45FC;>9</div>","89,71","1000","test","Orange-Bleu","#1F45FC","9","color","stay","switch","7","true","89","",""
"","","call-function","114","174757","0.0-35.0","sub-07_ses-01_2","","","","set_stims","","","","","","","","","","","","","","","",""
"-1","-1","poldrack-single-stim","115","174878","0.0-36.0","sub-07_ses-01_2","","100","0","cue","","<div class = upperbox><div class = ""center-text"" >Amplitude</div></div><div class = lowerbox><div class = fixation>+</div></div>","none","100","test","Amplitude","#1F45FC","9","magnitude","switch","switch","8","","","",""
"884","71","poldrack-single-stim","116","177157","0.0-37.0","sub-07_ses-01_2","","2272","0","stim","","<div class = upperbox><div class = ""center-text"" >Amplitude</div></div><div class = lowerbox><div class = ""stim-text"" style=color:#1F45FC;>9</div>","89,71","1000","test","Amplitude","#1F45FC","9","magnitude","switch","switch","8","true","71","",""
"","","call-function","117","177158","0.0-38.0","sub-07_ses-01_2","","","","set_stims","","","","","","","","","","","","","","","",""
"-1","-1","poldrack-single-stim","118","177278","0.0-39.0","sub-07_ses-01_2","","100","0","cue","","<div class = upperbox><div class = ""center-text"" >Couleur</div></div><div class = lowerbox><div class = fixation>+</div></div>","none","100","test","Couleur","orange","7","color","switch","switch","9","","","",""
"767","71","poldrack-single-stim","119","179697","0.0-40.0","sub-07_ses-01_2","","2408","0","stim","","<div class = upperbox><div class = ""center-text"" >Couleur</div></div><div class = lowerbox><div class = ""stim-text"" style=color:orange;>7</div>","89,71","1000","test","Couleur","orange","7","color","switch","switch","9","true","71","",""
"","","call-function","120","179697","0.0-41.0","sub-07_ses-01_2","","","","set_stims","","","","","","","","","","","","","","","",""
"-1","-1","poldrack-single-stim","121","179817","0.0-42.0","sub-07_ses-01_2","","100","0","cue","","<div class = upperbox><div class = ""center-text"" >Haut-Bas</div></div><div class = lowerbox><div class = fixation>+</div></div>","none","100","test","Haut-Bas","#1F45FC","8","magnitude","switch","switch","10","","","",""
"1082","71","poldrack-single-stim","122","181826","0.0-43.0","sub-07_ses-01_2","","2000","0","stim","","<div class = upperbox><div class = ""center-text"" >Haut-Bas</div></div><div class = lowerbox><div class = ""stim-text"" style=color:#1F45FC;>8</div>","89,71","1000","test","Haut-Bas","#1F45FC","8","magnitude","switch","switch","10","true","71","",""
"","","call-function","123","181827","0.0-44.0","sub-07_ses-01_2","","","","set_stims","","","","","","","","","","","","","","","",""
"-1","-1","poldrack-single-stim","124","181948","0.0-45.0","sub-07_ses-01_2","","100","0","cue","","<div class = upperbox><div class = ""center-text"" >Amplitude</div></div><div class = lowerbox><div class = fixation>+</div></div>","none","100","test","Amplitude","orange","4","magnitude","stay","switch","11","","","",""
"1139","89","poldrack-single-stim","125","184097","0.0-46.0","sub-07_ses-01_2","","2136","0","stim","","<div class = upperbox><div class = ""center-text"" >Amplitude</div></div><div class = lowerbox><div class = ""stim-text"" style=color:orange;>4</div>","89,71","1000","test","Amplitude","orange","4","magnitude","stay","switch","11","true","89","",""
"","","call-function","126","184098","0.0-47.0","sub-07_ses-01_2","","","","set_stims","","","","","","","","","","","","","","","",""
"-1","-1","poldrack-single-stim","127","185008","0.0-48.0","sub-07_ses-01_2","","900","0","cue","","<div class = upperbox><div class = ""center-text"" >Couleur</div></div><div class = lowerbox><div class = fixation>+</div></div>","none","900","test","Couleur","orange","8","color","switch","stay","12","","","",""
"778","71","poldrack-single-stim","128","187028","0.0-49.0","sub-07_ses-01_2","","2000","0","stim","","<div class = upperbox><div class = ""center-text"" >Couleur</div></div><div class = lowerbox><div class = ""stim-text"" style=color:orange;>8</div>","89,71","1000","test","Couleur","orange","8","color","switch","stay","12","true","71","",""
"","","call-function","129","187028","0.0-50.0","sub-07_ses-01_2","","","","set_stims","","","","","","","","","","","","","","","",""
"-1","-1","poldrack-single-stim","130","187948","0.0-51.0","sub-07_ses-01_2","","900","0","cue","","<div class = upperbox><div class = ""center-text"" >Amplitude</div></div><div class = lowerbox><div class = fixation>+</div></div>","none","900","test","Amplitude","orange","9","magnitude","switch","stay","13","","","",""
"655","71","poldrack-single-stim","131","190378","0.0-52.0","sub-07_ses-01_2","","2408","0","stim","","<div class = upperbox><div class = ""center-text"" >Amplitude</div></div><div class = lowerbox><div class = ""stim-text"" style=color:orange;>9</div>","89,71","1000","test","Amplitude","orange","9","magnitude","switch","stay","13","true","71","",""
"","","call-function","132","190378","0.0-53.0","sub-07_ses-01_2","","","","set_stims","","","","","","","","","","","","","","","",""
"-1","-1","poldrack-single-stim","133","191297","0.0-54.0","sub-07_ses-01_2","","900","0","cue","","<div class = upperbox><div class = ""center-text"" >Haut-Bas</div></div><div class = lowerbox><div class = fixation>+</div></div>","none","900","test","Haut-Bas","orange","7","magnitude","stay","switch","14","","","",""
"652","71","poldrack-single-stim","134","193576","0.0-55.0","sub-07_ses-01_2","","2272","0","stim","","<div class = upperbox><div class = ""center-text"" >Haut-Bas</div></div><div class = lowerbox><div class = ""stim-text"" style=color:orange;>7</div>","89,71","1000","test","Haut-Bas","orange","7","magnitude","stay","switch","14","true","71","",""
"","","call-function","135","193576","0.0-56.0","sub-07_ses-01_2","","","","set_stims","","","","","","","","","","","","","","","",""
"-1","-1","poldrack-single-stim","136","194497","0.0-57.0","sub-07_ses-01_2","","900","0","cue","","<div class = upperbox><div class = ""center-text"" >Orange-Bleu</div></div><div class = lowerbox><div class = fixation>+</div></div>","none","900","test","Orange-Bleu","#1F45FC","1","color","switch","stay","15","","","",""
"619","89","poldrack-single-stim","137","196516","0.0-58.0","sub-07_ses-01_2","","2000","0","stim","","<div class = upperbox><div class = ""center-text"" >Orange-Bleu</div></div><div class = lowerbox><div class = ""stim-text"" style=color:#1F45FC;>1</div>","89,71","1000","test","Orange-Bleu","#1F45FC","1","color","switch","stay","15","true","89","",""
"","","call-function","138","196516","0.0-59.0","sub-07_ses-01_2","","","","set_stims","","","","","","","","","","","","","","","",""
"-1","-1","poldrack-single-stim","139","197427","0.0-60.0","sub-07_ses-01_2","","900","0","cue","","<div class = upperbox><div class = ""center-text"" >Couleur</div></div><div class = lowerbox><div class = fixation>+</div></div>","none","900","test","Couleur","orange","1","color","stay","switch","16","","","",""
"790","71","poldrack-single-stim","140","199706","0.0-61.0","sub-07_ses-01_2","","2272","0","stim","","<div class = upperbox><div class = ""center-text"" >Couleur</div></div><div class = lowerbox><div class = ""stim-text"" style=color:orange;>1</div>","89,71","1000","test","Couleur","orange","1","color","stay","switch","16","true","71","",""
"","","call-function","141","199708","0.0-62.0","sub-07_ses-01_2","","","","set_stims","","","","","","","","","","","","","","","",""
"-1","-1","poldrack-single-stim","142","200628","0.0-63.0","sub-07_ses-01_2","","900","0","cue","","<div class = upperbox><div class = ""center-text"" >Haut-Bas</div></div><div class = lowerbox><div class = fixation>+</div></div>","none","900","test","Haut-Bas","orange","1","magnitude","switch","switch","17","","","",""
"910","89","poldrack-single-stim","143","202636","0.0-64.0","sub-07_ses-01_2","","2000","0","stim","","<div class = upperbox><div class = ""center-text"" >Haut-Bas</div></div><div class = lowerbox><div class = ""stim-text"" style=color:orange;>1</div>","89,71","1000","test","Haut-Bas","orange","1","magnitude","switch","switch","17","true","89","",""
"","","call-function","144","202637","0.0-65.0","sub-07_ses-01_2","","","","set_stims","","","","","","","","","","","","","","","",""
"-1","-1","poldrack-single-stim","145","203558","0.0-66.0","sub-07_ses-01_2","","900","0","cue","","<div class = upperbox><div class = ""center-text"" >Couleur</div></div><div class = lowerbox><div class = fixation>+</div></div>","none","900","test","Couleur","orange","7","color","switch","stay","18","","","",""
"836","71","poldrack-single-stim","146","205559","0.0-67.0","sub-07_ses-01_2","","2000","0","stim","","<div class = upperbox><div class = ""center-text"" >Couleur</div></div><div class = lowerbox><div class = ""stim-text"" style=color:orange;>7</div>","89,71","1000","test","Couleur","orange","7","color","switch","stay","18","true","71","",""
"","","call-function","147","205561","0.0-68.0","sub-07_ses-01_2","","","","set_stims","","","","","","","","","","","","","","","",""
"-1","-1","poldrack-single-stim","148","206467","0.0-69.0","sub-07_ses-01_2","","900","0","cue","","<div class = upperbox><div class = ""center-text"" >Couleur</div></div><div class = lowerbox><div class = fixation>+</div></div>","none","900","test","Couleur","#1F45FC","1","color","stay","stay","19","","","",""
"718","89","poldrack-single-stim","149","208746","0.0-70.0","sub-07_ses-01_2","","2272","0","stim","","<div class = upperbox><div class = ""center-text"" >Couleur</div></div><div class = lowerbox><div class = ""stim-text"" style=color:#1F45FC;>1</div>","89,71","1000","test","Couleur","#1F45FC","1","color","stay","stay","19","true","89","",""
"","","call-function","150","208747","0.0-71.0","sub-07_ses-01_2","","","","set_stims","","","","","","","","","","","","","","","",""
"-1","-1","poldrack-single-stim","151","208866","0.0-72.0","sub-07_ses-01_2","","100","0","cue","","<div class = upperbox><div class = ""center-text"" >Amplitude</div></div><div class = lowerbox><div class = fixation>+</div></div>","none","100","test","Amplitude","#1F45FC","7","magnitude","switch","switch","20","","","",""
"874","71","poldrack-single-stim","152","211007","0.0-73.0","sub-07_ses-01_2","","2136","0","stim","","<div class = upperbox><div class = ""center-text"" >Amplitude</div></div><div class = lowerbox><div class = ""stim-text"" style=color:#1F45FC;>7</div>","89,71","1000","test","Amplitude","#1F45FC","7","magnitude","switch","switch","20","true","71","",""
"","","call-function","153","211008","0.0-74.0","sub-07_ses-01_2","","","","set_stims","","","","","","","","","","","","","","","",""
"-1","-1","poldrack-single-stim","154","211127","0.0-75.0","sub-07_ses-01_2","","100","0","cue","","<div class = upperbox><div class = ""center-text"" >Couleur</div></div><div class = lowerbox><div class = fixation>+</div></div>","none","100","test","Couleur","#1F45FC","1","color","switch","switch","21","","","",""
"1095","89","poldrack-single-stim","155","213147","0.0-76.0","sub-07_ses-01_2","","2000","0","stim","","<div class = upperbox><div class = ""center-text"" >Couleur</div></div><div class = lowerbox><div class = ""stim-text"" style=color:#1F45FC;>1</div>","89,71","1000","test","Couleur","#1F45FC","1","color","switch","switch","21","true","89","",""
"","","call-function","156","213147","0.0-77.0","sub-07_ses-01_2","","","","set_stims","","","","","","","","","","","","","","","",""
"-1","-1","poldrack-single-stim","157","214066","0.0-78.0","sub-07_ses-01_2","","900","0","cue","","<div class = upperbox><div class = ""center-text"" >Couleur</div></div><div class = lowerbox><div class = fixation>+</div></div>","none","900","test","Couleur","orange","9","color","stay","stay","22","","","",""
"450","71","poldrack-single-stim","158","216087","0.0-79.0","sub-07_ses-01_2","","2000","0","stim","","<div class = upperbox><div class = ""center-text"" >Couleur</div></div><div class = lowerbox><div class = ""stim-text"" style=color:orange;>9</div>","89,71","1000","test","Couleur","orange","9","color","stay","stay","22","true","71","",""
"","","call-function","159","216087","0.0-80.0","sub-07_ses-01_2","","","","set_stims","","","","","","","","","","","","","","","",""
"-1","-1","poldrack-single-stim","160","217008","0.0-81.0","sub-07_ses-01_2","","900","0","cue","","<div class = upperbox><div class = ""center-text"" >Amplitude</div></div><div class = lowerbox><div class = fixation>+</div></div>","none","900","test","Amplitude","orange","8","magnitude","switch","switch","23","","","",""
"848","71","poldrack-single-stim","161","219067","0.0-82.0","sub-07_ses-01_2","","2000","0","stim","","<div class = upperbox><div class = ""center-text"" >Amplitude</div></div><div class = lowerbox><div class = ""stim-text"" style=color:orange;>8</div>","89,71","1000","test","Amplitude","orange","8","magnitude","switch","switch","23","true","71","",""
"","","call-function","162","219068","0.0-83.0","sub-07_ses-01_2","","","","set_stims","","","","","","","","","","","","","","","",""
"-1","-1","poldrack-single-stim","163","219991","0.0-84.0","sub-07_ses-01_2","","900","0","cue","","<div class = upperbox><div class = ""center-text"" >Haut-Bas</div></div><div class = lowerbox><div class = fixation>+</div></div>","none","900","test","Haut-Bas","#1F45FC","8","magnitude","stay","switch","24","","","",""
"723","71","poldrack-single-stim","164","222006","0.0-85.0","sub-07_ses-01_2","","2000","0","stim","","<div class = upperbox><div class = ""center-text"" >Haut-Bas</div></div><div class = lowerbox><div class = ""stim-text"" style=color:#1F45FC;>8</div>","89,71","1000","test","Haut-Bas","#1F45FC","8","magnitude","stay","switch","24","true","71","",""
"","","call-function","165","222007","0.0-86.0","sub-07_ses-01_2","","","","set_stims","","","","","","","","","","","","","","","",""
"-1","-1","poldrack-single-stim","166","222126","0.0-87.0","sub-07_ses-01_2","","100","0","cue","","<div class = upperbox><div class = ""center-text"" >Haut-Bas</div></div><div class = lowerbox><div class = fixation>+</div></div>","none","100","test","Haut-Bas","orange","3","magnitude","stay","stay","25","","","",""
"850","89","poldrack-single-stim","167","224146","0.0-88.0","sub-07_ses-01_2","","2000","0","stim","","<div class = upperbox><div class = ""center-text"" >Haut-Bas</div></div><div class = lowerbox><div class = ""stim-text"" style=color:orange;>3</div>","89,71","1000","test","Haut-Bas","orange","3","magnitude","stay","stay","25","true","89","",""
"","","call-function","168","224147","0.0-89.0","sub-07_ses-01_2","","","","set_stims","","","","","","","","","","","","","","","",""
"-1","-1","poldrack-single-stim","169","225067","0.0-90.0","sub-07_ses-01_2","","900","0","cue","","<div class = upperbox><div class = ""center-text"" >Couleur</div></div><div class = lowerbox><div class = fixation>+</div></div>","none","900","test","Couleur","orange","9","color","switch","stay","26","","","",""
"852","71","poldrack-single-stim","170","227206","0.0-91.0","sub-07_ses-01_2","","2136","0","stim","","<div class = upperbox><div class = ""center-text"" >Couleur</div></div><div class = lowerbox><div class = ""stim-text"" style=color:orange;>9</div>","89,71","1000","test","Couleur","orange","9","color","switch","stay","26","true","71","",""
"","","call-function","171","227206","0.0-92.0","sub-07_ses-01_2","","","","set_stims","","","","","","","","","","","","","","","",""
"-1","-1","poldrack-single-stim","172","227327","0.0-93.0","sub-07_ses-01_2","","100","0","cue","","<div class = upperbox><div class = ""center-text"" >Couleur</div></div><div class = lowerbox><div class = fixation>+</div></div>","none","100","test","Couleur","#1F45FC","7","color","stay","stay","27","","","",""
"746","89","poldrack-single-stim","173","229337","0.0-94.0","sub-07_ses-01_2","","2000","0","stim","","<div class = upperbox><div class = ""center-text"" >Couleur</div></div><div class = lowerbox><div class = ""stim-text"" style=color:#1F45FC;>7</div>","89,71","1000","test","Couleur","#1F45FC","7","color","stay","stay","27","true","89","",""
"","","call-function","174","229338","0.0-95.0","sub-07_ses-01_2","","","","set_stims","","","","","","","","","","","","","","","",""
"-1","-1","poldrack-single-stim","175","230257","0.0-96.0","sub-07_ses-01_2","","900","0","cue","","<div class = upperbox><div class = ""center-text"" >Amplitude</div></div><div class = lowerbox><div class = fixation>+</div></div>","none","900","test","Amplitude","orange","3","magnitude","switch","switch","28","","","",""
"837","89","poldrack-single-stim","176","232277","0.0-97.0","sub-07_ses-01_2","","2000","0","stim","","<div class = upperbox><div class = ""center-text"" >Amplitude</div></div><div class = lowerbox><div class = ""stim-text"" style=color:orange;>3</div>","89,71","1000","test","Amplitude","orange","3","magnitude","switch","switch","28","true","89","",""
"","","call-function","177","232278","0.0-98.0","sub-07_ses-01_2","","","","set_stims","","","","","","","","","","","","","","","",""
"-1","-1","poldrack-single-stim","178","232386","0.0-99.0","sub-07_ses-01_2","","100","0","cue","","<div class = upperbox><div class = ""center-text"" >Haut-Bas</div></div><div class = lowerbox><div class = fixation>+</div></div>","none","100","test","Haut-Bas","#1F45FC","8","magnitude","stay","switch","29","","","",""
"1201","71","poldrack-single-stim","179","234537","0.0-100.0","sub-07_ses-01_2","","2136","0","stim","","<div class = upperbox><div class = ""center-text"" >Haut-Bas</div></div><div class = lowerbox><div class = ""stim-text"" style=color:#1F45FC;>8</div>","89,71","1000","test","Haut-Bas","#1F45FC","8","magnitude","stay","switch","29","true","71","",""
"","","call-function","180","234538","0.0-101.0","sub-07_ses-01_2","","","","set_stims","","","","","","","","","","","","","","","",""
"-1","-1","poldrack-single-stim","181","235458","0.0-102.0","sub-07_ses-01_2","","900","0","cue","","<div class = upperbox><div class = ""center-text"" >Amplitude</div></div><div class = lowerbox><div class = fixation>+</div></div>","none","900","test","Amplitude","orange","4","magnitude","stay","switch","30","","","",""
"737","89","poldrack-single-stim","182","237476","0.0-103.0","sub-07_ses-01_2","","2000","0","stim","","<div class = upperbox><div class = ""center-text"" >Amplitude</div></div><div class = lowerbox><div class = ""stim-text"" style=color:orange;>4</div>","89,71","1000","test","Amplitude","orange","4","magnitude","stay","switch","30","true","89","",""
"","","call-function","183","237477","0.0-104.0","sub-07_ses-01_2","","","","set_stims","","","","","","","","","","","","","","","",""
"-1","-1","poldrack-single-stim","184","237596","0.0-105.0","sub-07_ses-01_2","","100","0","cue","","<div class = upperbox><div class = ""center-text"" >Couleur</div></div><div class = lowerbox><div class = fixation>+</div></div>","none","100","test","Couleur","#1F45FC","9","color","switch","switch","31","","","",""
"954","89","poldrack-single-stim","185","239747","0.0-106.0","sub-07_ses-01_2","","2136","0","stim","","<div class = upperbox><div class = ""center-text"" >Couleur</div></div><div class = lowerbox><div class = ""stim-text"" style=color:#1F45FC;>9</div>","89,71","1000","test","Couleur","#1F45FC","9","color","switch","switch","31","true","89","",""
"","","call-function","186","239748","0.0-107.0","sub-07_ses-01_2","","","","set_stims","","","","","","","","","","","","","","","",""
"-1","-1","poldrack-single-stim","187","239867","0.0-108.0","sub-07_ses-01_2","","100","0","cue","","<div class = upperbox><div class = ""center-text"" >Haut-Bas</div></div><div class = lowerbox><div class = fixation>+</div></div>","none","100","test","Haut-Bas","orange","6","magnitude","switch","stay","32","","","",""
"1754","71","poldrack-single-stim","188","242558","0.0-109.0","sub-07_ses-01_2","","2680","0","stim","","<div class = upperbox><div class = ""center-text"" >Haut-Bas</div></div><div class = lowerbox><div class = ""stim-text"" style=color:orange;>6</div>","89,71","1000","test","Haut-Bas","orange","6","magnitude","switch","stay","32","true","71","",""
"","","call-function","189","242559","0.0-110.0","sub-07_ses-01_2","","","","set_stims","","","","","","","","","","","","","","","",""
"-1","-1","poldrack-single-stim","190","242677","0.0-111.0","sub-07_ses-01_2","","100","0","cue","","<div class = upperbox><div class = ""center-text"" >Haut-Bas</div></div><div class = lowerbox><div class = fixation>+</div></div>","none","100","test","Haut-Bas","#1F45FC","7","magnitude","stay","stay","33","","","",""
"1194","71","poldrack-single-stim","191","244957","0.0-112.0","sub-07_ses-01_2","","2272","0","stim","","<div class = upperbox><div class = ""center-text"" >Haut-Bas</div></div><div class = lowerbox><div class = ""stim-text"" style=color:#1F45FC;>7</div>","89,71","1000","test","Haut-Bas","#1F45FC","7","magnitude","stay","stay","33","true","71","",""
"","","call-function","192","244957","0.0-113.0","sub-07_ses-01_2","","","","set_stims","","","","","","","","","","","","","","","",""
"-1","-1","poldrack-single-stim","193","245076","0.0-114.0","sub-07_ses-01_2","","100","0","cue","","<div class = upperbox><div class = ""center-text"" >Haut-Bas</div></div><div class = lowerbox><div class = fixation>+</div></div>","none","100","test","Haut-Bas","orange","4","magnitude","stay","stay","34","","","",""
"986","89","poldrack-single-stim","194","247216","0.0-115.0","sub-07_ses-01_2","","2136","0","stim","","<div class = upperbox><div class = ""center-text"" >Haut-Bas</div></div><div class = lowerbox><div class = ""stim-text"" style=color:orange;>4</div>","89,71","1000","test","Haut-Bas","orange","4","magnitude","stay","stay","34","true","89","",""
"","","call-function","195","247217","0.0-116.0","sub-07_ses-01_2","","","","set_stims","","","","","","","","","","","","","","","",""
"-1","-1","poldrack-single-stim","196","248137","0.0-117.0","sub-07_ses-01_2","","900","0","cue","","<div class = upperbox><div class = ""center-text"" >Orange-Bleu</div></div><div class = lowerbox><div class = fixation>+</div></div>","none","900","test","Orange-Bleu","orange","6","color","switch","switch","35","","","",""
"569","71","poldrack-single-stim","197","250147","0.0-118.0","sub-07_ses-01_2","","2000","0","stim","","<div class = upperbox><div class = ""center-text"" >Orange-Bleu</div></div><div class = lowerbox><div class = ""stim-text"" style=color:orange;>6</div>","89,71","1000","test","Orange-Bleu","orange","6","color","switch","switch","35","true","71","",""
"","","call-function","198","250147","0.0-119.0","sub-07_ses-01_2","","","","set_stims","","","","","","","","","","","","","","","",""
"-1","-1","poldrack-single-stim","199","251067","0.0-120.0","sub-07_ses-01_2","","900","0","cue","","<div class = upperbox><div class = ""center-text"" >Haut-Bas</div></div><div class = lowerbox><div class = fixation>+</div></div>","none","900","test","Haut-Bas","#1F45FC","7","magnitude","switch","stay","36","","","",""
"524","71","poldrack-single-stim","200","253217","0.0-121.0","sub-07_ses-01_2","","2136","0","stim","","<div class = upperbox><div class = ""center-text"" >Haut-Bas</div></div><div class = lowerbox><div class = ""stim-text"" style=color:#1F45FC;>7</div>","89,71","1000","test","Haut-Bas","#1F45FC","7","magnitude","switch","stay","36","true","71","",""
"","","call-function","201","253218","0.0-122.0","sub-07_ses-01_2","","","","set_stims","","","","","","","","","","","","","","","",""
"-1","-1","poldrack-single-stim","202","253337","0.0-123.0","sub-07_ses-01_2","","100","0","cue","","<div class = upperbox><div class = ""center-text"" >Orange-Bleu</div></div><div class = lowerbox><div class = fixation>+</div></div>","none","100","test","Orange-Bleu","#1F45FC","8","color","switch","switch","37","","","",""
"989","89","poldrack-single-stim","203","256026","0.0-124.0","sub-07_ses-01_2","","2680","0","stim","","<div class = upperbox><div class = ""center-text"" >Orange-Bleu</div></div><div class = lowerbox><div class = ""stim-text"" style=color:#1F45FC;>8</div>","89,71","1000","test","Orange-Bleu","#1F45FC","8","color","switch","switch","37","true","89","",""
"","","call-function","204","256026","0.0-125.0","sub-07_ses-01_2","","","","set_stims","","","","","","","","","","","","","","","",""
"-1","-1","poldrack-single-stim","205","256146","0.0-126.0","sub-07_ses-01_2","","100","0","cue","","<div class = upperbox><div class = ""center-text"" >Amplitude</div></div><div class = lowerbox><div class = fixation>+</div></div>","none","100","test","Amplitude","#1F45FC","7","magnitude","switch","stay","38","","","",""
"860","71","poldrack-single-stim","206","258426","0.0-127.0","sub-07_ses-01_2","","2272","0","stim","","<div class = upperbox><div class = ""center-text"" >Amplitude</div></div><div class = lowerbox><div class = ""stim-text"" style=color:#1F45FC;>7</div>","89,71","1000","test","Amplitude","#1F45FC","7","magnitude","switch","stay","38","true","71","",""
"","","call-function","207","258427","0.0-128.0","sub-07_ses-01_2","","","","set_stims","","","","","","","","","","","","","","","",""
"-1","-1","poldrack-single-stim","208","259347","0.0-129.0","sub-07_ses-01_2","","900","0","cue","","<div class = upperbox><div class = ""center-text"" >Haut-Bas</div></div><div class = lowerbox><div class = fixation>+</div></div>","none","900","test","Haut-Bas","#1F45FC","3","magnitude","stay","switch","39","","","",""
"382","89","poldrack-single-stim","209","261357","0.0-130.0","sub-07_ses-01_2","","2000","0","stim","","<div class = upperbox><div class = ""center-text"" >Haut-Bas</div></div><div class = lowerbox><div class = ""stim-text"" style=color:#1F45FC;>3</div>","89,71","1000","test","Haut-Bas","#1F45FC","3","magnitude","stay","switch","39","true","89","",""
"","","call-function","210","261357","0.0-131.0","sub-07_ses-01_2","","","","set_stims","","","","","","","","","","","","","","","",""
"-1","-1","poldrack-single-stim","211","261477","0.0-132.0","sub-07_ses-01_2","","100","0","cue","","<div class = upperbox><div class = ""center-text"" >Orange-Bleu</div></div><div class = lowerbox><div class = fixation>+</div></div>","none","100","test","Orange-Bleu","#1F45FC","8","color","switch","switch","40","","","",""
"812","89","poldrack-single-stim","212","263496","0.0-133.0","sub-07_ses-01_2","","2000","0","stim","","<div class = upperbox><div class = ""center-text"" >Orange-Bleu</div></div><div class = lowerbox><div class = ""stim-text"" style=color:#1F45FC;>8</div>","89,71","1000","test","Orange-Bleu","#1F45FC","8","color","switch","switch","40","true","89","",""
"","","call-function","213","263497","0.0-134.0","sub-07_ses-01_2","","","","set_stims","","","","","","","","","","","","","","","",""
"-1","-1","poldrack-single-stim","214","264417","0.0-135.0","sub-07_ses-01_2","","900","0","cue","","<div class = upperbox><div class = ""center-text"" >Orange-Bleu</div></div><div class = lowerbox><div class = fixation>+</div></div>","none","900","test","Orange-Bleu","#1F45FC","8","color","stay","stay","41","","","",""
"528","89","poldrack-single-stim","215","266556","0.0-136.0","sub-07_ses-01_2","","2136","0","stim","","<div class = upperbox><div class = ""center-text"" >Orange-Bleu</div></div><div class = lowerbox><div class = ""stim-text"" style=color:#1F45FC;>8</div>","89,71","1000","test","Orange-Bleu","#1F45FC","8","color","stay","stay","41","true","89","",""
"","","call-function","216","266557","0.0-137.0","sub-07_ses-01_2","","","","set_stims","","","","","","","","","","","","","","","",""
"-1","-1","poldrack-single-stim","217","266677","0.0-138.0","sub-07_ses-01_2","","100","0","cue","","<div class = upperbox><div class = ""center-text"" >Orange-Bleu</div></div><div class = lowerbox><div class = fixation>+</div></div>","none","100","test","Orange-Bleu","orange","3","color","stay","stay","42","","","",""
"847","71","poldrack-single-stim","218","268687","0.0-139.0","sub-07_ses-01_2","","2000","0","stim","","<div class = upperbox><div class = ""center-text"" >Orange-Bleu</div></div><div class = lowerbox><div class = ""stim-text"" style=color:orange;>3</div>","89,71","1000","test","Orange-Bleu","orange","3","color","stay","stay","42","true","71","",""
"","","call-function","219","268687","0.0-140.0","sub-07_ses-01_2","","","","set_stims","","","","","","","","","","","","","","","",""
"-1","-1","poldrack-single-stim","220","268807","0.0-141.0","sub-07_ses-01_2","","100","0","cue","","<div class = upperbox><div class = ""center-text"" >Orange-Bleu</div></div><div class = lowerbox><div class = fixation>+</div></div>","none","100","test","Orange-Bleu","orange","8","color","stay","stay","43","","","",""
"791","71","poldrack-single-stim","221","270827","0.0-142.0","sub-07_ses-01_2","","2000","0","stim","","<div class = upperbox><div class = ""center-text"" >Orange-Bleu</div></div><div class = lowerbox><div class = ""stim-text"" style=color:orange;>8</div>","89,71","1000","test","Orange-Bleu","orange","8","color","stay","stay","43","true","71","",""
"","","call-function","222","270827","0.0-143.0","sub-07_ses-01_2","","","","set_stims","","","","","","","","","","","","","","","",""
"-1","-1","poldrack-single-stim","223","271746","0.0-144.0","sub-07_ses-01_2","","900","0","cue","","<div class = upperbox><div class = ""center-text"" >Couleur</div></div><div class = lowerbox><div class = fixation>+</div></div>","none","900","test","Couleur","orange","4","color","stay","switch","44","","","",""
"509","71","poldrack-single-stim","224","273767","0.0-145.0","sub-07_ses-01_2","","2000","0","stim","","<div class = upperbox><div class = ""center-text"" >Couleur</div></div><div class = lowerbox><div class = ""stim-text"" style=color:orange;>4</div>","89,71","1000","test","Couleur","orange","4","color","stay","switch","44","true","71","",""
"","","call-function","225","273768","0.0-146.0","sub-07_ses-01_2","","","","set_stims","","","","","","","","","","","","","","","",""
"-1","-1","poldrack-single-stim","226","273887","0.0-147.0","sub-07_ses-01_2","","100","0","cue","","<div class = upperbox><div class = ""center-text"" >Amplitude</div></div><div class = lowerbox><div class = fixation>+</div></div>","none","100","test","Amplitude","orange","9","magnitude","switch","stay","45","","","",""
"756","71","poldrack-single-stim","227","276167","0.0-148.0","sub-07_ses-01_2","","2272","0","stim","","<div class = upperbox><div class = ""center-text"" >Amplitude</div></div><div class = lowerbox><div class = ""stim-text"" style=color:orange;>9</div>","89,71","1000","test","Amplitude","orange","9","magnitude","switch","stay","45","true","71","",""
"","","call-function","228","276168","0.0-149.0","sub-07_ses-01_2","","","","set_stims","","","","","","","","","","","","","","","",""
"-1","-1","poldrack-single-stim","229","277087","0.0-150.0","sub-07_ses-01_2","","900","0","cue","","<div class = upperbox><div class = ""center-text"" >Couleur</div></div><div class = lowerbox><div class = fixation>+</div></div>","none","900","test","Couleur","orange","8","color","switch","stay","46","","","",""
"460","71","poldrack-single-stim","230","279506","0.0-151.0","sub-07_ses-01_2","","2408","0","stim","","<div class = upperbox><div class = ""center-text"" >Couleur</div></div><div class = lowerbox><div class = ""stim-text"" style=color:orange;>8</div>","89,71","1000","test","Couleur","orange","8","color","switch","stay","46","true","71","",""
"","","call-function","231","279507","0.0-152.0","sub-07_ses-01_2","","","","set_stims","","","","","","","","","","","","","","","",""
"-1","-1","poldrack-single-stim","232","280426","0.0-153.0","sub-07_ses-01_2","","900","0","cue","","<div class = upperbox><div class = ""center-text"" >Couleur</div></div><div class = lowerbox><div class = fixation>+</div></div>","none","900","test","Couleur","#1F45FC","6","color","stay","stay","47","","","",""
"457","89","poldrack-single-stim","233","282447","0.0-154.0","sub-07_ses-01_2","","2000","0","stim","","<div class = upperbox><div class = ""center-text"" >Couleur</div></div><div class = lowerbox><div class = ""stim-text"" style=color:#1F45FC;>6</div>","89,71","1000","test","Couleur","#1F45FC","6","color","stay","stay","47","true","89","",""
"","","call-function","234","282448","0.0-155.0","sub-07_ses-01_2","","","","set_stims","","","","","","","","","","","","","","","",""
"-1","-1","poldrack-single-stim","235","282568","0.0-156.0","sub-07_ses-01_2","","100","0","cue","","<div class = upperbox><div class = ""center-text"" >Couleur</div></div><div class = lowerbox><div class = fixation>+</div></div>","none","100","test","Couleur","orange","1","color","stay","stay","48","","","",""
"737","71","poldrack-single-stim","236","284586","0.0-157.0","sub-07_ses-01_2","","2000","0","stim","","<div class = upperbox><div class = ""center-text"" >Couleur</div></div><div class = lowerbox><div class = ""stim-text"" style=color:orange;>1</div>","89,71","1000","test","Couleur","orange","1","color","stay","stay","48","true","71","",""
"","","call-function","237","284587","0.0-158.0","sub-07_ses-01_2","","","","set_stims","","","","","","","","","","","","","","","",""
"-1","-1","poldrack-single-stim","238","284707","0.0-159.0","sub-07_ses-01_2","","100","0","cue","","<div class = upperbox><div class = ""center-text"" >Amplitude</div></div><div class = lowerbox><div class = fixation>+</div></div>","none","100","test","Amplitude","#1F45FC","2","magnitude","switch","stay","49","","","",""
"1157","89","poldrack-single-stim","239","286727","0.0-160.0","sub-07_ses-01_2","","2000","0","stim","","<div class = upperbox><div class = ""center-text"" >Amplitude</div></div><div class = lowerbox><div class = ""stim-text"" style=color:#1F45FC;>2</div>","89,71","1000","test","Amplitude","#1F45FC","2","magnitude","switch","stay","49","true","89","",""
"","","call-function","240","286727","0.0-161.0","sub-07_ses-01_2","","","","set_stims","","","","","","","","","","","","","","","",""
"-1","-1","poldrack-single-stim","241","287646","0.0-162.0","sub-07_ses-01_2","","900","0","cue","","<div class = upperbox><div class = ""center-text"" >Orange-Bleu</div></div><div class = lowerbox><div class = fixation>+</div></div>","none","900","test","Orange-Bleu","#1F45FC","8","color","switch","stay","50","","","",""
"1226","89","poldrack-single-stim","242","289937","0.0-163.0","sub-07_ses-01_2","","2272","0","stim","","<div class = upperbox><div class = ""center-text"" >Orange-Bleu</div></div><div class = lowerbox><div class = ""stim-text"" style=color:#1F45FC;>8</div>","89,71","1000","test","Orange-Bleu","#1F45FC","8","color","switch","stay","50","true","89","",""
"","","call-function","243","289937","0.0-164.0","sub-07_ses-01_2","","","","set_stims","","","","","","","","","","","","","","","",""
"-1","-1","poldrack-single-stim","244","290057","0.0-165.0","sub-07_ses-01_2","","100","0","cue","","<div class = upperbox><div class = ""center-text"" >Orange-Bleu</div></div><div class = lowerbox><div class = fixation>+</div></div>","none","100","test","Orange-Bleu","orange","4","color","stay","stay","51","","","",""
"729","71","poldrack-single-stim","245","292197","0.0-166.0","sub-07_ses-01_2","","2136","0","stim","","<div class = upperbox><div class = ""center-text"" >Orange-Bleu</div></div><div class = lowerbox><div class = ""stim-text"" style=color:orange;>4</div>","89,71","1000","test","Orange-Bleu","orange","4","color","stay","stay","51","true","71","",""
"","","call-function","246","292197","0.0-167.0","sub-07_ses-01_2","","","","set_stims","","","","","","","","","","","","","","","",""
"-1","-1","poldrack-single-stim","247","292317","0.0-168.0","sub-07_ses-01_2","","100","0","cue","","<div class = upperbox><div class = ""center-text"" >Haut-Bas</div></div><div class = lowerbox><div class = fixation>+</div></div>","none","100","test","Haut-Bas","orange","1","magnitude","switch","switch","52","","","",""
"1218","89","poldrack-single-stim","248","294336","0.0-169.0","sub-07_ses-01_2","","2000","0","stim","","<div class = upperbox><div class = ""center-text"" >Haut-Bas</div></div><div class = lowerbox><div class = ""stim-text"" style=color:orange;>1</div>","89,71","1000","test","Haut-Bas","orange","1","magnitude","switch","switch","52","true","89","",""
"","","call-function","249","294337","0.0-170.0","sub-07_ses-01_2","","","","set_stims","","","","","","","","","","","","","","","",""
"-1","-1","poldrack-single-stim","250","294457","0.0-171.0","sub-07_ses-01_2","","100","0","cue","","<div class = upperbox><div class = ""center-text"" >Amplitude</div></div><div class = lowerbox><div class = fixation>+</div></div>","none","100","test","Amplitude","orange","1","magnitude","stay","switch","53","","","",""
"705","89","poldrack-single-stim","251","297006","0.0-172.0","sub-07_ses-01_2","","2544","0","stim","","<div class = upperbox><div class = ""center-text"" >Amplitude</div></div><div class = lowerbox><div class = ""stim-text"" style=color:orange;>1</div>","89,71","1000","test","Amplitude","orange","1","magnitude","stay","switch","53","true","89","",""
"","","call-function","252","297007","0.0-173.0","sub-07_ses-01_2","","","","set_stims","","","","","","","","","","","","","","","",""
"-1","-1","poldrack-single-stim","253","297926","0.0-174.0","sub-07_ses-01_2","","900","0","cue","","<div class = upperbox><div class = ""center-text"" >Couleur</div></div><div class = lowerbox><div class = fixation>+</div></div>","none","900","test","Couleur","orange","9","color","switch","stay","54","","","",""
"438","71","poldrack-single-stim","254","300207","0.0-175.0","sub-07_ses-01_2","","2272","0","stim","","<div class = upperbox><div class = ""center-text"" >Couleur</div></div><div class = lowerbox><div class = ""stim-text"" style=color:orange;>9</div>","89,71","1000","test","Couleur","orange","9","color","switch","stay","54","true","71","",""
"","","call-function","255","300207","0.0-176.0","sub-07_ses-01_2","","","","set_stims","","","","","","","","","","","","","","","",""
"-1","-1","poldrack-single-stim","256","301127","0.0-177.0","sub-07_ses-01_2","","900","0","cue","","<div class = upperbox><div class = ""center-text"" >Couleur</div></div><div class = lowerbox><div class = fixation>+</div></div>","none","900","test","Couleur","orange","1","color","stay","stay","55","","","",""
"474","71","poldrack-single-stim","257","303406","0.0-178.0","sub-07_ses-01_2","","2272","0","stim","","<div class = upperbox><div class = ""center-text"" >Couleur</div></div><div class = lowerbox><div class = ""stim-text"" style=color:orange;>1</div>","89,71","1000","test","Couleur","orange","1","color","stay","stay","55","true","71","",""
"","","call-function","258","303407","0.0-179.0","sub-07_ses-01_2","","","","set_stims","","","","","","","","","","","","","","","",""
"-1","-1","poldrack-single-stim","259","304327","0.0-180.0","sub-07_ses-01_2","","900","0","cue","","<div class = upperbox><div class = ""center-text"" >Orange-Bleu</div></div><div class = lowerbox><div class = fixation>+</div></div>","none","900","test","Orange-Bleu","#1F45FC","4","color","stay","switch","56","","","",""
"324","89","poldrack-single-stim","260","306346","0.0-181.0","sub-07_ses-01_2","","2000","0","stim","","<div class = upperbox><div class = ""center-text"" >Orange-Bleu</div></div><div class = lowerbox><div class = ""stim-text"" style=color:#1F45FC;>4</div>","89,71","1000","test","Orange-Bleu","#1F45FC","4","color","stay","switch","56","true","89","",""
"","","call-function","261","306347","0.0-182.0","sub-07_ses-01_2","","","","set_stims","","","","","","","","","","","","","","","",""
"-1","-1","poldrack-single-stim","262","306467","0.0-183.0","sub-07_ses-01_2","","100","0","cue","","<div class = upperbox><div class = ""center-text"" >Orange-Bleu</div></div><div class = lowerbox><div class = fixation>+</div></div>","none","100","test","Orange-Bleu","#1F45FC","6","color","stay","stay","57","","","",""
"1131","89","poldrack-single-stim","263","308486","0.0-184.0","sub-07_ses-01_2","","2000","0","stim","","<div class = upperbox><div class = ""center-text"" >Orange-Bleu</div></div><div class = lowerbox><div class = ""stim-text"" style=color:#1F45FC;>6</div>","89,71","1000","test","Orange-Bleu","#1F45FC","6","color","stay","stay","57","true","89","",""
"","","call-function","264","308487","0.0-185.0","sub-07_ses-01_2","","","","set_stims","","","","","","","","","","","","","","","",""
"-1","-1","poldrack-single-stim","265","308606","0.0-186.0","sub-07_ses-01_2","","100","0","cue","","<div class = upperbox><div class = ""center-text"" >Amplitude</div></div><div class = lowerbox><div class = fixation>+</div></div>","none","100","test","Amplitude","#1F45FC","1","magnitude","switch","stay","58","","","",""
"1017","89","poldrack-single-stim","266","310755","0.0-187.0","sub-07_ses-01_2","","2136","0","stim","","<div class = upperbox><div class = ""center-text"" >Amplitude</div></div><div class = lowerbox><div class = ""stim-text"" style=color:#1F45FC;>1</div>","89,71","1000","test","Amplitude","#1F45FC","1","magnitude","switch","stay","58","true","89","",""
"","","call-function","267","310755","0.0-188.0","sub-07_ses-01_2","","","","set_stims","","","","","","","","","","","","","","","",""
"-1","-1","poldrack-single-stim","268","311666","0.0-189.0","sub-07_ses-01_2","","900","0","cue","","<div class = upperbox><div class = ""center-text"" >Orange-Bleu</div></div><div class = lowerbox><div class = fixation>+</div></div>","none","900","test","Orange-Bleu","#1F45FC","1","color","switch","stay","59","","","",""
"462","89","poldrack-single-stim","269","313687","0.0-190.0","sub-07_ses-01_2","","2000","0","stim","","<div class = upperbox><div class = ""center-text"" >Orange-Bleu</div></div><div class = lowerbox><div class = ""stim-text"" style=color:#1F45FC;>1</div>","89,71","1000","test","Orange-Bleu","#1F45FC","1","color","switch","stay","59","true","89","",""
"","","call-function","270","313688","0.0-191.0","sub-07_ses-01_2","","","","set_stims","","","","","","","","","","","","","","","",""
"-1","-1","poldrack-single-stim","271","313807","0.0-192.0","sub-07_ses-01_2","","100","0","cue","","<div class = upperbox><div class = ""center-text"" >Couleur</div></div><div class = lowerbox><div class = fixation>+</div></div>","none","100","test","Couleur","orange","2","color","stay","switch","60","","","",""
"683","71","poldrack-single-stim","272","315956","0.0-193.0","sub-07_ses-01_2","","2136","0","stim","","<div class = upperbox><div class = ""center-text"" >Couleur</div></div><div class = lowerbox><div class = ""stim-text"" style=color:orange;>2</div>","89,71","1000","test","Couleur","orange","2","color","stay","switch","60","true","71","",""
"","","call-function","273","315957","0.0-194.0","sub-07_ses-01_2","","","","set_stims","","","","","","","","","","","","","","","",""
"-1","-1","poldrack-single-stim","274","316076","0.0-195.0","sub-07_ses-01_2","","100","0","cue","","<div class = upperbox><div class = ""center-text"" >Haut-Bas</div></div><div class = lowerbox><div class = fixation>+</div></div>","none","100","test","Haut-Bas","orange","4","magnitude","switch","stay","61","","","",""
"930","89","poldrack-single-stim","275","318366","0.0-196.0","sub-07_ses-01_2","","2272","0","stim","","<div class = upperbox><div class = ""center-text"" >Haut-Bas</div></div><div class = lowerbox><div class = ""stim-text"" style=color:orange;>4</div>","89,71","1000","test","Haut-Bas","orange","4","magnitude","switch","stay","61","true","89","",""
"","","call-function","276","318367","0.0-197.0","sub-07_ses-01_2","","","","set_stims","","","","","","","","","","","","","","","",""
"-1","-1","poldrack-single-stim","277","318486","0.0-198.0","sub-07_ses-01_2","","100","0","cue","","<div class = upperbox><div class = ""center-text"" >Couleur</div></div><div class = lowerbox><div class = fixation>+</div></div>","none","100","test","Couleur","#1F45FC","3","color","switch","stay","62","","","",""
"700","89","poldrack-single-stim","278","320637","0.0-199.0","sub-07_ses-01_2","","2136","0","stim","","<div class = upperbox><div class = ""center-text"" >Couleur</div></div><div class = lowerbox><div class = ""stim-text"" style=color:#1F45FC;>3</div>","89,71","1000","test","Couleur","#1F45FC","3","color","switch","stay","62","true","89","",""
"","","call-function","279","320638","0.0-200.0","sub-07_ses-01_2","","","","set_stims","","","","","","","","","","","","","","","",""
"-1","-1","poldrack-single-stim","280","320756","0.0-201.0","sub-07_ses-01_2","","100","0","cue","","<div class = upperbox><div class = ""center-text"" >Couleur</div></div><div class = lowerbox><div class = fixation>+</div></div>","none","100","test","Couleur","#1F45FC","1","color","stay","stay","63","","","",""
"666","89","poldrack-single-stim","281","323046","0.0-202.0","sub-07_ses-01_2","","2272","0","stim","","<div class = upperbox><div class = ""center-text"" >Couleur</div></div><div class = lowerbox><div class = ""stim-text"" style=color:#1F45FC;>1</div>","89,71","1000","test","Couleur","#1F45FC","1","color","stay","stay","63","true","89","",""
"","","call-function","282","323047","0.0-203.0","sub-07_ses-01_2","","","","set_stims","","","","","","","","","","","","","","","",""
"-1","-1","poldrack-single-stim","283","323167","0.0-204.0","sub-07_ses-01_2","","100","0","cue","","<div class = upperbox><div class = ""center-text"" >Haut-Bas</div></div><div class = lowerbox><div class = fixation>+</div></div>","none","100","test","Haut-Bas","#1F45FC","4","magnitude","switch","stay","64","","","",""
"772","89","poldrack-single-stim","284","325186","0.0-205.0","sub-07_ses-01_2","","2000","0","stim","","<div class = upperbox><div class = ""center-text"" >Haut-Bas</div></div><div class = lowerbox><div class = ""stim-text"" style=color:#1F45FC;>4</div>","89,71","1000","test","Haut-Bas","#1F45FC","4","magnitude","switch","stay","64","true","89","",""
"","","call-function","285","325187","0.0-206.0","sub-07_ses-01_2","","","","set_stims","","","","","","","","","","","","","","","",""
"-1","-1","poldrack-single-stim","286","325307","0.0-207.0","sub-07_ses-01_2","","100","0","cue","","<div class = upperbox><div class = ""center-text"" >Haut-Bas</div></div><div class = lowerbox><div class = fixation>+</div></div>","none","100","test","Haut-Bas","orange","4","magnitude","stay","stay","65","","","",""
"1106","89","poldrack-single-stim","287","328137","0.0-208.0","sub-07_ses-01_2","","2816","0","stim","","<div class = upperbox><div class = ""center-text"" >Haut-Bas</div></div><div class = lowerbox><div class = ""stim-text"" style=color:orange;>4</div>","89,71","1000","test","Haut-Bas","orange","4","magnitude","stay","stay","65","true","89","",""
"","","call-function","288","328138","0.0-209.0","sub-07_ses-01_2","","","","set_stims","","","","","","","","","","","","","","","",""
"-1","-1","poldrack-single-stim","289","329058","0.0-210.0","sub-07_ses-01_2","","900","0","cue","","<div class = upperbox><div class = ""center-text"" >Amplitude</div></div><div class = lowerbox><div class = fixation>+</div></div>","none","900","test","Amplitude","#1F45FC","3","magnitude","stay","switch","66","","","",""
"504","89","poldrack-single-stim","290","331476","0.0-211.0","sub-07_ses-01_2","","2408","0","stim","","<div class = upperbox><div class = ""center-text"" >Amplitude</div></div><div class = lowerbox><div class = ""stim-text"" style=color:#1F45FC;>3</div>","89,71","1000","test","Amplitude","#1F45FC","3","magnitude","stay","switch","66","true","89","",""
"","","call-function","291","331476","0.0-212.0","sub-07_ses-01_2","","","","set_stims","","","","","","","","","","","","","","","",""
"-1","-1","poldrack-single-stim","292","332397","0.0-213.0","sub-07_ses-01_2","","900","0","cue","","<div class = upperbox><div class = ""center-text"" >Amplitude</div></div><div class = lowerbox><div class = fixation>+</div></div>","none","900","test","Amplitude","orange","1","magnitude","stay","stay","67","","","",""
"554","89","poldrack-single-stim","293","334417","0.0-214.0","sub-07_ses-01_2","","2000","0","stim","","<div class = upperbox><div class = ""center-text"" >Amplitude</div></div><div class = lowerbox><div class = ""stim-text"" style=color:orange;>1</div>","89,71","1000","test","Amplitude","orange","1","magnitude","stay","stay","67","true","89","",""
"","","call-function","294","334417","0.0-215.0","sub-07_ses-01_2","","","","set_stims","","","","","","","","","","","","","","","",""
"-1","-1","poldrack-single-stim","295","335337","0.0-216.0","sub-07_ses-01_2","","900","0","cue","","<div class = upperbox><div class = ""center-text"" >Amplitude</div></div><div class = lowerbox><div class = fixation>+</div></div>","none","900","test","Amplitude","orange","2","magnitude","stay","stay","68","","","",""
"497","89","poldrack-single-stim","296","337886","0.0-217.0","sub-07_ses-01_2","","2544","0","stim","","<div class = upperbox><div class = ""center-text"" >Amplitude</div></div><div class = lowerbox><div class = ""stim-text"" style=color:orange;>2</div>","89,71","1000","test","Amplitude","orange","2","magnitude","stay","stay","68","true","89","",""
"","","call-function","297","337887","0.0-218.0","sub-07_ses-01_2","","","","set_stims","","","","","","","","","","","","","","","",""
"-1","-1","poldrack-single-stim","298","338006","0.0-219.0","sub-07_ses-01_2","","100","0","cue","","<div class = upperbox><div class = ""center-text"" >Couleur</div></div><div class = lowerbox><div class = fixation>+</div></div>","none","100","test","Couleur","#1F45FC","4","color","switch","switch","69","","","",""
"810","89","poldrack-single-stim","299","340146","0.0-220.0","sub-07_ses-01_2","","2136","0","stim","","<div class = upperbox><div class = ""center-text"" >Couleur</div></div><div class = lowerbox><div class = ""stim-text"" style=color:#1F45FC;>4</div>","89,71","1000","test","Couleur","#1F45FC","4","color","switch","switch","69","true","89","",""
"","","call-function","300","340147","0.0-221.0","sub-07_ses-01_2","","","","set_stims","","","","","","","","","","","","","","","",""
"-1","-1","poldrack-single-stim","301","341068","0.0-222.0","sub-07_ses-01_2","","900","0","cue","","<div class = upperbox><div class = ""center-text"" >Amplitude</div></div><div class = lowerbox><div class = fixation>+</div></div>","none","900","test","Amplitude","#1F45FC","7","magnitude","switch","stay","70","","","",""
"442","71","poldrack-single-stim","302","343076","0.0-223.0","sub-07_ses-01_2","","2000","0","stim","","<div class = upperbox><div class = ""center-text"" >Amplitude</div></div><div class = lowerbox><div class = ""stim-text"" style=color:#1F45FC;>7</div>","89,71","1000","test","Amplitude","#1F45FC","7","magnitude","switch","stay","70","true","71","",""
"","","call-function","303","343076","0.0-224.0","sub-07_ses-01_2","","","","set_stims","","","","","","","","","","","","","","","",""
"-1","-1","poldrack-single-stim","304","343996","0.0-225.0","sub-07_ses-01_2","","900","0","cue","","<div class = upperbox><div class = ""center-text"" >Amplitude</div></div><div class = lowerbox><div class = fixation>+</div></div>","none","900","test","Amplitude","orange","3","magnitude","stay","stay","71","","","",""
"572","89","poldrack-single-stim","305","346016","0.0-226.0","sub-07_ses-01_2","","2000","0","stim","","<div class = upperbox><div class = ""center-text"" >Amplitude</div></div><div class = lowerbox><div class = ""stim-text"" style=color:orange;>3</div>","89,71","1000","test","Amplitude","orange","3","magnitude","stay","stay","71","true","89","",""
"","","call-function","306","346017","0.0-227.0","sub-07_ses-01_2","","","","set_stims","","","","","","","","","","","","","","","",""
"-1","-1","poldrack-single-stim","307","346136","0.0-228.0","sub-07_ses-01_2","","100","0","cue","","<div class = upperbox><div class = ""center-text"" >Haut-Bas</div></div><div class = lowerbox><div class = fixation>+</div></div>","none","100","test","Haut-Bas","orange","8","magnitude","stay","switch","72","","","",""
"841","71","poldrack-single-stim","308","348276","0.0-229.0","sub-07_ses-01_2","","2136","0","stim","","<div class = upperbox><div class = ""center-text"" >Haut-Bas</div></div><div class = lowerbox><div class = ""stim-text"" style=color:orange;>8</div>","89,71","1000","test","Haut-Bas","orange","8","magnitude","stay","switch","72","true","71","",""
"","","call-function","309","348277","0.0-230.0","sub-07_ses-01_2","","","","set_stims","","","","","","","","","","","","","","","",""
"-1","-1","poldrack-single-stim","310","349199","0.0-231.0","sub-07_ses-01_2","","900","0","cue","","<div class = upperbox><div class = ""center-text"" >Haut-Bas</div></div><div class = lowerbox><div class = fixation>+</div></div>","none","900","test","Haut-Bas","orange","6","magnitude","stay","stay","73","","","",""
"868","71","poldrack-single-stim","311","351356","0.0-232.0","sub-07_ses-01_2","","2136","0","stim","","<div class = upperbox><div class = ""center-text"" >Haut-Bas</div></div><div class = lowerbox><div class = ""stim-text"" style=color:orange;>6</div>","89,71","1000","test","Haut-Bas","orange","6","magnitude","stay","stay","73","true","71","",""
"","","call-function","312","351357","0.0-233.0","sub-07_ses-01_2","","","","set_stims","","","","","","","","","","","","","","","",""
"-1","-1","poldrack-single-stim","313","352277","0.0-234.0","sub-07_ses-01_2","","900","0","cue","","<div class = upperbox><div class = ""center-text"" >Orange-Bleu</div></div><div class = lowerbox><div class = fixation>+</div></div>","none","900","test","Orange-Bleu","#1F45FC","1","color","switch","switch","74","","","",""
"516","89","poldrack-single-stim","314","354565","0.0-235.0","sub-07_ses-01_2","","2272","0","stim","","<div class = upperbox><div class = ""center-text"" >Orange-Bleu</div></div><div class = lowerbox><div class = ""stim-text"" style=color:#1F45FC;>1</div>","89,71","1000","test","Orange-Bleu","#1F45FC","1","color","switch","switch","74","true","89","",""
"","","call-function","315","354567","0.0-236.0","sub-07_ses-01_2","","","","set_stims","","","","","","","","","","","","","","","",""
"-1","-1","poldrack-single-stim","316","354687","0.0-237.0","sub-07_ses-01_2","","100","0","cue","","<div class = upperbox><div class = ""center-text"" >Couleur</div></div><div class = lowerbox><div class = fixation>+</div></div>","none","100","test","Couleur","#1F45FC","8","color","stay","switch","75","","","",""
"684","89","poldrack-single-stim","317","357927","0.0-238.0","sub-07_ses-01_2","","3224","0","stim","","<div class = upperbox><div class = ""center-text"" >Couleur</div></div><div class = lowerbox><div class = ""stim-text"" style=color:#1F45FC;>8</div>","89,71","1000","test","Couleur","#1F45FC","8","color","stay","switch","75","true","89","",""
"","","call-function","318","357928","0.0-239.0","sub-07_ses-01_2","","","","set_stims","","","","","","","","","","","","","","","",""
"-1","-1","poldrack-single-stim","319","358047","0.0-240.0","sub-07_ses-01_2","","100","0","cue","","<div class = upperbox><div class = ""center-text"" >Orange-Bleu</div></div><div class = lowerbox><div class = fixation>+</div></div>","none","100","test","Orange-Bleu","orange","4","color","stay","switch","76","","","",""
"778","71","poldrack-single-stim","320","360067","0.0-241.0","sub-07_ses-01_2","","2000","0","stim","","<div class = upperbox><div class = ""center-text"" >Orange-Bleu</div></div><div class = lowerbox><div class = ""stim-text"" style=color:orange;>4</div>","89,71","1000","test","Orange-Bleu","orange","4","color","stay","switch","76","true","71","",""
"","","call-function","321","360068","0.0-242.0","sub-07_ses-01_2","","","","set_stims","","","","","","","","","","","","","","","",""
"-1","-1","poldrack-single-stim","322","360187","0.0-243.0","sub-07_ses-01_2","","100","0","cue","","<div class = upperbox><div class = ""center-text"" >Haut-Bas</div></div><div class = lowerbox><div class = fixation>+</div></div>","none","100","test","Haut-Bas","#1F45FC","2","magnitude","switch","switch","77","","","",""
"635","89","poldrack-single-stim","323","362206","0.0-244.0","sub-07_ses-01_2","","2000","0","stim","","<div class = upperbox><div class = ""center-text"" >Haut-Bas</div></div><div class = lowerbox><div class = ""stim-text"" style=color:#1F45FC;>2</div>","89,71","1000","test","Haut-Bas","#1F45FC","2","magnitude","switch","switch","77","true","89","",""
"","","call-function","324","362207","0.0-245.0","sub-07_ses-01_2","","","","set_stims","","","","","","","","","","","","","","","",""
"-1","-1","poldrack-single-stim","325","363127","0.0-246.0","sub-07_ses-01_2","","900","0","cue","","<div class = upperbox><div class = ""center-text"" >Orange-Bleu</div></div><div class = lowerbox><div class = fixation>+</div></div>","none","900","test","Orange-Bleu","orange","7","color","switch","switch","78","","","",""
"602","71","poldrack-single-stim","326","365417","0.0-247.0","sub-07_ses-01_2","","2272","0","stim","","<div class = upperbox><div class = ""center-text"" >Orange-Bleu</div></div><div class = lowerbox><div class = ""stim-text"" style=color:orange;>7</div>","89,71","1000","test","Orange-Bleu","orange","7","color","switch","switch","78","true","71","",""
"","","call-function","327","365418","0.0-248.0","sub-07_ses-01_2","","","","set_stims","","","","","","","","","","","","","","","",""
"-1","-1","poldrack-single-stim","328","365536","0.0-249.0","sub-07_ses-01_2","","100","0","cue","","<div class = upperbox><div class = ""center-text"" >Amplitude</div></div><div class = lowerbox><div class = fixation>+</div></div>","none","100","test","Amplitude","#1F45FC","2","magnitude","switch","switch","79","","","",""
"767","89","poldrack-single-stim","329","367697","0.0-250.0","sub-07_ses-01_2","","2136","0","stim","","<div class = upperbox><div class = ""center-text"" >Amplitude</div></div><div class = lowerbox><div class = ""stim-text"" style=color:#1F45FC;>2</div>","89,71","1000","test","Amplitude","#1F45FC","2","magnitude","switch","switch","79","true","89","",""
"-1","-1","poldrack-single-stim","330","377713","0.0-251.0","sub-07_ses-01_2","","10000","1000","rest_block","","<div class = centerbox><div class = center-text>+</div></div>","none","10000","","","","","","","","","","","",""
"-1","-1","poldrack-single-stim","331","380239","0.0-252.0","sub-07_ses-01_2","","1500","500","test_start_block","","<div class = centerbox><div class = center-text>Preparez-vous!</p></div>","none","1500","","","","","","","","","","","",""
"-1","-1","poldrack-single-stim","332","381277","0.0-253.0","sub-07_ses-01_2","","500","0","fixation","","<div class = upperbox><div class = fixation>+</div></div><div class = lowerbox><div class = fixation>+</div></div>","none","500","test","","","","","","","","","","",""
"","","call-function","333","381278","0.0-254.0","sub-07_ses-01_2","","","","set_stims","","","","","","","","","","","","","","","",""
"-1","-1","poldrack-single-stim","334","381399","0.0-255.0","sub-07_ses-01_2","","100","0","cue","","<div class = upperbox><div class = ""center-text"" >Couleur</div></div><div class = lowerbox><div class = fixation>+</div></div>","none","100","test","Couleur","#1F45FC","7","color","stay","stay","0","","","",""
"804","89","poldrack-single-stim","335","383414","0.0-256.0","sub-07_ses-01_2","","2000","0","stim","","<div class = upperbox><div class = ""center-text"" >Couleur</div></div><div class = lowerbox><div class = ""stim-text"" style=color:#1F45FC;>7</div>","89,71","1000","test","Couleur","#1F45FC","7","color","stay","stay","0","true","89","",""
"","","call-function","336","383414","0.0-257.0","sub-07_ses-01_2","","","","set_stims","","","","","","","","","","","","","","","",""
"-1","-1","poldrack-single-stim","337","384316","0.0-258.0","sub-07_ses-01_2","","900","0","cue","","<div class = upperbox><div class = ""center-text"" >Haut-Bas</div></div><div class = lowerbox><div class = fixation>+</div></div>","none","900","test","Haut-Bas","#1F45FC","8","magnitude","switch","stay","1","","","",""
"791","71","poldrack-single-stim","338","386336","0.0-259.0","sub-07_ses-01_2","","2000","0","stim","","<div class = upperbox><div class = ""center-text"" >Haut-Bas</div></div><div class = lowerbox><div class = ""stim-text"" style=color:#1F45FC;>8</div>","89,71","1000","test","Haut-Bas","#1F45FC","8","magnitude","switch","stay","1","true","71","",""
"","","call-function","339","386336","0.0-260.0","sub-07_ses-01_2","","","","set_stims","","","","","","","","","","","","","","","",""
"-1","-1","poldrack-single-stim","340","387257","0.0-261.0","sub-07_ses-01_2","","900","0","cue","","<div class = upperbox><div class = ""center-text"" >Orange-Bleu</div></div><div class = lowerbox><div class = fixation>+</div></div>","none","900","test","Orange-Bleu","#1F45FC","1","color","switch","stay","2","","","",""
"727","89","poldrack-single-stim","341","389277","0.0-262.0","sub-07_ses-01_2","","2000","0","stim","","<div class = upperbox><div class = ""center-text"" >Orange-Bleu</div></div><div class = lowerbox><div class = ""stim-text"" style=color:#1F45FC;>1</div>","89,71","1000","test","Orange-Bleu","#1F45FC","1","color","switch","stay","2","true","89","",""
"","","call-function","342","389277","0.0-263.0","sub-07_ses-01_2","","","","set_stims","","","","","","","","","","","","","","","",""
"-1","-1","poldrack-single-stim","343","389396","0.0-264.0","sub-07_ses-01_2","","100","0","cue","","<div class = upperbox><div class = ""center-text"" >Haut-Bas</div></div><div class = lowerbox><div class = fixation>+</div></div>","none","100","test","Haut-Bas","orange","2","magnitude","switch","stay","3","","","",""
"858","89","poldrack-single-stim","344","392087","0.0-265.0","sub-07_ses-01_2","","2680","0","stim","","<div class = upperbox><div class = ""center-text"" >Haut-Bas</div></div><div class = lowerbox><div class = ""stim-text"" style=color:orange;>2</div>","89,71","1000","test","Haut-Bas","orange","2","magnitude","switch","stay","3","true","89","",""
"","","call-function","345","392087","0.0-266.0","sub-07_ses-01_2","","","","set_stims","","","","","","","","","","","","","","","",""
"-1","-1","poldrack-single-stim","346","392207","0.0-267.0","sub-07_ses-01_2","","100","0","cue","","<div class = upperbox><div class = ""center-text"" >Orange-Bleu</div></div><div class = lowerbox><div class = fixation>+</div></div>","none","100","test","Orange-Bleu","#1F45FC","8","color","switch","switch","4","","","",""
"821","89","poldrack-single-stim","347","394216","0.0-268.0","sub-07_ses-01_2","","2000","0","stim","","<div class = upperbox><div class = ""center-text"" >Orange-Bleu</div></div><div class = lowerbox><div class = ""stim-text"" style=color:#1F45FC;>8</div>","89,71","1000","test","Orange-Bleu","#1F45FC","8","color","switch","switch","4","true","89","",""
"","","call-function","348","394217","0.0-269.0","sub-07_ses-01_2","","","","set_stims","","","","","","","","","","","","","","","",""
"-1","-1","poldrack-single-stim","349","395137","0.0-270.0","sub-07_ses-01_2","","900","0","cue","","<div class = upperbox><div class = ""center-text"" >Orange-Bleu</div></div><div class = lowerbox><div class = fixation>+</div></div>","none","900","test","Orange-Bleu","#1F45FC","2","color","stay","stay","5","","","",""
"522","89","poldrack-single-stim","350","397417","0.0-271.0","sub-07_ses-01_2","","2272","0","stim","","<div class = upperbox><div class = ""center-text"" >Orange-Bleu</div></div><div class = lowerbox><div class = ""stim-text"" style=color:#1F45FC;>2</div>","89,71","1000","test","Orange-Bleu","#1F45FC","2","color","stay","stay","5","true","89","",""
"","","call-function","351","397417","0.0-272.0","sub-07_ses-01_2","","","","set_stims","","","","","","","","","","","","","","","",""
"-1","-1","poldrack-single-stim","352","398336","0.0-273.0","sub-07_ses-01_2","","900","0","cue","","<div class = upperbox><div class = ""center-text"" >Couleur</div></div><div class = lowerbox><div class = fixation>+</div></div>","none","900","test","Couleur","#1F45FC","8","color","stay","switch","6","","","",""
"451","89","poldrack-single-stim","353","400357","0.0-274.0","sub-07_ses-01_2","","2000","0","stim","","<div class = upperbox><div class = ""center-text"" >Couleur</div></div><div class = lowerbox><div class = ""stim-text"" style=color:#1F45FC;>8</div>","89,71","1000","test","Couleur","#1F45FC","8","color","stay","switch","6","true","89","",""
"","","call-function","354","400358","0.0-275.0","sub-07_ses-01_2","","","","set_stims","","","","","","","","","","","","","","","",""
"-1","-1","poldrack-single-stim","355","400476","0.0-276.0","sub-07_ses-01_2","","100","0","cue","","<div class = upperbox><div class = ""center-text"" >Orange-Bleu</div></div><div class = lowerbox><div class = fixation>+</div></div>","none","100","test","Orange-Bleu","#1F45FC","9","color","stay","switch","7","","","",""
"757","89","poldrack-single-stim","356","402757","0.0-277.0","sub-07_ses-01_2","","2272","0","stim","","<div class = upperbox><div class = ""center-text"" >Orange-Bleu</div></div><div class = lowerbox><div class = ""stim-text"" style=color:#1F45FC;>9</div>","89,71","1000","test","Orange-Bleu","#1F45FC","9","color","stay","switch","7","true","89","",""
"","","call-function","357","402757","0.0-278.0","sub-07_ses-01_2","","","","set_stims","","","","","","","","","","","","","","","",""
"-1","-1","poldrack-single-stim","358","402877","0.0-279.0","sub-07_ses-01_2","","100","0","cue","","<div class = upperbox><div class = ""center-text"" >Amplitude</div></div><div class = lowerbox><div class = fixation>+</div></div>","none","100","test","Amplitude","#1F45FC","9","magnitude","switch","switch","8","","","",""
"1129","71","poldrack-single-stim","359","405846","0.0-280.0","sub-07_ses-01_2","","2952","0","stim","","<div class = upperbox><div class = ""center-text"" >Amplitude</div></div><div class = lowerbox><div class = ""stim-text"" style=color:#1F45FC;>9</div>","89,71","1000","test","Amplitude","#1F45FC","9","magnitude","switch","switch","8","true","71","",""
"","","call-function","360","405846","0.0-281.0","sub-07_ses-01_2","","","","set_stims","","","","","","","","","","","","","","","",""
"-1","-1","poldrack-single-stim","361","405967","0.0-282.0","sub-07_ses-01_2","","100","0","cue","","<div class = upperbox><div class = ""center-text"" >Orange-Bleu</div></div><div class = lowerbox><div class = fixation>+</div></div>","none","100","test","Orange-Bleu","orange","7","color","switch","switch","9","","","",""
"963","89","poldrack-single-stim","362","407976","0.0-283.0","sub-07_ses-01_2","","2000","0","stim","","<div class = upperbox><div class = ""center-text"" >Orange-Bleu</div></div><div class = lowerbox><div class = ""stim-text"" style=color:orange;>7</div>","89,71","1000","test","Orange-Bleu","orange","7","color","switch","switch","9","false","71","",""
"","","call-function","363","407977","0.0-284.0","sub-07_ses-01_2","","","","set_stims","","","","","","","","","","","","","","","",""
"-1","-1","poldrack-single-stim","364","408096","0.0-285.0","sub-07_ses-01_2","","100","0","cue","","<div class = upperbox><div class = ""center-text"" >Amplitude</div></div><div class = lowerbox><div class = fixation>+</div></div>","none","100","test","Amplitude","#1F45FC","8","magnitude","switch","switch","10","","","",""
"1200","71","poldrack-single-stim","365","410116","0.0-286.0","sub-07_ses-01_2","","2000","0","stim","","<div class = upperbox><div class = ""center-text"" >Amplitude</div></div><div class = lowerbox><div class = ""stim-text"" style=color:#1F45FC;>8</div>","89,71","1000","test","Amplitude","#1F45FC","8","magnitude","switch","switch","10","true","71","",""
"","","call-function","366","410116","0.0-287.0","sub-07_ses-01_2","","","","set_stims","","","","","","","","","","","","","","","",""
"-1","-1","poldrack-single-stim","367","410237","0.0-288.0","sub-07_ses-01_2","","100","0","cue","","<div class = upperbox><div class = ""center-text"" >Haut-Bas</div></div><div class = lowerbox><div class = fixation>+</div></div>","none","100","test","Haut-Bas","orange","4","magnitude","stay","switch","11","","","",""
"1136","89","poldrack-single-stim","368","412257","0.0-289.0","sub-07_ses-01_2","","2000","0","stim","","<div class = upperbox><div class = ""center-text"" >Haut-Bas</div></div><div class = lowerbox><div class = ""stim-text"" style=color:orange;>4</div>","89,71","1000","test","Haut-Bas","orange","4","magnitude","stay","switch","11","true","89","",""
"","","call-function","369","412258","0.0-290.0","sub-07_ses-01_2","","","","set_stims","","","","","","","","","","","","","","","",""
"-1","-1","poldrack-single-stim","370","413168","0.0-291.0","sub-07_ses-01_2","","900","0","cue","","<div class = upperbox><div class = ""center-text"" >Orange-Bleu</div></div><div class = lowerbox><div class = fixation>+</div></div>","none","900","test","Orange-Bleu","orange","8","color","switch","stay","12","","","",""
"411","71","poldrack-single-stim","371","415186","0.0-292.0","sub-07_ses-01_2","","2000","0","stim","","<div class = upperbox><div class = ""center-text"" >Orange-Bleu</div></div><div class = lowerbox><div class = ""stim-text"" style=color:orange;>8</div>","89,71","1000","test","Orange-Bleu","orange","8","color","switch","stay","12","true","71","",""
"","","call-function","372","415188","0.0-293.0","sub-07_ses-01_2","","","","set_stims","","","","","","","","","","","","","","","",""
"-1","-1","poldrack-single-stim","373","416107","0.0-294.0","sub-07_ses-01_2","","900","0","cue","","<div class = upperbox><div class = ""center-text"" >Haut-Bas</div></div><div class = lowerbox><div class = fixation>+</div></div>","none","900","test","Haut-Bas","orange","9","magnitude","switch","stay","13","","","",""
"1166","71","poldrack-single-stim","374","418247","0.0-295.0","sub-07_ses-01_2","","2136","0","stim","","<div class = upperbox><div class = ""center-text"" >Haut-Bas</div></div><div class = lowerbox><div class = ""stim-text"" style=color:orange;>9</div>","89,71","1000","test","Haut-Bas","orange","9","magnitude","switch","stay","13","true","71","",""
"","","call-function","375","418247","0.0-296.0","sub-07_ses-01_2","","","","set_stims","","","","","","","","","","","","","","","",""
"-1","-1","poldrack-single-stim","376","419167","0.0-297.0","sub-07_ses-01_2","","900","0","cue","","<div class = upperbox><div class = ""center-text"" >Amplitude</div></div><div class = lowerbox><div class = fixation>+</div></div>","none","900","test","Amplitude","orange","7","magnitude","stay","switch","14","","","",""
