"rt","key_press","trial_type","trial_index","time_elapsed","internal_node_id","subject","text","block_duration","timing_post_trial","trial_id","stimulus","possible_responses","stim_duration","exp_stage","which_round","num_click_in_round","num_cards","num_loss_cards","gain_amount","loss_amount","round_points","clicked_on_loss_card","reward","exp_id"
"2011","13","text","0","2013","0.0-0.0","sub-06_sess-03_2","","","","","","","","","","","","","","","","","",""
"1681","89","poldrack-text","1","4712","0.0-1.0","sub-06_sess-03_2","<div class = centerbox><div style = 'font-size: 50px' class = center-text>Veuillez appuyer avec votre index</p></div>","1681","500","fmri_response_test","","","","","","","","","","","","","",""
"322","71","poldrack-text","2","5552","0.0-2.0","sub-06_sess-03_2","<div class = centerbox><div style = 'font-size: 50px' class = center-text>Veuillez appuyer avec votre majeur</p></div>","322","500","fmri_response_test","","","","","","","","","","","","","",""
"2800","32","poldrack-single-stim","3","8871","0.0-3.0","sub-06_sess-03_2","","2800","500","instructions","<div class = centerbox><div class = center-text><font size=""+3"">Essayez d'obtenir autant de points que possible<br><br>Le montant des pertres, le montant du gain et le nombre de cartes de perte peuvent changer a chaque essai<br><br>Index: Prendre autre carte <br>Majeur: Fin de la ronde</font></div></div>","32","2800","","","","","","","","","","",""
"2182","32","poldrack-text","4","11581","0.0-4.0","sub-06_sess-03_2","<div class = centerbox><div  class = center-text>Scanner Setup</div></div>","2182","0","fmri_scanner_wait","","","","","","","","","","","","","",""
"54999","84","poldrack-text","5","66581","0.0-5.0","sub-06_sess-03_2","<div class = centerbox><div style='color:red'; class = center-text>+</div></div>","54999","0","fmri_trigger_wait","","","","","","","","","","","","","",""
"-1","-1","poldrack-single-stim","6","67588","0.0-6.0","sub-06_sess-03_2","","1000","0","fmri_buffer","","none","1000","","","","","","","","","","",""
"-1","-1","poldrack-single-stim","7","69108","0.0-7.0","sub-06_sess-03_2","","1500","500","test_start_block","<div class = centerbox><div class = center-text>Preparez-vous!</p></div>","none","1500","","","","","","","","","","",""
"1095","89","poldrack-single-stim","8","70732","0.0-8.0-0.0-0.0","sub-06_sess-03_2","","1095","0","stim","<div class = cct-box><div class = titleBigBox>   <div class = titleboxLeft><div class = game-text id = game_round>Tour: 1</div></div>   <div class = titleboxLeft1><div class = game-text id = loss_amount>Pertes: -70</div></div>    <div class = titleboxMiddle1><div class = game-text id = gain_amount>Gains: 12</div></div>    <div class = titlebox><div class = game-text>Combien de cartes voulez-vous prendre? </div></div>     <div class = titleboxRight1><div class = game-text id = num_loss_cards><font size='+3'>Mauveaises Cartes: 1</font></div></div>   <div class = titleboxRight><div class = game-text id = current_round>Points du tour: 0</div></div><div class = cardbox><div class = square><input type='image' id = 1 class = 'card_image' src='/static/experiments/columbia_card_task_hot/images/beforeChosen.png'></div><div class = square><input type='image' id = 2 class = 'card_image' src='/static/experiments/columbia_card_task_hot/images/beforeChosen.png'></div><div class = square><input type='image' id = 3 class = 'card_image' src='/static/experiments/columbia_card_task_hot/images/beforeChosen.png'></div><div class = square><input type='image' id = 4 class = 'card_image' src='/static/experiments/columbia_card_task_hot/images/beforeChosen.png'></div><div class = square><input type='image' id = 5 class = 'card_image' src='/static/experiments/columbia_card_task_hot/images/beforeChosen.png'></div><div class = square><input type='image' id = 6 class = 'card_image' src='/static/experiments/columbia_card_task_hot/images/beforeChosen.png'></div></div>","89,71","1095","test","1","1","6","1","12","-70","12","false","",""
"760","89","poldrack-single-stim","9","71502","0.0-8.0-0.1-0.1","sub-06_sess-03_2","","760","0","stim","<div class = cct-box><div class = titleBigBox>   <div class = titleboxLeft><div class = game-text id = game_round>Tour: 1</div></div>   <div class = titleboxLeft1><div class = game-text id = loss_amount>Pertes: -70</div></div>    <div class = titleboxMiddle1><div class = game-text id = gain_amount>Gains: 12</div></div>    <div class = titlebox><div class = game-text>Combien de cartes voulez-vous prendre? </div></div>     <div class = titleboxRight1><div class = game-text id = num_loss_cards><font size='+3'>Mauveaises Cartes: 1</font></div></div>   <div class = titleboxRight><div class = game-text id = current_round>Points du tour: 12</div></div><div class = cardbox><div class = square><input type='image' id = 1 class = 'card_image' src='/static/experiments/columbia_card_task_hot/images/beforeChosen.png'></div><div class = square><input type='image' id = 2 class = 'card_image' src='/static/experiments/columbia_card_task_hot/images/beforeChosen.png'></div><div class = square><input type='image' id = 3 class = 'card_image' src='/static/experiments/columbia_card_task_hot/images/chosen.png'></div><div class = square><input type='image' id = 4 class = 'card_image' src='/static/experiments/columbia_card_task_hot/images/beforeChosen.png'></div><div class = square><input type='image' id = 5 class = 'card_image' src='/static/experiments/columbia_card_task_hot/images/beforeChosen.png'></div><div class = square><input type='image' id = 6 class = 'card_image' src='/static/experiments/columbia_card_task_hot/images/beforeChosen.png'></div></div>","89,71","760","test","1","2","6","1","12","-70","24","false","",""
"849","89","poldrack-single-stim","10","72357","0.0-8.0-0.2-0.2","sub-06_sess-03_2","","849","0","stim","<div class = cct-box><div class = titleBigBox>   <div class = titleboxLeft><div class = game-text id = game_round>Tour: 1</div></div>   <div class = titleboxLeft1><div class = game-text id = loss_amount>Pertes: -70</div></div>    <div class = titleboxMiddle1><div class = game-text id = gain_amount>Gains: 12</div></div>    <div class = titlebox><div class = game-text>Combien de cartes voulez-vous prendre? </div></div>     <div class = titleboxRight1><div class = game-text id = num_loss_cards><font size='+3'>Mauveaises Cartes: 1</font></div></div>   <div class = titleboxRight><div class = game-text id = current_round>Points du tour: 24</div></div><div class = cardbox><div class = square><input type='image' id = 1 class = 'card_image' src='/static/experiments/columbia_card_task_hot/images/chosen.png'></div><div class = square><input type='image' id = 2 class = 'card_image' src='/static/experiments/columbia_card_task_hot/images/beforeChosen.png'></div><div class = square><input type='image' id = 3 class = 'card_image' src='/static/experiments/columbia_card_task_hot/images/chosen.png'></div><div class = square><input type='image' id = 4 class = 'card_image' src='/static/experiments/columbia_card_task_hot/images/beforeChosen.png'></div><div class = square><input type='image' id = 5 class = 'card_image' src='/static/experiments/columbia_card_task_hot/images/beforeChosen.png'></div><div class = square><input type='image' id = 6 class = 'card_image' src='/static/experiments/columbia_card_task_hot/images/beforeChosen.png'></div></div>","89,71","849","test","1","3","6","1","12","-70","36","false","",""
"468","71","poldrack-single-stim","11","72831","0.0-8.0-0.3-0.3","sub-06_sess-03_2","","468","0","stim","<div class = cct-box><div class = titleBigBox>   <div class = titleboxLeft><div class = game-text id = game_round>Tour: 1</div></div>   <div class = titleboxLeft1><div class = game-text id = loss_amount>Pertes: -70</div></div>    <div class = titleboxMiddle1><div class = game-text id = gain_amount>Gains: 12</div></div>    <div class = titlebox><div class = game-text>Combien de cartes voulez-vous prendre? </div></div>     <div class = titleboxRight1><div class = game-text id = num_loss_cards><font size='+3'>Mauveaises Cartes: 1</font></div></div>   <div class = titleboxRight><div class = game-text id = current_round>Points du tour: 36</div></div><div class = cardbox><div class = square><input type='image' id = 1 class = 'card_image' src='/static/experiments/columbia_card_task_hot/images/chosen.png'></div><div class = square><input type='image' id = 2 class = 'card_image' src='/static/experiments/columbia_card_task_hot/images/beforeChosen.png'></div><div class = square><input type='image' id = 3 class = 'card_image' src='/static/experiments/columbia_card_task_hot/images/chosen.png'></div><div class = square><input type='image' id = 4 class = 'card_image' src='/static/experiments/columbia_card_task_hot/images/beforeChosen.png'></div><div class = square><input type='image' id = 5 class = 'card_image' src='/static/experiments/columbia_card_task_hot/images/beforeChosen.png'></div><div class = square><input type='image' id = 6 class = 'card_image' src='/static/experiments/columbia_card_task_hot/images/chosen.png'></div></div>","89,71","468","test","1","3","6","1","12","-70","36","false","",""
"-1","-1","poldrack-single-stim","12","75307","0.0-8.0-1.0","sub-06_sess-03_2","","2454","0","ITI","<div class = cct-box><div class = titleBigBox>   <div class = titleboxLeft><div class = game-text id = game_round>Tour: 1</div></div>   <div class = titleboxLeft1><div class = game-text id = loss_amount>Pertes: -70</div></div>    <div class = titleboxMiddle1><div class = game-text id = gain_amount>Gains: 12</div></div>    <div class = titlebox><div class = game-text>Combien de cartes voulez-vous prendre? </div></div>     <div class = titleboxRight1><div class = game-text id = num_loss_cards><font size='+3'>Mauveaises Cartes: 1</font></div></div>   <div class = titleboxRight><div class = game-text id = current_round>Points du tour: 36</div></div><div class = cardbox><div class = square><input type='image' id = 1 class = 'card_image' src='/static/experiments/columbia_card_task_hot/images/chosen.png'></div><div class = square><input type='image' id = 2 class = 'card_image' src='/static/experiments/columbia_card_task_hot/images/beforeChosen.png'></div><div class = square><input type='image' id = 3 class = 'card_image' src='/static/experiments/columbia_card_task_hot/images/chosen.png'></div><div class = square><input type='image' id = 4 class = 'card_image' src='/static/experiments/columbia_card_task_hot/images/beforeChosen.png'></div><div class = square><input type='image' id = 5 class = 'card_image' src='/static/experiments/columbia_card_task_hot/images/beforeChosen.png'></div><div class = square><input type='image' id = 6 class = 'card_image' src='/static/experiments/columbia_card_task_hot/images/chosen.png'></div></div>","none","2250","","","","","","","","","","",""
"749","89","poldrack-single-stim","13","76063","0.0-8.1-0.4-0.4","sub-06_sess-03_2","","749","0","stim","<div class = cct-box><div class = titleBigBox>   <div class = titleboxLeft><div class = game-text id = game_round>Tour: 2</div></div>   <div class = titleboxLeft1><div class = game-text id = loss_amount>Pertes: -75</div></div>    <div class = titleboxMiddle1><div class = game-text id = gain_amount>Gains: 14</div></div>    <div class = titlebox><div class = game-text>Combien de cartes voulez-vous prendre? </div></div>     <div class = titleboxRight1><div class = game-text id = num_loss_cards><font size='+3'>Mauveaises Cartes: 1</font></div></div>   <div class = titleboxRight><div class = game-text id = current_round>Points du tour: 0</div></div><div class = cardbox><div class = square><input type='image' id = 1 class = 'card_image' src='/static/experiments/columbia_card_task_hot/images/beforeChosen.png'></div><div class = square><input type='image' id = 2 class = 'card_image' src='/static/experiments/columbia_card_task_hot/images/beforeChosen.png'></div><div class = square><input type='image' id = 3 class = 'card_image' src='/static/experiments/columbia_card_task_hot/images/beforeChosen.png'></div><div class = square><input type='image' id = 4 class = 'card_image' src='/static/experiments/columbia_card_task_hot/images/beforeChosen.png'></div><div class = square><input type='image' id = 5 class = 'card_image' src='/static/experiments/columbia_card_task_hot/images/beforeChosen.png'></div><div class = square><input type='image' id = 6 class = 'card_image' src='/static/experiments/columbia_card_task_hot/images/beforeChosen.png'></div></div>","89,71","749","test","2","1","6","1","14","-75","14","false","",""
"863","89","poldrack-single-stim","14","76931","0.0-8.1-0.5-0.5","sub-06_sess-03_2","","863","0","stim","<div class = cct-box><div class = titleBigBox>   <div class = titleboxLeft><div class = game-text id = game_round>Tour: 2</div></div>   <div class = titleboxLeft1><div class = game-text id = loss_amount>Pertes: -75</div></div>    <div class = titleboxMiddle1><div class = game-text id = gain_amount>Gains: 14</div></div>    <div class = titlebox><div class = game-text>Combien de cartes voulez-vous prendre? </div></div>     <div class = titleboxRight1><div class = game-text id = num_loss_cards><font size='+3'>Mauveaises Cartes: 1</font></div></div>   <div class = titleboxRight><div class = game-text id = current_round>Points du tour: 14</div></div><div class = cardbox><div class = square><input type='image' id = 1 class = 'card_image' src='/static/experiments/columbia_card_task_hot/images/chosen.png'></div><div class = square><input type='image' id = 2 class = 'card_image' src='/static/experiments/columbia_card_task_hot/images/beforeChosen.png'></div><div class = square><input type='image' id = 3 class = 'card_image' src='/static/experiments/columbia_card_task_hot/images/beforeChosen.png'></div><div class = square><input type='image' id = 4 class = 'card_image' src='/static/experiments/columbia_card_task_hot/images/beforeChosen.png'></div><div class = square><input type='image' id = 5 class = 'card_image' src='/static/experiments/columbia_card_task_hot/images/beforeChosen.png'></div><div class = square><input type='image' id = 6 class = 'card_image' src='/static/experiments/columbia_card_task_hot/images/beforeChosen.png'></div></div>","89,71","863","test","2","2","6","1","14","-75","28","false","",""
"967","89","poldrack-single-stim","15","77905","0.0-8.1-0.6-0.6","sub-06_sess-03_2","","967","0","stim","<div class = cct-box><div class = titleBigBox>   <div class = titleboxLeft><div class = game-text id = game_round>Tour: 2</div></div>   <div class = titleboxLeft1><div class = game-text id = loss_amount>Pertes: -75</div></div>    <div class = titleboxMiddle1><div class = game-text id = gain_amount>Gains: 14</div></div>    <div class = titlebox><div class = game-text>Combien de cartes voulez-vous prendre? </div></div>     <div class = titleboxRight1><div class = game-text id = num_loss_cards><font size='+3'>Mauveaises Cartes: 1</font></div></div>   <div class = titleboxRight><div class = game-text id = current_round>Points du tour: 28</div></div><div class = cardbox><div class = square><input type='image' id = 1 class = 'card_image' src='/static/experiments/columbia_card_task_hot/images/chosen.png'></div><div class = square><input type='image' id = 2 class = 'card_image' src='/static/experiments/columbia_card_task_hot/images/beforeChosen.png'></div><div class = square><input type='image' id = 3 class = 'card_image' src='/static/experiments/columbia_card_task_hot/images/beforeChosen.png'></div><div class = square><input type='image' id = 4 class = 'card_image' src='/static/experiments/columbia_card_task_hot/images/beforeChosen.png'></div><div class = square><input type='image' id = 5 class = 'card_image' src='/static/experiments/columbia_card_task_hot/images/beforeChosen.png'></div><div class = square><input type='image' id = 6 class = 'card_image' src='/static/experiments/columbia_card_task_hot/images/chosen.png'></div></div>","89,71","967","test","2","3","6","1","14","-75","-47","true","",""
"-1","-1","poldrack-single-stim","16","80368","0.0-8.1-1.1","sub-06_sess-03_2","","2454","0","ITI","<div class = cct-box><div class = titleBigBox>   <div class = titleboxLeft><div class = game-text id = game_round>Tour: 2</div></div>   <div class = titleboxLeft1><div class = game-text id = loss_amount>Pertes: -75</div></div>    <div class = titleboxMiddle1><div class = game-text id = gain_amount>Gains: 14</div></div>    <div class = titlebox><div class = game-text>Combien de cartes voulez-vous prendre? </div></div>     <div class = titleboxRight1><div class = game-text id = num_loss_cards><font size='+3'>Mauveaises Cartes: 1</font></div></div>   <div class = titleboxRight><div class = game-text id = current_round>Points du tour: -47</div></div><div class = cardbox><div class = square><input type='image' id = 1 class = 'card_image' src='/static/experiments/columbia_card_task_hot/images/chosen.png'></div><div class = square><input type='image' id = 2 class = 'card_image' src='/static/experiments/columbia_card_task_hot/images/beforeChosen.png'></div><div class = square><input type='image' id = 3 class = 'card_image' src='/static/experiments/columbia_card_task_hot/images/beforeChosen.png'></div><div class = square><input type='image' id = 4 class = 'card_image' src='/static/experiments/columbia_card_task_hot/images/loss.png'></div><div class = square><input type='image' id = 5 class = 'card_image' src='/static/experiments/columbia_card_task_hot/images/beforeChosen.png'></div><div class = square><input type='image' id = 6 class = 'card_image' src='/static/experiments/columbia_card_task_hot/images/chosen.png'></div></div>","none","2250","","","","","","","","","","",""
"333","89","poldrack-single-stim","17","80708","0.0-8.2-0.7-0.7","sub-06_sess-03_2","","333","0","stim","<div class = cct-box><div class = titleBigBox>   <div class = titleboxLeft><div class = game-text id = game_round>Tour: 3</div></div>   <div class = titleboxLeft1><div class = game-text id = loss_amount>Pertes: -70</div></div>    <div class = titleboxMiddle1><div class = game-text id = gain_amount>Gains: 15</div></div>    <div class = titlebox><div class = game-text>Combien de cartes voulez-vous prendre? </div></div>     <div class = titleboxRight1><div class = game-text id = num_loss_cards><font size='+3'>Mauveaises Cartes: 1</font></div></div>   <div class = titleboxRight><div class = game-text id = current_round>Points du tour: 0</div></div><div class = cardbox><div class = square><input type='image' id = 1 class = 'card_image' src='/static/experiments/columbia_card_task_hot/images/beforeChosen.png'></div><div class = square><input type='image' id = 2 class = 'card_image' src='/static/experiments/columbia_card_task_hot/images/beforeChosen.png'></div><div class = square><input type='image' id = 3 class = 'card_image' src='/static/experiments/columbia_card_task_hot/images/beforeChosen.png'></div><div class = square><input type='image' id = 4 class = 'card_image' src='/static/experiments/columbia_card_task_hot/images/beforeChosen.png'></div><div class = square><input type='image' id = 5 class = 'card_image' src='/static/experiments/columbia_card_task_hot/images/beforeChosen.png'></div><div class = square><input type='image' id = 6 class = 'card_image' src='/static/experiments/columbia_card_task_hot/images/beforeChosen.png'></div></div>","89,71","333","test","3","1","6","1","15","-70","15","false","",""
"1000","89","poldrack-single-stim","18","81713","0.0-8.2-0.8-0.8","sub-06_sess-03_2","","1000","0","stim","<div class = cct-box><div class = titleBigBox>   <div class = titleboxLeft><div class = game-text id = game_round>Tour: 3</div></div>   <div class = titleboxLeft1><div class = game-text id = loss_amount>Pertes: -70</div></div>    <div class = titleboxMiddle1><div class = game-text id = gain_amount>Gains: 15</div></div>    <div class = titlebox><div class = game-text>Combien de cartes voulez-vous prendre? </div></div>     <div class = titleboxRight1><div class = game-text id = num_loss_cards><font size='+3'>Mauveaises Cartes: 1</font></div></div>   <div class = titleboxRight><div class = game-text id = current_round>Points du tour: 15</div></div><div class = cardbox><div class = square><input type='image' id = 1 class = 'card_image' src='/static/experiments/columbia_card_task_hot/images/beforeChosen.png'></div><div class = square><input type='image' id = 2 class = 'card_image' src='/static/experiments/columbia_card_task_hot/images/beforeChosen.png'></div><div class = square><input type='image' id = 3 class = 'card_image' src='/static/experiments/columbia_card_task_hot/images/chosen.png'></div><div class = square><input type='image' id = 4 class = 'card_image' src='/static/experiments/columbia_card_task_hot/images/beforeChosen.png'></div><div class = square><input type='image' id = 5 class = 'card_image' src='/static/experiments/columbia_card_task_hot/images/beforeChosen.png'></div><div class = square><input type='image' id = 6 class = 'card_image' src='/static/experiments/columbia_card_task_hot/images/beforeChosen.png'></div></div>","89,71","1000","test","3","2","6","1","15","-70","-55","true","",""
"-1","-1","poldrack-single-stim","19","84256","0.0-8.2-1.2","sub-06_sess-03_2","","2522","0","ITI","<div class = cct-box><div class = titleBigBox>   <div class = titleboxLeft><div class = game-text id = game_round>Tour: 3</div></div>   <div class = titleboxLeft1><div class = game-text id = loss_amount>Pertes: -70</div></div>    <div class = titleboxMiddle1><div class = game-text id = gain_amount>Gains: 15</div></div>    <div class = titlebox><div class = game-text>Combien de cartes voulez-vous prendre? </div></div>     <div class = titleboxRight1><div class = game-text id = num_loss_cards><font size='+3'>Mauveaises Cartes: 1</font></div></div>   <div class = titleboxRight><div class = game-text id = current_round>Points du tour: -55</div></div><div class = cardbox><div class = square><input type='image' id = 1 class = 'card_image' src='/static/experiments/columbia_card_task_hot/images/beforeChosen.png'></div><div class = square><input type='image' id = 2 class = 'card_image' src='/static/experiments/columbia_card_task_hot/images/loss.png'></div><div class = square><input type='image' id = 3 class = 'card_image' src='/static/experiments/columbia_card_task_hot/images/chosen.png'></div><div class = square><input type='image' id = 4 class = 'card_image' src='/static/experiments/columbia_card_task_hot/images/beforeChosen.png'></div><div class = square><input type='image' id = 5 class = 'card_image' src='/static/experiments/columbia_card_task_hot/images/beforeChosen.png'></div><div class = square><input type='image' id = 6 class = 'card_image' src='/static/experiments/columbia_card_task_hot/images/beforeChosen.png'></div></div>","none","2250","","","","","","","","","","",""
"845","89","poldrack-single-stim","20","85104","0.0-8.3-0.9-0.9","sub-06_sess-03_2","","845","0","stim","<div class = cct-box><div class = titleBigBox>   <div class = titleboxLeft><div class = game-text id = game_round>Tour: 4</div></div>   <div class = titleboxLeft1><div class = game-text id = loss_amount>Pertes: -75</div></div>    <div class = titleboxMiddle1><div class = game-text id = gain_amount>Gains: 17</div></div>    <div class = titlebox><div class = game-text>Combien de cartes voulez-vous prendre? </div></div>     <div class = titleboxRight1><div class = game-text id = num_loss_cards><font size='+3'>Mauveaises Cartes: 1</font></div></div>   <div class = titleboxRight><div class = game-text id = current_round>Points du tour: 0</div></div><div class = cardbox><div class = square><input type='image' id = 1 class = 'card_image' src='/static/experiments/columbia_card_task_hot/images/beforeChosen.png'></div><div class = square><input type='image' id = 2 class = 'card_image' src='/static/experiments/columbia_card_task_hot/images/beforeChosen.png'></div><div class = square><input type='image' id = 3 class = 'card_image' src='/static/experiments/columbia_card_task_hot/images/beforeChosen.png'></div><div class = square><input type='image' id = 4 class = 'card_image' src='/static/experiments/columbia_card_task_hot/images/beforeChosen.png'></div><div class = square><input type='image' id = 5 class = 'card_image' src='/static/experiments/columbia_card_task_hot/images/beforeChosen.png'></div><div class = square><input type='image' id = 6 class = 'card_image' src='/static/experiments/columbia_card_task_hot/images/beforeChosen.png'></div></div>","89,71","845","test","4","1","6","1","17","-75","17","false","",""
"828","89","poldrack-single-stim","21","85935","0.0-8.3-0.10-0.10","sub-06_sess-03_2","","828","0","stim","<div class = cct-box><div class = titleBigBox>   <div class = titleboxLeft><div class = game-text id = game_round>Tour: 4</div></div>   <div class = titleboxLeft1><div class = game-text id = loss_amount>Pertes: -75</div></div>    <div class = titleboxMiddle1><div class = game-text id = gain_amount>Gains: 17</div></div>    <div class = titlebox><div class = game-text>Combien de cartes voulez-vous prendre? </div></div>     <div class = titleboxRight1><div class = game-text id = num_loss_cards><font size='+3'>Mauveaises Cartes: 1</font></div></div>   <div class = titleboxRight><div class = game-text id = current_round>Points du tour: 17</div></div><div class = cardbox><div class = square><input type='image' id = 1 class = 'card_image' src='/static/experiments/columbia_card_task_hot/images/beforeChosen.png'></div><div class = square><input type='image' id = 2 class = 'card_image' src='/static/experiments/columbia_card_task_hot/images/beforeChosen.png'></div><div class = square><input type='image' id = 3 class = 'card_image' src='/static/experiments/columbia_card_task_hot/images/beforeChosen.png'></div><div class = square><input type='image' id = 4 class = 'card_image' src='/static/experiments/columbia_card_task_hot/images/beforeChosen.png'></div><div class = square><input type='image' id = 5 class = 'card_image' src='/static/experiments/columbia_card_task_hot/images/chosen.png'></div><div class = square><input type='image' id = 6 class = 'card_image' src='/static/experiments/columbia_card_task_hot/images/beforeChosen.png'></div></div>","89,71","828","test","4","2","6","1","17","-75","34","false","",""
"933","71","poldrack-single-stim","22","86869","0.0-8.3-0.11-0.11","sub-06_sess-03_2","","933","0","stim","<div class = cct-box><div class = titleBigBox>   <div class = titleboxLeft><div class = game-text id = game_round>Tour: 4</div></div>   <div class = titleboxLeft1><div class = game-text id = loss_amount>Pertes: -75</div></div>    <div class = titleboxMiddle1><div class = game-text id = gain_amount>Gains: 17</div></div>    <div class = titlebox><div class = game-text>Combien de cartes voulez-vous prendre? </div></div>     <div class = titleboxRight1><div class = game-text id = num_loss_cards><font size='+3'>Mauveaises Cartes: 1</font></div></div>   <div class = titleboxRight><div class = game-text id = current_round>Points du tour: 34</div></div><div class = cardbox><div class = square><input type='image' id = 1 class = 'card_image' src='/static/experiments/columbia_card_task_hot/images/chosen.png'></div><div class = square><input type='image' id = 2 class = 'card_image' src='/static/experiments/columbia_card_task_hot/images/beforeChosen.png'></div><div class = square><input type='image' id = 3 class = 'card_image' src='/static/experiments/columbia_card_task_hot/images/beforeChosen.png'></div><div class = square><input type='image' id = 4 class = 'card_image' src='/static/experiments/columbia_card_task_hot/images/beforeChosen.png'></div><div class = square><input type='image' id = 5 class = 'card_image' src='/static/experiments/columbia_card_task_hot/images/chosen.png'></div><div class = square><input type='image' id = 6 class = 'card_image' src='/static/experiments/columbia_card_task_hot/images/beforeChosen.png'></div></div>","89,71","933","test","4","2","6","1","17","-75","34","false","",""
"-1","-1","poldrack-single-stim","23","89336","0.0-8.3-1.3","sub-06_sess-03_2","","2454","0","ITI","<div class = cct-box><div class = titleBigBox>   <div class = titleboxLeft><div class = game-text id = game_round>Tour: 4</div></div>   <div class = titleboxLeft1><div class = game-text id = loss_amount>Pertes: -75</div></div>    <div class = titleboxMiddle1><div class = game-text id = gain_amount>Gains: 17</div></div>    <div class = titlebox><div class = game-text>Combien de cartes voulez-vous prendre? </div></div>     <div class = titleboxRight1><div class = game-text id = num_loss_cards><font size='+3'>Mauveaises Cartes: 1</font></div></div>   <div class = titleboxRight><div class = game-text id = current_round>Points du tour: 34</div></div><div class = cardbox><div class = square><input type='image' id = 1 class = 'card_image' src='/static/experiments/columbia_card_task_hot/images/chosen.png'></div><div class = square><input type='image' id = 2 class = 'card_image' src='/static/experiments/columbia_card_task_hot/images/beforeChosen.png'></div><div class = square><input type='image' id = 3 class = 'card_image' src='/static/experiments/columbia_card_task_hot/images/beforeChosen.png'></div><div class = square><input type='image' id = 4 class = 'card_image' src='/static/experiments/columbia_card_task_hot/images/beforeChosen.png'></div><div class = square><input type='image' id = 5 class = 'card_image' src='/static/experiments/columbia_card_task_hot/images/chosen.png'></div><div class = square><input type='image' id = 6 class = 'card_image' src='/static/experiments/columbia_card_task_hot/images/beforeChosen.png'></div></div>","none","2250","","","","","","","","","","",""
"1148","89","poldrack-single-stim","24","90490","0.0-8.4-0.12-0.12","sub-06_sess-03_2","","1148","0","stim","<div class = cct-box><div class = titleBigBox>   <div class = titleboxLeft><div class = game-text id = game_round>Tour: 5</div></div>   <div class = titleboxLeft1><div class = game-text id = loss_amount>Pertes: -60</div></div>    <div class = titleboxMiddle1><div class = game-text id = gain_amount>Gains: 24</div></div>    <div class = titlebox><div class = game-text>Combien de cartes voulez-vous prendre? </div></div>     <div class = titleboxRight1><div class = game-text id = num_loss_cards><font size='+3'>Mauveaises Cartes: 2</font></div></div>   <div class = titleboxRight><div class = game-text id = current_round>Points du tour: 0</div></div><div class = cardbox><div class = square><input type='image' id = 1 class = 'card_image' src='/static/experiments/columbia_card_task_hot/images/beforeChosen.png'></div><div class = square><input type='image' id = 2 class = 'card_image' src='/static/experiments/columbia_card_task_hot/images/beforeChosen.png'></div><div class = square><input type='image' id = 3 class = 'card_image' src='/static/experiments/columbia_card_task_hot/images/beforeChosen.png'></div><div class = square><input type='image' id = 4 class = 'card_image' src='/static/experiments/columbia_card_task_hot/images/beforeChosen.png'></div><div class = square><input type='image' id = 5 class = 'card_image' src='/static/experiments/columbia_card_task_hot/images/beforeChosen.png'></div><div class = square><input type='image' id = 6 class = 'card_image' src='/static/experiments/columbia_card_task_hot/images/beforeChosen.png'></div><div class = square><input type='image' id = 7 class = 'card_image' src='/static/experiments/columbia_card_task_hot/images/beforeChosen.png'></div><div class = square><input type='image' id = 8 class = 'card_image' src='/static/experiments/columbia_card_task_hot/images/beforeChosen.png'></div></div>","89,71","1148","test","5","1","8","2","24","-60","24","false","",""
"853","89","poldrack-single-stim","25","91350","0.0-8.4-0.13-0.13","sub-06_sess-03_2","","853","0","stim","<div class = cct-box><div class = titleBigBox>   <div class = titleboxLeft><div class = game-text id = game_round>Tour: 5</div></div>   <div class = titleboxLeft1><div class = game-text id = loss_amount>Pertes: -60</div></div>    <div class = titleboxMiddle1><div class = game-text id = gain_amount>Gains: 24</div></div>    <div class = titlebox><div class = game-text>Combien de cartes voulez-vous prendre? </div></div>     <div class = titleboxRight1><div class = game-text id = num_loss_cards><font size='+3'>Mauveaises Cartes: 2</font></div></div>   <div class = titleboxRight><div class = game-text id = current_round>Points du tour: 24</div></div><div class = cardbox><div class = square><input type='image' id = 1 class = 'card_image' src='/static/experiments/columbia_card_task_hot/images/beforeChosen.png'></div><div class = square><input type='image' id = 2 class = 'card_image' src='/static/experiments/columbia_card_task_hot/images/beforeChosen.png'></div><div class = square><input type='image' id = 3 class = 'card_image' src='/static/experiments/columbia_card_task_hot/images/beforeChosen.png'></div><div class = square><input type='image' id = 4 class = 'card_image' src='/static/experiments/columbia_card_task_hot/images/beforeChosen.png'></div><div class = square><input type='image' id = 5 class = 'card_image' src='/static/experiments/columbia_card_task_hot/images/chosen.png'></div><div class = square><input type='image' id = 6 class = 'card_image' src='/static/experiments/columbia_card_task_hot/images/beforeChosen.png'></div><div class = square><input type='image' id = 7 class = 'card_image' src='/static/experiments/columbia_card_task_hot/images/beforeChosen.png'></div><div class = square><input type='image' id = 8 class = 'card_image' src='/static/experiments/columbia_card_task_hot/images/beforeChosen.png'></div></div>","89,71","853","test","5","2","8","2","24","-60","48","false","",""
"1049","89","poldrack-single-stim","26","92403","0.0-8.4-0.14-0.14","sub-06_sess-03_2","","1049","0","stim","<div class = cct-box><div class = titleBigBox>   <div class = titleboxLeft><div class = game-text id = game_round>Tour: 5</div></div>   <div class = titleboxLeft1><div class = game-text id = loss_amount>Pertes: -60</div></div>    <div class = titleboxMiddle1><div class = game-text id = gain_amount>Gains: 24</div></div>    <div class = titlebox><div class = game-text>Combien de cartes voulez-vous prendre? </div></div>     <div class = titleboxRight1><div class = game-text id = num_loss_cards><font size='+3'>Mauveaises Cartes: 2</font></div></div>   <div class = titleboxRight><div class = game-text id = current_round>Points du tour: 48</div></div><div class = cardbox><div class = square><input type='image' id = 1 class = 'card_image' src='/static/experiments/columbia_card_task_hot/images/chosen.png'></div><div class = square><input type='image' id = 2 class = 'card_image' src='/static/experiments/columbia_card_task_hot/images/beforeChosen.png'></div><div class = square><input type='image' id = 3 class = 'card_image' src='/static/experiments/columbia_card_task_hot/images/beforeChosen.png'></div><div class = square><input type='image' id = 4 class = 'card_image' src='/static/experiments/columbia_card_task_hot/images/beforeChosen.png'></div><div class = square><input type='image' id = 5 class = 'card_image' src='/static/experiments/columbia_card_task_hot/images/chosen.png'></div><div class = square><input type='image' id = 6 class = 'card_image' src='/static/experiments/columbia_card_task_hot/images/beforeChosen.png'></div><div class = square><input type='image' id = 7 class = 'card_image' src='/static/experiments/columbia_card_task_hot/images/beforeChosen.png'></div><div class = square><input type='image' id = 8 class = 'card_image' src='/static/experiments/columbia_card_task_hot/images/beforeChosen.png'></div></div>","89,71","1049","test","5","3","8","2","24","-60","72","false","",""
"864","89","poldrack-single-stim","27","93269","0.0-8.4-0.15-0.15","sub-06_sess-03_2","","864","0","stim","<div class = cct-box><div class = titleBigBox>   <div class = titleboxLeft><div class = game-text id = game_round>Tour: 5</div></div>   <div class = titleboxLeft1><div class = game-text id = loss_amount>Pertes: -60</div></div>    <div class = titleboxMiddle1><div class = game-text id = gain_amount>Gains: 24</div></div>    <div class = titlebox><div class = game-text>Combien de cartes voulez-vous prendre? </div></div>     <div class = titleboxRight1><div class = game-text id = num_loss_cards><font size='+3'>Mauveaises Cartes: 2</font></div></div>   <div class = titleboxRight><div class = game-text id = current_round>Points du tour: 72</div></div><div class = cardbox><div class = square><input type='image' id = 1 class = 'card_image' src='/static/experiments/columbia_card_task_hot/images/chosen.png'></div><div class = square><input type='image' id = 2 class = 'card_image' src='/static/experiments/columbia_card_task_hot/images/chosen.png'></div><div class = square><input type='image' id = 3 class = 'card_image' src='/static/experiments/columbia_card_task_hot/images/beforeChosen.png'></div><div class = square><input type='image' id = 4 class = 'card_image' src='/static/experiments/columbia_card_task_hot/images/beforeChosen.png'></div><div class = square><input type='image' id = 5 class = 'card_image' src='/static/experiments/columbia_card_task_hot/images/chosen.png'></div><div class = square><input type='image' id = 6 class = 'card_image' src='/static/experiments/columbia_card_task_hot/images/beforeChosen.png'></div><div class = square><input type='image' id = 7 class = 'card_image' src='/static/experiments/columbia_card_task_hot/images/beforeChosen.png'></div><div class = square><input type='image' id = 8 class = 'card_image' src='/static/experiments/columbia_card_task_hot/images/beforeChosen.png'></div></div>","89,71","864","test","5","4","8","2","24","-60","12","true","",""
"-1","-1","poldrack-single-stim","28","95937","0.0-8.4-1.4","sub-06_sess-03_2","","2658","0","ITI","<div class = cct-box><div class = titleBigBox>   <div class = titleboxLeft><div class = game-text id = game_round>Tour: 5</div></div>   <div class = titleboxLeft1><div class = game-text id = loss_amount>Pertes: -60</div></div>    <div class = titleboxMiddle1><div class = game-text id = gain_amount>Gains: 24</div></div>    <div class = titlebox><div class = game-text>Combien de cartes voulez-vous prendre? </div></div>     <div class = titleboxRight1><div class = game-text id = num_loss_cards><font size='+3'>Mauveaises Cartes: 2</font></div></div>   <div class = titleboxRight><div class = game-text id = current_round>Points du tour: 12</div></div><div class = cardbox><div class = square><input type='image' id = 1 class = 'card_image' src='/static/experiments/columbia_card_task_hot/images/chosen.png'></div><div class = square><input type='image' id = 2 class = 'card_image' src='/static/experiments/columbia_card_task_hot/images/chosen.png'></div><div class = square><input type='image' id = 3 class = 'card_image' src='/static/experiments/columbia_card_task_hot/images/beforeChosen.png'></div><div class = square><input type='image' id = 4 class = 'card_image' src='/static/experiments/columbia_card_task_hot/images/beforeChosen.png'></div><div class = square><input type='image' id = 5 class = 'card_image' src='/static/experiments/columbia_card_task_hot/images/chosen.png'></div><div class = square><input type='image' id = 6 class = 'card_image' src='/static/experiments/columbia_card_task_hot/images/beforeChosen.png'></div><div class = square><input type='image' id = 7 class = 'card_image' src='/static/experiments/columbia_card_task_hot/images/loss.png'></div><div class = square><input type='image' id = 8 class = 'card_image' src='/static/experiments/columbia_card_task_hot/images/beforeChosen.png'></div></div>","none","2250","","","","","","","","","","",""
"212","89","poldrack-single-stim","29","96156","0.0-8.5-0.16-0.16","sub-06_sess-03_2","","212","0","stim","<div class = cct-box><div class = titleBigBox>   <div class = titleboxLeft><div class = game-text id = game_round>Tour: 6</div></div>   <div class = titleboxLeft1><div class = game-text id = loss_amount>Pertes: -75</div></div>    <div class = titleboxMiddle1><div class = game-text id = gain_amount>Gains: 29</div></div>    <div class = titlebox><div class = game-text>Combien de cartes voulez-vous prendre? </div></div>     <div class = titleboxRight1><div class = game-text id = num_loss_cards><font size='+3'>Mauveaises Cartes: 2</font></div></div>   <div class = titleboxRight><div class = game-text id = current_round>Points du tour: 0</div></div><div class = cardbox><div class = square><input type='image' id = 1 class = 'card_image' src='/static/experiments/columbia_card_task_hot/images/beforeChosen.png'></div><div class = square><input type='image' id = 2 class = 'card_image' src='/static/experiments/columbia_card_task_hot/images/beforeChosen.png'></div><div class = square><input type='image' id = 3 class = 'card_image' src='/static/experiments/columbia_card_task_hot/images/beforeChosen.png'></div><div class = square><input type='image' id = 4 class = 'card_image' src='/static/experiments/columbia_card_task_hot/images/beforeChosen.png'></div><div class = square><input type='image' id = 5 class = 'card_image' src='/static/experiments/columbia_card_task_hot/images/beforeChosen.png'></div><div class = square><input type='image' id = 6 class = 'card_image' src='/static/experiments/columbia_card_task_hot/images/beforeChosen.png'></div><div class = square><input type='image' id = 7 class = 'card_image' src='/static/experiments/columbia_card_task_hot/images/beforeChosen.png'></div><div class = square><input type='image' id = 8 class = 'card_image' src='/static/experiments/columbia_card_task_hot/images/beforeChosen.png'></div></div>","89,71","212","test","6","1","8","2","29","-75","-75","true","",""
"-1","-1","poldrack-single-stim","30","98558","0.0-8.5-1.5","sub-06_sess-03_2","","2386","0","ITI","<div class = cct-box><div class = titleBigBox>   <div class = titleboxLeft><div class = game-text id = game_round>Tour: 6</div></div>   <div class = titleboxLeft1><div class = game-text id = loss_amount>Pertes: -75</div></div>    <div class = titleboxMiddle1><div class = game-text id = gain_amount>Gains: 29</div></div>    <div class = titlebox><div class = game-text>Combien de cartes voulez-vous prendre? </div></div>     <div class = titleboxRight1><div class = game-text id = num_loss_cards><font size='+3'>Mauveaises Cartes: 2</font></div></div>   <div class = titleboxRight><div class = game-text id = current_round>Points du tour: -75</div></div><div class = cardbox><div class = square><input type='image' id = 1 class = 'card_image' src='/static/experiments/columbia_card_task_hot/images/beforeChosen.png'></div><div class = square><input type='image' id = 2 class = 'card_image' src='/static/experiments/columbia_card_task_hot/images/beforeChosen.png'></div><div class = square><input type='image' id = 3 class = 'card_image' src='/static/experiments/columbia_card_task_hot/images/beforeChosen.png'></div><div class = square><input type='image' id = 4 class = 'card_image' src='/static/experiments/columbia_card_task_hot/images/beforeChosen.png'></div><div class = square><input type='image' id = 5 class = 'card_image' src='/static/experiments/columbia_card_task_hot/images/beforeChosen.png'></div><div class = square><input type='image' id = 6 class = 'card_image' src='/static/experiments/columbia_card_task_hot/images/beforeChosen.png'></div><div class = square><input type='image' id = 7 class = 'card_image' src='/static/experiments/columbia_card_task_hot/images/loss.png'></div><div class = square><input type='image' id = 8 class = 'card_image' src='/static/experiments/columbia_card_task_hot/images/beforeChosen.png'></div></div>","none","2250","","","","","","","","","","",""
"559","89","poldrack-single-stim","31","99122","0.0-8.6-0.17-0.17","sub-06_sess-03_2","","559","0","stim","<div class = cct-box><div class = titleBigBox>   <div class = titleboxLeft><div class = game-text id = game_round>Tour: 7</div></div>   <div class = titleboxLeft1><div class = game-text id = loss_amount>Pertes: -65</div></div>    <div class = titleboxMiddle1><div class = game-text id = gain_amount>Gains: 17</div></div>    <div class = titlebox><div class = game-text>Combien de cartes voulez-vous prendre? </div></div>     <div class = titleboxRight1><div class = game-text id = num_loss_cards><font size='+3'>Mauveaises Cartes: 2</font></div></div>   <div class = titleboxRight><div class = game-text id = current_round>Points du tour: 0</div></div><div class = cardbox><div class = square><input type='image' id = 1 class = 'card_image' src='/static/experiments/columbia_card_task_hot/images/beforeChosen.png'></div><div class = square><input type='image' id = 2 class = 'card_image' src='/static/experiments/columbia_card_task_hot/images/beforeChosen.png'></div><div class = square><input type='image' id = 3 class = 'card_image' src='/static/experiments/columbia_card_task_hot/images/beforeChosen.png'></div><div class = square><input type='image' id = 4 class = 'card_image' src='/static/experiments/columbia_card_task_hot/images/beforeChosen.png'></div><div class = square><input type='image' id = 5 class = 'card_image' src='/static/experiments/columbia_card_task_hot/images/beforeChosen.png'></div><div class = square><input type='image' id = 6 class = 'card_image' src='/static/experiments/columbia_card_task_hot/images/beforeChosen.png'></div><div class = square><input type='image' id = 7 class = 'card_image' src='/static/experiments/columbia_card_task_hot/images/beforeChosen.png'></div><div class = square><input type='image' id = 8 class = 'card_image' src='/static/experiments/columbia_card_task_hot/images/beforeChosen.png'></div><div class = square><input type='image' id = 9 class = 'card_image' src='/static/experiments/columbia_card_task_hot/images/beforeChosen.png'></div></div>","89,71","559","test","7","1","9","2","17","-65","17","false","",""
"1014","89","poldrack-single-stim","32","100208","0.0-8.6-0.18-0.18","sub-06_sess-03_2","","1014","0","stim","<div class = cct-box><div class = titleBigBox>   <div class = titleboxLeft><div class = game-text id = game_round>Tour: 7</div></div>   <div class = titleboxLeft1><div class = game-text id = loss_amount>Pertes: -65</div></div>    <div class = titleboxMiddle1><div class = game-text id = gain_amount>Gains: 17</div></div>    <div class = titlebox><div class = game-text>Combien de cartes voulez-vous prendre? </div></div>     <div class = titleboxRight1><div class = game-text id = num_loss_cards><font size='+3'>Mauveaises Cartes: 2</font></div></div>   <div class = titleboxRight><div class = game-text id = current_round>Points du tour: 17</div></div><div class = cardbox><div class = square><input type='image' id = 1 class = 'card_image' src='/static/experiments/columbia_card_task_hot/images/beforeChosen.png'></div><div class = square><input type='image' id = 2 class = 'card_image' src='/static/experiments/columbia_card_task_hot/images/chosen.png'></div><div class = square><input type='image' id = 3 class = 'card_image' src='/static/experiments/columbia_card_task_hot/images/beforeChosen.png'></div><div class = square><input type='image' id = 4 class = 'card_image' src='/static/experiments/columbia_card_task_hot/images/beforeChosen.png'></div><div class = square><input type='image' id = 5 class = 'card_image' src='/static/experiments/columbia_card_task_hot/images/beforeChosen.png'></div><div class = square><input type='image' id = 6 class = 'card_image' src='/static/experiments/columbia_card_task_hot/images/beforeChosen.png'></div><div class = square><input type='image' id = 7 class = 'card_image' src='/static/experiments/columbia_card_task_hot/images/beforeChosen.png'></div><div class = square><input type='image' id = 8 class = 'card_image' src='/static/experiments/columbia_card_task_hot/images/beforeChosen.png'></div><div class = square><input type='image' id = 9 class = 'card_image' src='/static/experiments/columbia_card_task_hot/images/beforeChosen.png'></div></div>","89,71","1014","test","7","2","9","2","17","-65","34","false","",""
"1132","89","poldrack-single-stim","33","101348","0.0-8.6-0.19-0.19","sub-06_sess-03_2","","1132","0","stim","<div class = cct-box><div class = titleBigBox>   <div class = titleboxLeft><div class = game-text id = game_round>Tour: 7</div></div>   <div class = titleboxLeft1><div class = game-text id = loss_amount>Pertes: -65</div></div>    <div class = titleboxMiddle1><div class = game-text id = gain_amount>Gains: 17</div></div>    <div class = titlebox><div class = game-text>Combien de cartes voulez-vous prendre? </div></div>     <div class = titleboxRight1><div class = game-text id = num_loss_cards><font size='+3'>Mauveaises Cartes: 2</font></div></div>   <div class = titleboxRight><div class = game-text id = current_round>Points du tour: 34</div></div><div class = cardbox><div class = square><input type='image' id = 1 class = 'card_image' src='/static/experiments/columbia_card_task_hot/images/beforeChosen.png'></div><div class = square><input type='image' id = 2 class = 'card_image' src='/static/experiments/columbia_card_task_hot/images/chosen.png'></div><div class = square><input type='image' id = 3 class = 'card_image' src='/static/experiments/columbia_card_task_hot/images/beforeChosen.png'></div><div class = square><input type='image' id = 4 class = 'card_image' src='/static/experiments/columbia_card_task_hot/images/beforeChosen.png'></div><div class = square><input type='image' id = 5 class = 'card_image' src='/static/experiments/columbia_card_task_hot/images/beforeChosen.png'></div><div class = square><input type='image' id = 6 class = 'card_image' src='/static/experiments/columbia_card_task_hot/images/beforeChosen.png'></div><div class = square><input type='image' id = 7 class = 'card_image' src='/static/experiments/columbia_card_task_hot/images/chosen.png'></div><div class = square><input type='image' id = 8 class = 'card_image' src='/static/experiments/columbia_card_task_hot/images/beforeChosen.png'></div><div class = square><input type='image' id = 9 class = 'card_image' src='/static/experiments/columbia_card_task_hot/images/beforeChosen.png'></div></div>","89,71","1132","test","7","3","9","2","17","-65","51","false","",""
"514","71","poldrack-single-stim","34","101867","0.0-8.6-0.20-0.20","sub-06_sess-03_2","","514","0","stim","<div class = cct-box><div class = titleBigBox>   <div class = titleboxLeft><div class = game-text id = game_round>Tour: 7</div></div>   <div class = titleboxLeft1><div class = game-text id = loss_amount>Pertes: -65</div></div>    <div class = titleboxMiddle1><div class = game-text id = gain_amount>Gains: 17</div></div>    <div class = titlebox><div class = game-text>Combien de cartes voulez-vous prendre? </div></div>     <div class = titleboxRight1><div class = game-text id = num_loss_cards><font size='+3'>Mauveaises Cartes: 2</font></div></div>   <div class = titleboxRight><div class = game-text id = current_round>Points du tour: 51</div></div><div class = cardbox><div class = square><input type='image' id = 1 class = 'card_image' src='/static/experiments/columbia_card_task_hot/images/chosen.png'></div><div class = square><input type='image' id = 2 class = 'card_image' src='/static/experiments/columbia_card_task_hot/images/chosen.png'></div><div class = square><input type='image' id = 3 class = 'card_image' src='/static/experiments/columbia_card_task_hot/images/beforeChosen.png'></div><div class = square><input type='image' id = 4 class = 'card_image' src='/static/experiments/columbia_card_task_hot/images/beforeChosen.png'></div><div class = square><input type='image' id = 5 class = 'card_image' src='/static/experiments/columbia_card_task_hot/images/beforeChosen.png'></div><div class = square><input type='image' id = 6 class = 'card_image' src='/static/experiments/columbia_card_task_hot/images/beforeChosen.png'></div><div class = square><input type='image' id = 7 class = 'card_image' src='/static/experiments/columbia_card_task_hot/images/chosen.png'></div><div class = square><input type='image' id = 8 class = 'card_image' src='/static/experiments/columbia_card_task_hot/images/beforeChosen.png'></div><div class = square><input type='image' id = 9 class = 'card_image' src='/static/experiments/columbia_card_task_hot/images/beforeChosen.png'></div></div>","89,71","514","test","7","3","9","2","17","-65","51","false","",""
"-1","-1","poldrack-single-stim","35","104397","0.0-8.6-1.6","sub-06_sess-03_2","","2522","0","ITI","<div class = cct-box><div class = titleBigBox>   <div class = titleboxLeft><div class = game-text id = game_round>Tour: 7</div></div>   <div class = titleboxLeft1><div class = game-text id = loss_amount>Pertes: -65</div></div>    <div class = titleboxMiddle1><div class = game-text id = gain_amount>Gains: 17</div></div>    <div class = titlebox><div class = game-text>Combien de cartes voulez-vous prendre? </div></div>     <div class = titleboxRight1><div class = game-text id = num_loss_cards><font size='+3'>Mauveaises Cartes: 2</font></div></div>   <div class = titleboxRight><div class = game-text id = current_round>Points du tour: 51</div></div><div class = cardbox><div class = square><input type='image' id = 1 class = 'card_image' src='/static/experiments/columbia_card_task_hot/images/chosen.png'></div><div class = square><input type='image' id = 2 class = 'card_image' src='/static/experiments/columbia_card_task_hot/images/chosen.png'></div><div class = square><input type='image' id = 3 class = 'card_image' src='/static/experiments/columbia_card_task_hot/images/beforeChosen.png'></div><div class = square><input type='image' id = 4 class = 'card_image' src='/static/experiments/columbia_card_task_hot/images/beforeChosen.png'></div><div class = square><input type='image' id = 5 class = 'card_image' src='/static/experiments/columbia_card_task_hot/images/beforeChosen.png'></div><div class = square><input type='image' id = 6 class = 'card_image' src='/static/experiments/columbia_card_task_hot/images/beforeChosen.png'></div><div class = square><input type='image' id = 7 class = 'card_image' src='/static/experiments/columbia_card_task_hot/images/chosen.png'></div><div class = square><input type='image' id = 8 class = 'card_image' src='/static/experiments/columbia_card_task_hot/images/beforeChosen.png'></div><div class = square><input type='image' id = 9 class = 'card_image' src='/static/experiments/columbia_card_task_hot/images/beforeChosen.png'></div></div>","none","2250","","","","","","","","","","",""
"586","89","poldrack-single-stim","36","104989","0.0-8.7-0.21-0.21","sub-06_sess-03_2","","586","0","stim","<div class = cct-box><div class = titleBigBox>   <div class = titleboxLeft><div class = game-text id = game_round>Tour: 8</div></div>   <div class = titleboxLeft1><div class = game-text id = loss_amount>Pertes: -95</div></div>    <div class = titleboxMiddle1><div class = game-text id = gain_amount>Gains: 14</div></div>    <div class = titlebox><div class = game-text>Combien de cartes voulez-vous prendre? </div></div>     <div class = titleboxRight1><div class = game-text id = num_loss_cards><font size='+3'>Mauveaises Cartes: 1</font></div></div>   <div class = titleboxRight><div class = game-text id = current_round>Points du tour: 0</div></div><div class = cardbox><div class = square><input type='image' id = 1 class = 'card_image' src='/static/experiments/columbia_card_task_hot/images/beforeChosen.png'></div><div class = square><input type='image' id = 2 class = 'card_image' src='/static/experiments/columbia_card_task_hot/images/beforeChosen.png'></div><div class = square><input type='image' id = 3 class = 'card_image' src='/static/experiments/columbia_card_task_hot/images/beforeChosen.png'></div><div class = square><input type='image' id = 4 class = 'card_image' src='/static/experiments/columbia_card_task_hot/images/beforeChosen.png'></div><div class = square><input type='image' id = 5 class = 'card_image' src='/static/experiments/columbia_card_task_hot/images/beforeChosen.png'></div><div class = square><input type='image' id = 6 class = 'card_image' src='/static/experiments/columbia_card_task_hot/images/beforeChosen.png'></div><div class = square><input type='image' id = 7 class = 'card_image' src='/static/experiments/columbia_card_task_hot/images/beforeChosen.png'></div><div class = square><input type='image' id = 8 class = 'card_image' src='/static/experiments/columbia_card_task_hot/images/beforeChosen.png'></div><div class = square><input type='image' id = 9 class = 'card_image' src='/static/experiments/columbia_card_task_hot/images/beforeChosen.png'></div><div class = square><input type='image' id = 10 class = 'card_image' src='/static/experiments/columbia_card_task_hot/images/beforeChosen.png'></div></div>","89,71","586","test","8","1","10","1","14","-95","14","false","",""
"619","89","poldrack-single-stim","37","105611","0.0-8.7-0.22-0.22","sub-06_sess-03_2","","619","0","stim","<div class = cct-box><div class = titleBigBox>   <div class = titleboxLeft><div class = game-text id = game_round>Tour: 8</div></div>   <div class = titleboxLeft1><div class = game-text id = loss_amount>Pertes: -95</div></div>    <div class = titleboxMiddle1><div class = game-text id = gain_amount>Gains: 14</div></div>    <div class = titlebox><div class = game-text>Combien de cartes voulez-vous prendre? </div></div>     <div class = titleboxRight1><div class = game-text id = num_loss_cards><font size='+3'>Mauveaises Cartes: 1</font></div></div>   <div class = titleboxRight><div class = game-text id = current_round>Points du tour: 14</div></div><div class = cardbox><div class = square><input type='image' id = 1 class = 'card_image' src='/static/experiments/columbia_card_task_hot/images/beforeChosen.png'></div><div class = square><input type='image' id = 2 class = 'card_image' src='/static/experiments/columbia_card_task_hot/images/beforeChosen.png'></div><div class = square><input type='image' id = 3 class = 'card_image' src='/static/experiments/columbia_card_task_hot/images/beforeChosen.png'></div><div class = square><input type='image' id = 4 class = 'card_image' src='/static/experiments/columbia_card_task_hot/images/beforeChosen.png'></div><div class = square><input type='image' id = 5 class = 'card_image' src='/static/experiments/columbia_card_task_hot/images/beforeChosen.png'></div><div class = square><input type='image' id = 6 class = 'card_image' src='/static/experiments/columbia_card_task_hot/images/beforeChosen.png'></div><div class = square><input type='image' id = 7 class = 'card_image' src='/static/experiments/columbia_card_task_hot/images/beforeChosen.png'></div><div class = square><input type='image' id = 8 class = 'card_image' src='/static/experiments/columbia_card_task_hot/images/beforeChosen.png'></div><div class = square><input type='image' id = 9 class = 'card_image' src='/static/experiments/columbia_card_task_hot/images/beforeChosen.png'></div><div class = square><input type='image' id = 10 class = 'card_image' src='/static/experiments/columbia_card_task_hot/images/chosen.png'></div></div>","89,71","619","test","8","2","10","1","14","-95","28","false","",""
"825","89","poldrack-single-stim","38","106441","0.0-8.7-0.23-0.23","sub-06_sess-03_2","","825","0","stim","<div class = cct-box><div class = titleBigBox>   <div class = titleboxLeft><div class = game-text id = game_round>Tour: 8</div></div>   <div class = titleboxLeft1><div class = game-text id = loss_amount>Pertes: -95</div></div>    <div class = titleboxMiddle1><div class = game-text id = gain_amount>Gains: 14</div></div>    <div class = titlebox><div class = game-text>Combien de cartes voulez-vous prendre? </div></div>     <div class = titleboxRight1><div class = game-text id = num_loss_cards><font size='+3'>Mauveaises Cartes: 1</font></div></div>   <div class = titleboxRight><div class = game-text id = current_round>Points du tour: 28</div></div><div class = cardbox><div class = square><input type='image' id = 1 class = 'card_image' src='/static/experiments/columbia_card_task_hot/images/beforeChosen.png'></div><div class = square><input type='image' id = 2 class = 'card_image' src='/static/experiments/columbia_card_task_hot/images/beforeChosen.png'></div><div class = square><input type='image' id = 3 class = 'card_image' src='/static/experiments/columbia_card_task_hot/images/beforeChosen.png'></div><div class = square><input type='image' id = 4 class = 'card_image' src='/static/experiments/columbia_card_task_hot/images/beforeChosen.png'></div><div class = square><input type='image' id = 5 class = 'card_image' src='/static/experiments/columbia_card_task_hot/images/beforeChosen.png'></div><div class = square><input type='image' id = 6 class = 'card_image' src='/static/experiments/columbia_card_task_hot/images/beforeChosen.png'></div><div class = square><input type='image' id = 7 class = 'card_image' src='/static/experiments/columbia_card_task_hot/images/beforeChosen.png'></div><div class = square><input type='image' id = 8 class = 'card_image' src='/static/experiments/columbia_card_task_hot/images/chosen.png'></div><div class = square><input type='image' id = 9 class = 'card_image' src='/static/experiments/columbia_card_task_hot/images/beforeChosen.png'></div><div class = square><input type='image' id = 10 class = 'card_image' src='/static/experiments/columbia_card_task_hot/images/chosen.png'></div></div>","89,71","825","test","8","3","10","1","14","-95","42","false","",""
"691","89","poldrack-single-stim","39","107134","0.0-8.7-0.24-0.24","sub-06_sess-03_2","","691","0","stim","<div class = cct-box><div class = titleBigBox>   <div class = titleboxLeft><div class = game-text id = game_round>Tour: 8</div></div>   <div class = titleboxLeft1><div class = game-text id = loss_amount>Pertes: -95</div></div>    <div class = titleboxMiddle1><div class = game-text id = gain_amount>Gains: 14</div></div>    <div class = titlebox><div class = game-text>Combien de cartes voulez-vous prendre? </div></div>     <div class = titleboxRight1><div class = game-text id = num_loss_cards><font size='+3'>Mauveaises Cartes: 1</font></div></div>   <div class = titleboxRight><div class = game-text id = current_round>Points du tour: 42</div></div><div class = cardbox><div class = square><input type='image' id = 1 class = 'card_image' src='/static/experiments/columbia_card_task_hot/images/beforeChosen.png'></div><div class = square><input type='image' id = 2 class = 'card_image' src='/static/experiments/columbia_card_task_hot/images/beforeChosen.png'></div><div class = square><input type='image' id = 3 class = 'card_image' src='/static/experiments/columbia_card_task_hot/images/beforeChosen.png'></div><div class = square><input type='image' id = 4 class = 'card_image' src='/static/experiments/columbia_card_task_hot/images/beforeChosen.png'></div><div class = square><input type='image' id = 5 class = 'card_image' src='/static/experiments/columbia_card_task_hot/images/chosen.png'></div><div class = square><input type='image' id = 6 class = 'card_image' src='/static/experiments/columbia_card_task_hot/images/beforeChosen.png'></div><div class = square><input type='image' id = 7 class = 'card_image' src='/static/experiments/columbia_card_task_hot/images/beforeChosen.png'></div><div class = square><input type='image' id = 8 class = 'card_image' src='/static/experiments/columbia_card_task_hot/images/chosen.png'></div><div class = square><input type='image' id = 9 class = 'card_image' src='/static/experiments/columbia_card_task_hot/images/beforeChosen.png'></div><div class = square><input type='image' id = 10 class = 'card_image' src='/static/experiments/columbia_card_task_hot/images/chosen.png'></div></div>","89,71","691","test","8","4","10","1","14","-95","56","false","",""
"400","71","poldrack-single-stim","40","107540","0.0-8.7-0.25-0.25","sub-06_sess-03_2","","400","0","stim","<div class = cct-box><div class = titleBigBox>   <div class = titleboxLeft><div class = game-text id = game_round>Tour: 8</div></div>   <div class = titleboxLeft1><div class = game-text id = loss_amount>Pertes: -95</div></div>    <div class = titleboxMiddle1><div class = game-text id = gain_amount>Gains: 14</div></div>    <div class = titlebox><div class = game-text>Combien de cartes voulez-vous prendre? </div></div>     <div class = titleboxRight1><div class = game-text id = num_loss_cards><font size='+3'>Mauveaises Cartes: 1</font></div></div>   <div class = titleboxRight><div class = game-text id = current_round>Points du tour: 56</div></div><div class = cardbox><div class = square><input type='image' id = 1 class = 'card_image' src='/static/experiments/columbia_card_task_hot/images/beforeChosen.png'></div><div class = square><input type='image' id = 2 class = 'card_image' src='/static/experiments/columbia_card_task_hot/images/beforeChosen.png'></div><div class = square><input type='image' id = 3 class = 'card_image' src='/static/experiments/columbia_card_task_hot/images/beforeChosen.png'></div><div class = square><input type='image' id = 4 class = 'card_image' src='/static/experiments/columbia_card_task_hot/images/beforeChosen.png'></div><div class = square><input type='image' id = 5 class = 'card_image' src='/static/experiments/columbia_card_task_hot/images/chosen.png'></div><div class = square><input type='image' id = 6 class = 'card_image' src='/static/experiments/columbia_card_task_hot/images/beforeChosen.png'></div><div class = square><input type='image' id = 7 class = 'card_image' src='/static/experiments/columbia_card_task_hot/images/chosen.png'></div><div class = square><input type='image' id = 8 class = 'card_image' src='/static/experiments/columbia_card_task_hot/images/chosen.png'></div><div class = square><input type='image' id = 9 class = 'card_image' src='/static/experiments/columbia_card_task_hot/images/beforeChosen.png'></div><div class = square><input type='image' id = 10 class = 'card_image' src='/static/experiments/columbia_card_task_hot/images/chosen.png'></div></div>","89,71","400","test","8","4","10","1","14","-95","56","false","",""
"-1","-1","poldrack-single-stim","41","110137","0.0-8.7-1.7","sub-06_sess-03_2","","2590","0","ITI","<div class = cct-box><div class = titleBigBox>   <div class = titleboxLeft><div class = game-text id = game_round>Tour: 8</div></div>   <div class = titleboxLeft1><div class = game-text id = loss_amount>Pertes: -95</div></div>    <div class = titleboxMiddle1><div class = game-text id = gain_amount>Gains: 14</div></div>    <div class = titlebox><div class = game-text>Combien de cartes voulez-vous prendre? </div></div>     <div class = titleboxRight1><div class = game-text id = num_loss_cards><font size='+3'>Mauveaises Cartes: 1</font></div></div>   <div class = titleboxRight><div class = game-text id = current_round>Points du tour: 56</div></div><div class = cardbox><div class = square><input type='image' id = 1 class = 'card_image' src='/static/experiments/columbia_card_task_hot/images/beforeChosen.png'></div><div class = square><input type='image' id = 2 class = 'card_image' src='/static/experiments/columbia_card_task_hot/images/beforeChosen.png'></div><div class = square><input type='image' id = 3 class = 'card_image' src='/static/experiments/columbia_card_task_hot/images/beforeChosen.png'></div><div class = square><input type='image' id = 4 class = 'card_image' src='/static/experiments/columbia_card_task_hot/images/beforeChosen.png'></div><div class = square><input type='image' id = 5 class = 'card_image' src='/static/experiments/columbia_card_task_hot/images/chosen.png'></div><div class = square><input type='image' id = 6 class = 'card_image' src='/static/experiments/columbia_card_task_hot/images/beforeChosen.png'></div><div class = square><input type='image' id = 7 class = 'card_image' src='/static/experiments/columbia_card_task_hot/images/chosen.png'></div><div class = square><input type='image' id = 8 class = 'card_image' src='/static/experiments/columbia_card_task_hot/images/chosen.png'></div><div class = square><input type='image' id = 9 class = 'card_image' src='/static/experiments/columbia_card_task_hot/images/beforeChosen.png'></div><div class = square><input type='image' id = 10 class = 'card_image' src='/static/experiments/columbia_card_task_hot/images/chosen.png'></div></div>","none","2250","","","","","","","","","","",""
"362","89","poldrack-single-stim","42","110503","0.0-8.8-0.26-0.26","sub-06_sess-03_2","","362","0","stim","<div class = cct-box><div class = titleBigBox>   <div class = titleboxLeft><div class = game-text id = game_round>Tour: 9</div></div>   <div class = titleboxLeft1><div class = game-text id = loss_amount>Pertes: -65</div></div>    <div class = titleboxMiddle1><div class = game-text id = gain_amount>Gains: 15</div></div>    <div class = titlebox><div class = game-text>Combien de cartes voulez-vous prendre? </div></div>     <div class = titleboxRight1><div class = game-text id = num_loss_cards><font size='+3'>Mauveaises Cartes: 2</font></div></div>   <div class = titleboxRight><div class = game-text id = current_round>Points du tour: 0</div></div><div class = cardbox><div class = square><input type='image' id = 1 class = 'card_image' src='/static/experiments/columbia_card_task_hot/images/beforeChosen.png'></div><div class = square><input type='image' id = 2 class = 'card_image' src='/static/experiments/columbia_card_task_hot/images/beforeChosen.png'></div><div class = square><input type='image' id = 3 class = 'card_image' src='/static/experiments/columbia_card_task_hot/images/beforeChosen.png'></div><div class = square><input type='image' id = 4 class = 'card_image' src='/static/experiments/columbia_card_task_hot/images/beforeChosen.png'></div><div class = square><input type='image' id = 5 class = 'card_image' src='/static/experiments/columbia_card_task_hot/images/beforeChosen.png'></div><div class = square><input type='image' id = 6 class = 'card_image' src='/static/experiments/columbia_card_task_hot/images/beforeChosen.png'></div><div class = square><input type='image' id = 7 class = 'card_image' src='/static/experiments/columbia_card_task_hot/images/beforeChosen.png'></div><div class = square><input type='image' id = 8 class = 'card_image' src='/static/experiments/columbia_card_task_hot/images/beforeChosen.png'></div><div class = square><input type='image' id = 9 class = 'card_image' src='/static/experiments/columbia_card_task_hot/images/beforeChosen.png'></div><div class = square><input type='image' id = 10 class = 'card_image' src='/static/experiments/columbia_card_task_hot/images/beforeChosen.png'></div></div>","89,71","362","test","9","1","10","2","15","-65","15","false","",""
"822","89","poldrack-single-stim","43","111328","0.0-8.8-0.27-0.27","sub-06_sess-03_2","","822","0","stim","<div class = cct-box><div class = titleBigBox>   <div class = titleboxLeft><div class = game-text id = game_round>Tour: 9</div></div>   <div class = titleboxLeft1><div class = game-text id = loss_amount>Pertes: -65</div></div>    <div class = titleboxMiddle1><div class = game-text id = gain_amount>Gains: 15</div></div>    <div class = titlebox><div class = game-text>Combien de cartes voulez-vous prendre? </div></div>     <div class = titleboxRight1><div class = game-text id = num_loss_cards><font size='+3'>Mauveaises Cartes: 2</font></div></div>   <div class = titleboxRight><div class = game-text id = current_round>Points du tour: 15</div></div><div class = cardbox><div class = square><input type='image' id = 1 class = 'card_image' src='/static/experiments/columbia_card_task_hot/images/beforeChosen.png'></div><div class = square><input type='image' id = 2 class = 'card_image' src='/static/experiments/columbia_card_task_hot/images/beforeChosen.png'></div><div class = square><input type='image' id = 3 class = 'card_image' src='/static/experiments/columbia_card_task_hot/images/beforeChosen.png'></div><div class = square><input type='image' id = 4 class = 'card_image' src='/static/experiments/columbia_card_task_hot/images/beforeChosen.png'></div><div class = square><input type='image' id = 5 class = 'card_image' src='/static/experiments/columbia_card_task_hot/images/beforeChosen.png'></div><div class = square><input type='image' id = 6 class = 'card_image' src='/static/experiments/columbia_card_task_hot/images/beforeChosen.png'></div><div class = square><input type='image' id = 7 class = 'card_image' src='/static/experiments/columbia_card_task_hot/images/chosen.png'></div><div class = square><input type='image' id = 8 class = 'card_image' src='/static/experiments/columbia_card_task_hot/images/beforeChosen.png'></div><div class = square><input type='image' id = 9 class = 'card_image' src='/static/experiments/columbia_card_task_hot/images/beforeChosen.png'></div><div class = square><input type='image' id = 10 class = 'card_image' src='/static/experiments/columbia_card_task_hot/images/beforeChosen.png'></div></div>","89,71","822","test","9","2","10","2","15","-65","30","false","",""
"729","89","poldrack-single-stim","44","112061","0.0-8.8-0.28-0.28","sub-06_sess-03_2","","729","0","stim","<div class = cct-box><div class = titleBigBox>   <div class = titleboxLeft><div class = game-text id = game_round>Tour: 9</div></div>   <div class = titleboxLeft1><div class = game-text id = loss_amount>Pertes: -65</div></div>    <div class = titleboxMiddle1><div class = game-text id = gain_amount>Gains: 15</div></div>    <div class = titlebox><div class = game-text>Combien de cartes voulez-vous prendre? </div></div>     <div class = titleboxRight1><div class = game-text id = num_loss_cards><font size='+3'>Mauveaises Cartes: 2</font></div></div>   <div class = titleboxRight><div class = game-text id = current_round>Points du tour: 30</div></div><div class = cardbox><div class = square><input type='image' id = 1 class = 'card_image' src='/static/experiments/columbia_card_task_hot/images/beforeChosen.png'></div><div class = square><input type='image' id = 2 class = 'card_image' src='/static/experiments/columbia_card_task_hot/images/beforeChosen.png'></div><div class = square><input type='image' id = 3 class = 'card_image' src='/static/experiments/columbia_card_task_hot/images/beforeChosen.png'></div><div class = square><input type='image' id = 4 class = 'card_image' src='/static/experiments/columbia_card_task_hot/images/beforeChosen.png'></div><div class = square><input type='image' id = 5 class = 'card_image' src='/static/experiments/columbia_card_task_hot/images/beforeChosen.png'></div><div class = square><input type='image' id = 6 class = 'card_image' src='/static/experiments/columbia_card_task_hot/images/beforeChosen.png'></div><div class = square><input type='image' id = 7 class = 'card_image' src='/static/experiments/columbia_card_task_hot/images/chosen.png'></div><div class = square><input type='image' id = 8 class = 'card_image' src='/static/experiments/columbia_card_task_hot/images/chosen.png'></div><div class = square><input type='image' id = 9 class = 'card_image' src='/static/experiments/columbia_card_task_hot/images/beforeChosen.png'></div><div class = square><input type='image' id = 10 class = 'card_image' src='/static/experiments/columbia_card_task_hot/images/beforeChosen.png'></div></div>","89,71","729","test","9","3","10","2","15","-65","45","false","",""
"928","89","poldrack-single-stim","45","112993","0.0-8.8-0.29-0.29","sub-06_sess-03_2","","928","0","stim","<div class = cct-box><div class = titleBigBox>   <div class = titleboxLeft><div class = game-text id = game_round>Tour: 9</div></div>   <div class = titleboxLeft1><div class = game-text id = loss_amount>Pertes: -65</div></div>    <div class = titleboxMiddle1><div class = game-text id = gain_amount>Gains: 15</div></div>    <div class = titlebox><div class = game-text>Combien de cartes voulez-vous prendre? </div></div>     <div class = titleboxRight1><div class = game-text id = num_loss_cards><font size='+3'>Mauveaises Cartes: 2</font></div></div>   <div class = titleboxRight><div class = game-text id = current_round>Points du tour: 45</div></div><div class = cardbox><div class = square><input type='image' id = 1 class = 'card_image' src='/static/experiments/columbia_card_task_hot/images/beforeChosen.png'></div><div class = square><input type='image' id = 2 class = 'card_image' src='/static/experiments/columbia_card_task_hot/images/beforeChosen.png'></div><div class = square><input type='image' id = 3 class = 'card_image' src='/static/experiments/columbia_card_task_hot/images/beforeChosen.png'></div><div class = square><input type='image' id = 4 class = 'card_image' src='/static/experiments/columbia_card_task_hot/images/beforeChosen.png'></div><div class = square><input type='image' id = 5 class = 'card_image' src='/static/experiments/columbia_card_task_hot/images/chosen.png'></div><div class = square><input type='image' id = 6 class = 'card_image' src='/static/experiments/columbia_card_task_hot/images/beforeChosen.png'></div><div class = square><input type='image' id = 7 class = 'card_image' src='/static/experiments/columbia_card_task_hot/images/chosen.png'></div><div class = square><input type='image' id = 8 class = 'card_image' src='/static/experiments/columbia_card_task_hot/images/chosen.png'></div><div class = square><input type='image' id = 9 class = 'card_image' src='/static/experiments/columbia_card_task_hot/images/beforeChosen.png'></div><div class = square><input type='image' id = 10 class = 'card_image' src='/static/experiments/columbia_card_task_hot/images/beforeChosen.png'></div></div>","89,71","928","test","9","4","10","2","15","-65","-20","true","",""
"-1","-1","poldrack-single-stim","46","115399","0.0-8.8-1.8","sub-06_sess-03_2","","2386","0","ITI","<div class = cct-box><div class = titleBigBox>   <div class = titleboxLeft><div class = game-text id = game_round>Tour: 9</div></div>   <div class = titleboxLeft1><div class = game-text id = loss_amount>Pertes: -65</div></div>    <div class = titleboxMiddle1><div class = game-text id = gain_amount>Gains: 15</div></div>    <div class = titlebox><div class = game-text>Combien de cartes voulez-vous prendre? </div></div>     <div class = titleboxRight1><div class = game-text id = num_loss_cards><font size='+3'>Mauveaises Cartes: 2</font></div></div>   <div class = titleboxRight><div class = game-text id = current_round>Points du tour: -20</div></div><div class = cardbox><div class = square><input type='image' id = 1 class = 'card_image' src='/static/experiments/columbia_card_task_hot/images/beforeChosen.png'></div><div class = square><input type='image' id = 2 class = 'card_image' src='/static/experiments/columbia_card_task_hot/images/beforeChosen.png'></div><div class = square><input type='image' id = 3 class = 'card_image' src='/static/experiments/columbia_card_task_hot/images/beforeChosen.png'></div><div class = square><input type='image' id = 4 class = 'card_image' src='/static/experiments/columbia_card_task_hot/images/loss.png'></div><div class = square><input type='image' id = 5 class = 'card_image' src='/static/experiments/columbia_card_task_hot/images/chosen.png'></div><div class = square><input type='image' id = 6 class = 'card_image' src='/static/experiments/columbia_card_task_hot/images/beforeChosen.png'></div><div class = square><input type='image' id = 7 class = 'card_image' src='/static/experiments/columbia_card_task_hot/images/chosen.png'></div><div class = square><input type='image' id = 8 class = 'card_image' src='/static/experiments/columbia_card_task_hot/images/chosen.png'></div><div class = square><input type='image' id = 9 class = 'card_image' src='/static/experiments/columbia_card_task_hot/images/beforeChosen.png'></div><div class = square><input type='image' id = 10 class = 'card_image' src='/static/experiments/columbia_card_task_hot/images/beforeChosen.png'></div></div>","none","2250","","","","","","","","","","",""
"371","89","poldrack-single-stim","47","115775","0.0-8.9-0.30-0.30","sub-06_sess-03_2","","371","0","stim","<div class = cct-box><div class = titleBigBox>   <div class = titleboxLeft><div class = game-text id = game_round>Tour: 10</div></div>   <div class = titleboxLeft1><div class = game-text id = loss_amount>Pertes: -65</div></div>    <div class = titleboxMiddle1><div class = game-text id = gain_amount>Gains: 17</div></div>    <div class = titlebox><div class = game-text>Combien de cartes voulez-vous prendre? </div></div>     <div class = titleboxRight1><div class = game-text id = num_loss_cards><font size='+3'>Mauveaises Cartes: 2</font></div></div>   <div class = titleboxRight><div class = game-text id = current_round>Points du tour: 0</div></div><div class = cardbox><div class = square><input type='image' id = 1 class = 'card_image' src='/static/experiments/columbia_card_task_hot/images/beforeChosen.png'></div><div class = square><input type='image' id = 2 class = 'card_image' src='/static/experiments/columbia_card_task_hot/images/beforeChosen.png'></div><div class = square><input type='image' id = 3 class = 'card_image' src='/static/experiments/columbia_card_task_hot/images/beforeChosen.png'></div><div class = square><input type='image' id = 4 class = 'card_image' src='/static/experiments/columbia_card_task_hot/images/beforeChosen.png'></div><div class = square><input type='image' id = 5 class = 'card_image' src='/static/experiments/columbia_card_task_hot/images/beforeChosen.png'></div><div class = square><input type='image' id = 6 class = 'card_image' src='/static/experiments/columbia_card_task_hot/images/beforeChosen.png'></div><div class = square><input type='image' id = 7 class = 'card_image' src='/static/experiments/columbia_card_task_hot/images/beforeChosen.png'></div><div class = square><input type='image' id = 8 class = 'card_image' src='/static/experiments/columbia_card_task_hot/images/beforeChosen.png'></div><div class = square><input type='image' id = 9 class = 'card_image' src='/static/experiments/columbia_card_task_hot/images/beforeChosen.png'></div><div class = square><input type='image' id = 10 class = 'card_image' src='/static/experiments/columbia_card_task_hot/images/beforeChosen.png'></div></div>","89,71","371","test","10","1","10","2","17","-65","17","false","",""
"646","89","poldrack-single-stim","48","116422","0.0-8.9-0.31-0.31","sub-06_sess-03_2","","646","0","stim","<div class = cct-box><div class = titleBigBox>   <div class = titleboxLeft><div class = game-text id = game_round>Tour: 10</div></div>   <div class = titleboxLeft1><div class = game-text id = loss_amount>Pertes: -65</div></div>    <div class = titleboxMiddle1><div class = game-text id = gain_amount>Gains: 17</div></div>    <div class = titlebox><div class = game-text>Combien de cartes voulez-vous prendre? </div></div>     <div class = titleboxRight1><div class = game-text id = num_loss_cards><font size='+3'>Mauveaises Cartes: 2</font></div></div>   <div class = titleboxRight><div class = game-text id = current_round>Points du tour: 17</div></div><div class = cardbox><div class = square><input type='image' id = 1 class = 'card_image' src='/static/experiments/columbia_card_task_hot/images/beforeChosen.png'></div><div class = square><input type='image' id = 2 class = 'card_image' src='/static/experiments/columbia_card_task_hot/images/beforeChosen.png'></div><div class = square><input type='image' id = 3 class = 'card_image' src='/static/experiments/columbia_card_task_hot/images/beforeChosen.png'></div><div class = square><input type='image' id = 4 class = 'card_image' src='/static/experiments/columbia_card_task_hot/images/beforeChosen.png'></div><div class = square><input type='image' id = 5 class = 'card_image' src='/static/experiments/columbia_card_task_hot/images/beforeChosen.png'></div><div class = square><input type='image' id = 6 class = 'card_image' src='/static/experiments/columbia_card_task_hot/images/chosen.png'></div><div class = square><input type='image' id = 7 class = 'card_image' src='/static/experiments/columbia_card_task_hot/images/beforeChosen.png'></div><div class = square><input type='image' id = 8 class = 'card_image' src='/static/experiments/columbia_card_task_hot/images/beforeChosen.png'></div><div class = square><input type='image' id = 9 class = 'card_image' src='/static/experiments/columbia_card_task_hot/images/beforeChosen.png'></div><div class = square><input type='image' id = 10 class = 'card_image' src='/static/experiments/columbia_card_task_hot/images/beforeChosen.png'></div></div>","89,71","646","test","10","2","10","2","17","-65","34","false","",""
"929","89","poldrack-single-stim","49","117355","0.0-8.9-0.32-0.32","sub-06_sess-03_2","","929","0","stim","<div class = cct-box><div class = titleBigBox>   <div class = titleboxLeft><div class = game-text id = game_round>Tour: 10</div></div>   <div class = titleboxLeft1><div class = game-text id = loss_amount>Pertes: -65</div></div>    <div class = titleboxMiddle1><div class = game-text id = gain_amount>Gains: 17</div></div>    <div class = titlebox><div class = game-text>Combien de cartes voulez-vous prendre? </div></div>     <div class = titleboxRight1><div class = game-text id = num_loss_cards><font size='+3'>Mauveaises Cartes: 2</font></div></div>   <div class = titleboxRight><div class = game-text id = current_round>Points du tour: 34</div></div><div class = cardbox><div class = square><input type='image' id = 1 class = 'card_image' src='/static/experiments/columbia_card_task_hot/images/chosen.png'></div><div class = square><input type='image' id = 2 class = 'card_image' src='/static/experiments/columbia_card_task_hot/images/beforeChosen.png'></div><div class = square><input type='image' id = 3 class = 'card_image' src='/static/experiments/columbia_card_task_hot/images/beforeChosen.png'></div><div class = square><input type='image' id = 4 class = 'card_image' src='/static/experiments/columbia_card_task_hot/images/beforeChosen.png'></div><div class = square><input type='image' id = 5 class = 'card_image' src='/static/experiments/columbia_card_task_hot/images/beforeChosen.png'></div><div class = square><input type='image' id = 6 class = 'card_image' src='/static/experiments/columbia_card_task_hot/images/chosen.png'></div><div class = square><input type='image' id = 7 class = 'card_image' src='/static/experiments/columbia_card_task_hot/images/beforeChosen.png'></div><div class = square><input type='image' id = 8 class = 'card_image' src='/static/experiments/columbia_card_task_hot/images/beforeChosen.png'></div><div class = square><input type='image' id = 9 class = 'card_image' src='/static/experiments/columbia_card_task_hot/images/beforeChosen.png'></div><div class = square><input type='image' id = 10 class = 'card_image' src='/static/experiments/columbia_card_task_hot/images/beforeChosen.png'></div></div>","89,71","929","test","10","3","10","2","17","-65","51","false","",""
"472","71","poldrack-single-stim","50","117830","0.0-8.9-0.33-0.33","sub-06_sess-03_2","","472","0","stim","<div class = cct-box><div class = titleBigBox>   <div class = titleboxLeft><div class = game-text id = game_round>Tour: 10</div></div>   <div class = titleboxLeft1><div class = game-text id = loss_amount>Pertes: -65</div></div>    <div class = titleboxMiddle1><div class = game-text id = gain_amount>Gains: 17</div></div>    <div class = titlebox><div class = game-text>Combien de cartes voulez-vous prendre? </div></div>     <div class = titleboxRight1><div class = game-text id = num_loss_cards><font size='+3'>Mauveaises Cartes: 2</font></div></div>   <div class = titleboxRight><div class = game-text id = current_round>Points du tour: 51</div></div><div class = cardbox><div class = square><input type='image' id = 1 class = 'card_image' src='/static/experiments/columbia_card_task_hot/images/chosen.png'></div><div class = square><input type='image' id = 2 class = 'card_image' src='/static/experiments/columbia_card_task_hot/images/beforeChosen.png'></div><div class = square><input type='image' id = 3 class = 'card_image' src='/static/experiments/columbia_card_task_hot/images/beforeChosen.png'></div><div class = square><input type='image' id = 4 class = 'card_image' src='/static/experiments/columbia_card_task_hot/images/beforeChosen.png'></div><div class = square><input type='image' id = 5 class = 'card_image' src='/static/experiments/columbia_card_task_hot/images/beforeChosen.png'></div><div class = square><input type='image' id = 6 class = 'card_image' src='/static/experiments/columbia_card_task_hot/images/chosen.png'></div><div class = square><input type='image' id = 7 class = 'card_image' src='/static/experiments/columbia_card_task_hot/images/beforeChosen.png'></div><div class = square><input type='image' id = 8 class = 'card_image' src='/static/experiments/columbia_card_task_hot/images/beforeChosen.png'></div><div class = square><input type='image' id = 9 class = 'card_image' src='/static/experiments/columbia_card_task_hot/images/chosen.png'></div><div class = square><input type='image' id = 10 class = 'card_image' src='/static/experiments/columbia_card_task_hot/images/beforeChosen.png'></div></div>","89,71","472","test","10","3","10","2","17","-65","51","false","",""
"-1","-1","poldrack-single-stim","51","120436","0.0-8.9-1.9","sub-06_sess-03_2","","2590","0","ITI","<div class = cct-box><div class = titleBigBox>   <div class = titleboxLeft><div class = game-text id = game_round>Tour: 10</div></div>   <div class = titleboxLeft1><div class = game-text id = loss_amount>Pertes: -65</div></div>    <div class = titleboxMiddle1><div class = game-text id = gain_amount>Gains: 17</div></div>    <div class = titlebox><div class = game-text>Combien de cartes voulez-vous prendre? </div></div>     <div class = titleboxRight1><div class = game-text id = num_loss_cards><font size='+3'>Mauveaises Cartes: 2</font></div></div>   <div class = titleboxRight><div class = game-text id = current_round>Points du tour: 51</div></div><div class = cardbox><div class = square><input type='image' id = 1 class = 'card_image' src='/static/experiments/columbia_card_task_hot/images/chosen.png'></div><div class = square><input type='image' id = 2 class = 'card_image' src='/static/experiments/columbia_card_task_hot/images/beforeChosen.png'></div><div class = square><input type='image' id = 3 class = 'card_image' src='/static/experiments/columbia_card_task_hot/images/beforeChosen.png'></div><div class = square><input type='image' id = 4 class = 'card_image' src='/static/experiments/columbia_card_task_hot/images/beforeChosen.png'></div><div class = square><input type='image' id = 5 class = 'card_image' src='/static/experiments/columbia_card_task_hot/images/beforeChosen.png'></div><div class = square><input type='image' id = 6 class = 'card_image' src='/static/experiments/columbia_card_task_hot/images/chosen.png'></div><div class = square><input type='image' id = 7 class = 'card_image' src='/static/experiments/columbia_card_task_hot/images/beforeChosen.png'></div><div class = square><input type='image' id = 8 class = 'card_image' src='/static/experiments/columbia_card_task_hot/images/beforeChosen.png'></div><div class = square><input type='image' id = 9 class = 'card_image' src='/static/experiments/columbia_card_task_hot/images/chosen.png'></div><div class = square><input type='image' id = 10 class = 'card_image' src='/static/experiments/columbia_card_task_hot/images/beforeChosen.png'></div></div>","none","2250","","","","","","","","","","",""
"740","89","poldrack-single-stim","52","121179","0.0-8.10-0.34-0.34","sub-06_sess-03_2","","740","0","stim","<div class = cct-box><div class = titleBigBox>   <div class = titleboxLeft><div class = game-text id = game_round>Tour: 11</div></div>   <div class = titleboxLeft1><div class = game-text id = loss_amount>Pertes: -70</div></div>    <div class = titleboxMiddle1><div class = game-text id = gain_amount>Gains: 13</div></div>    <div class = titlebox><div class = game-text>Combien de cartes voulez-vous prendre? </div></div>     <div class = titleboxRight1><div class = game-text id = num_loss_cards><font size='+3'>Mauveaises Cartes: 2</font></div></div>   <div class = titleboxRight><div class = game-text id = current_round>Points du tour: 0</div></div><div class = cardbox><div class = square><input type='image' id = 1 class = 'card_image' src='/static/experiments/columbia_card_task_hot/images/beforeChosen.png'></div><div class = square><input type='image' id = 2 class = 'card_image' src='/static/experiments/columbia_card_task_hot/images/beforeChosen.png'></div><div class = square><input type='image' id = 3 class = 'card_image' src='/static/experiments/columbia_card_task_hot/images/beforeChosen.png'></div><div class = square><input type='image' id = 4 class = 'card_image' src='/static/experiments/columbia_card_task_hot/images/beforeChosen.png'></div><div class = square><input type='image' id = 5 class = 'card_image' src='/static/experiments/columbia_card_task_hot/images/beforeChosen.png'></div><div class = square><input type='image' id = 6 class = 'card_image' src='/static/experiments/columbia_card_task_hot/images/beforeChosen.png'></div><div class = square><input type='image' id = 7 class = 'card_image' src='/static/experiments/columbia_card_task_hot/images/beforeChosen.png'></div><div class = square><input type='image' id = 8 class = 'card_image' src='/static/experiments/columbia_card_task_hot/images/beforeChosen.png'></div><div class = square><input type='image' id = 9 class = 'card_image' src='/static/experiments/columbia_card_task_hot/images/beforeChosen.png'></div><div class = square><input type='image' id = 10 class = 'card_image' src='/static/experiments/columbia_card_task_hot/images/beforeChosen.png'></div><div class = square><input type='image' id = 11 class = 'card_image' src='/static/experiments/columbia_card_task_hot/images/beforeChosen.png'></div><div class = square><input type='image' id = 12 class = 'card_image' src='/static/experiments/columbia_card_task_hot/images/beforeChosen.png'></div></div>","89,71","740","test","11","1","12","2","13","-70","13","false","",""
"680","89","poldrack-single-stim","53","121864","0.0-8.10-0.35-0.35","sub-06_sess-03_2","","680","0","stim","<div class = cct-box><div class = titleBigBox>   <div class = titleboxLeft><div class = game-text id = game_round>Tour: 11</div></div>   <div class = titleboxLeft1><div class = game-text id = loss_amount>Pertes: -70</div></div>    <div class = titleboxMiddle1><div class = game-text id = gain_amount>Gains: 13</div></div>    <div class = titlebox><div class = game-text>Combien de cartes voulez-vous prendre? </div></div>     <div class = titleboxRight1><div class = game-text id = num_loss_cards><font size='+3'>Mauveaises Cartes: 2</font></div></div>   <div class = titleboxRight><div class = game-text id = current_round>Points du tour: 13</div></div><div class = cardbox><div class = square><input type='image' id = 1 class = 'card_image' src='/static/experiments/columbia_card_task_hot/images/beforeChosen.png'></div><div class = square><input type='image' id = 2 class = 'card_image' src='/static/experiments/columbia_card_task_hot/images/beforeChosen.png'></div><div class = square><input type='image' id = 3 class = 'card_image' src='/static/experiments/columbia_card_task_hot/images/beforeChosen.png'></div><div class = square><input type='image' id = 4 class = 'card_image' src='/static/experiments/columbia_card_task_hot/images/beforeChosen.png'></div><div class = square><input type='image' id = 5 class = 'card_image' src='/static/experiments/columbia_card_task_hot/images/beforeChosen.png'></div><div class = square><input type='image' id = 6 class = 'card_image' src='/static/experiments/columbia_card_task_hot/images/beforeChosen.png'></div><div class = square><input type='image' id = 7 class = 'card_image' src='/static/experiments/columbia_card_task_hot/images/beforeChosen.png'></div><div class = square><input type='image' id = 8 class = 'card_image' src='/static/experiments/columbia_card_task_hot/images/chosen.png'></div><div class = square><input type='image' id = 9 class = 'card_image' src='/static/experiments/columbia_card_task_hot/images/beforeChosen.png'></div><div class = square><input type='image' id = 10 class = 'card_image' src='/static/experiments/columbia_card_task_hot/images/beforeChosen.png'></div><div class = square><input type='image' id = 11 class = 'card_image' src='/static/experiments/columbia_card_task_hot/images/beforeChosen.png'></div><div class = square><input type='image' id = 12 class = 'card_image' src='/static/experiments/columbia_card_task_hot/images/beforeChosen.png'></div></div>","89,71","680","test","11","2","12","2","13","-70","26","false","",""
"758","89","poldrack-single-stim","54","122626","0.0-8.10-0.36-0.36","sub-06_sess-03_2","","758","0","stim","<div class = cct-box><div class = titleBigBox>   <div class = titleboxLeft><div class = game-text id = game_round>Tour: 11</div></div>   <div class = titleboxLeft1><div class = game-text id = loss_amount>Pertes: -70</div></div>    <div class = titleboxMiddle1><div class = game-text id = gain_amount>Gains: 13</div></div>    <div class = titlebox><div class = game-text>Combien de cartes voulez-vous prendre? </div></div>     <div class = titleboxRight1><div class = game-text id = num_loss_cards><font size='+3'>Mauveaises Cartes: 2</font></div></div>   <div class = titleboxRight><div class = game-text id = current_round>Points du tour: 26</div></div><div class = cardbox><div class = square><input type='image' id = 1 class = 'card_image' src='/static/experiments/columbia_card_task_hot/images/beforeChosen.png'></div><div class = square><input type='image' id = 2 class = 'card_image' src='/static/experiments/columbia_card_task_hot/images/beforeChosen.png'></div><div class = square><input type='image' id = 3 class = 'card_image' src='/static/experiments/columbia_card_task_hot/images/beforeChosen.png'></div><div class = square><input type='image' id = 4 class = 'card_image' src='/static/experiments/columbia_card_task_hot/images/chosen.png'></div><div class = square><input type='image' id = 5 class = 'card_image' src='/static/experiments/columbia_card_task_hot/images/beforeChosen.png'></div><div class = square><input type='image' id = 6 class = 'card_image' src='/static/experiments/columbia_card_task_hot/images/beforeChosen.png'></div><div class = square><input type='image' id = 7 class = 'card_image' src='/static/experiments/columbia_card_task_hot/images/beforeChosen.png'></div><div class = square><input type='image' id = 8 class = 'card_image' src='/static/experiments/columbia_card_task_hot/images/chosen.png'></div><div class = square><input type='image' id = 9 class = 'card_image' src='/static/experiments/columbia_card_task_hot/images/beforeChosen.png'></div><div class = square><input type='image' id = 10 class = 'card_image' src='/static/experiments/columbia_card_task_hot/images/beforeChosen.png'></div><div class = square><input type='image' id = 11 class = 'card_image' src='/static/experiments/columbia_card_task_hot/images/beforeChosen.png'></div><div class = square><input type='image' id = 12 class = 'card_image' src='/static/experiments/columbia_card_task_hot/images/beforeChosen.png'></div></div>","89,71","758","test","11","3","12","2","13","-70","39","false","",""
