"rt","key_press","trial_type","trial_index","time_elapsed","internal_node_id","subject","text","block_duration","timing_post_trial","trial_id","stimulus","possible_responses","stim_duration","exp_stage","which_round","num_click_in_round","num_cards","num_loss_cards","gain_amount","loss_amount","round_points","clicked_on_loss_card","reward","exp_id"
"1057","13","text","0","1062","0.0-0.0","sub-11_ses-03_2","","","","","","","","","","","","","","","","","",""
"1435","89","poldrack-text","1","3522","0.0-1.0","sub-11_ses-03_2","<div class = centerbox><div style = 'font-size: 50px' class = center-text>Veuillez appuyer avec votre index</p></div>","1435","500","fmri_response_test","","","","","","","","","","","","","",""
"378","71","poldrack-text","2","4414","0.0-2.0","sub-11_ses-03_2","<div class = centerbox><div style = 'font-size: 50px' class = center-text>Veuillez appuyer avec votre majeur</p></div>","378","500","fmri_response_test","","","","","","","","","","","","","",""
"3955","32","poldrack-single-stim","3","8885","0.0-3.0","sub-11_ses-03_2","","3955","500","instructions","<div class = centerbox><div class = center-text><font size=""+3"">Essayez d'obtenir autant de points que possible<br><br>Le montant des pertres, le montant du gain et le nombre de cartes de perte peuvent changer a chaque essai<br><br>Index: Prendre autre carte <br>Majeur: Fin de la ronde</font></div></div>","32","3955","","","","","","","","","","",""
"388","32","poldrack-text","4","9791","0.0-4.0","sub-11_ses-03_2","<div class = centerbox><div  class = center-text>Scanner Setup</div></div>","388","0","fmri_scanner_wait","","","","","","","","","","","","","",""
"54987","84","poldrack-text","5","64779","0.0-5.0","sub-11_ses-03_2","<div class = centerbox><div style='color:red'; class = center-text>+</div></div>","54987","0","fmri_trigger_wait","","","","","","","","","","","","","",""
"-1","-1","poldrack-single-stim","6","65792","0.0-6.0","sub-11_ses-03_2","","1000","0","fmri_buffer","","none","1000","","","","","","","","","","",""
"-1","-1","poldrack-single-stim","7","67313","0.0-7.0","sub-11_ses-03_2","","1500","500","test_start_block","<div class = centerbox><div class = center-text>Preparez-vous!</p></div>","none","1500","","","","","","","","","","",""
"1134","89","poldrack-single-stim","8","68971","0.0-8.0-0.0-0.0","sub-11_ses-03_2","","1134","0","stim","<div class = cct-box><div class = titleBigBox>   <div class = titleboxLeft><div class = game-text id = game_round>Tour: 1</div></div>   <div class = titleboxLeft1><div class = game-text id = loss_amount>Pertes: -70</div></div>    <div class = titleboxMiddle1><div class = game-text id = gain_amount>Gains: 12</div></div>    <div class = titlebox><div class = game-text>Combien de cartes voulez-vous prendre? </div></div>     <div class = titleboxRight1><div class = game-text id = num_loss_cards><font size='+3'>Mauveaises Cartes: 1</font></div></div>   <div class = titleboxRight><div class = game-text id = current_round>Points du tour: 0</div></div><div class = cardbox><div class = square><input type='image' id = 1 class = 'card_image' src='/static/experiments/columbia_card_task_hot/images/beforeChosen.png'></div><div class = square><input type='image' id = 2 class = 'card_image' src='/static/experiments/columbia_card_task_hot/images/beforeChosen.png'></div><div class = square><input type='image' id = 3 class = 'card_image' src='/static/experiments/columbia_card_task_hot/images/beforeChosen.png'></div><div class = square><input type='image' id = 4 class = 'card_image' src='/static/experiments/columbia_card_task_hot/images/beforeChosen.png'></div><div class = square><input type='image' id = 5 class = 'card_image' src='/static/experiments/columbia_card_task_hot/images/beforeChosen.png'></div><div class = square><input type='image' id = 6 class = 'card_image' src='/static/experiments/columbia_card_task_hot/images/beforeChosen.png'></div></div>","89,71","1134","test","1","1","6","1","12","-70","-70","true","",""
"-1","-1","poldrack-single-stim","9","71442","0.0-8.0-1.0","sub-11_ses-03_2","","2454","0","ITI","<div class = cct-box><div class = titleBigBox>   <div class = titleboxLeft><div class = game-text id = game_round>Tour: 1</div></div>   <div class = titleboxLeft1><div class = game-text id = loss_amount>Pertes: -70</div></div>    <div class = titleboxMiddle1><div class = game-text id = gain_amount>Gains: 12</div></div>    <div class = titlebox><div class = game-text>Combien de cartes voulez-vous prendre? </div></div>     <div class = titleboxRight1><div class = game-text id = num_loss_cards><font size='+3'>Mauveaises Cartes: 1</font></div></div>   <div class = titleboxRight><div class = game-text id = current_round>Points du tour: -70</div></div><div class = cardbox><div class = square><input type='image' id = 1 class = 'card_image' src='/static/experiments/columbia_card_task_hot/images/beforeChosen.png'></div><div class = square><input type='image' id = 2 class = 'card_image' src='/static/experiments/columbia_card_task_hot/images/beforeChosen.png'></div><div class = square><input type='image' id = 3 class = 'card_image' src='/static/experiments/columbia_card_task_hot/images/beforeChosen.png'></div><div class = square><input type='image' id = 4 class = 'card_image' src='/static/experiments/columbia_card_task_hot/images/beforeChosen.png'></div><div class = square><input type='image' id = 5 class = 'card_image' src='/static/experiments/columbia_card_task_hot/images/beforeChosen.png'></div><div class = square><input type='image' id = 6 class = 'card_image' src='/static/experiments/columbia_card_task_hot/images/loss.png'></div></div>","none","2250","","","","","","","","","","",""
"987","89","poldrack-single-stim","10","72439","0.0-8.1-0.1-0.1","sub-11_ses-03_2","","987","0","stim","<div class = cct-box><div class = titleBigBox>   <div class = titleboxLeft><div class = game-text id = game_round>Tour: 2</div></div>   <div class = titleboxLeft1><div class = game-text id = loss_amount>Pertes: -75</div></div>    <div class = titleboxMiddle1><div class = game-text id = gain_amount>Gains: 14</div></div>    <div class = titlebox><div class = game-text>Combien de cartes voulez-vous prendre? </div></div>     <div class = titleboxRight1><div class = game-text id = num_loss_cards><font size='+3'>Mauveaises Cartes: 1</font></div></div>   <div class = titleboxRight><div class = game-text id = current_round>Points du tour: 0</div></div><div class = cardbox><div class = square><input type='image' id = 1 class = 'card_image' src='/static/experiments/columbia_card_task_hot/images/beforeChosen.png'></div><div class = square><input type='image' id = 2 class = 'card_image' src='/static/experiments/columbia_card_task_hot/images/beforeChosen.png'></div><div class = square><input type='image' id = 3 class = 'card_image' src='/static/experiments/columbia_card_task_hot/images/beforeChosen.png'></div><div class = square><input type='image' id = 4 class = 'card_image' src='/static/experiments/columbia_card_task_hot/images/beforeChosen.png'></div><div class = square><input type='image' id = 5 class = 'card_image' src='/static/experiments/columbia_card_task_hot/images/beforeChosen.png'></div><div class = square><input type='image' id = 6 class = 'card_image' src='/static/experiments/columbia_card_task_hot/images/beforeChosen.png'></div></div>","89,71","987","test","2","1","6","1","14","-75","14","false","",""
"639","89","poldrack-single-stim","11","73088","0.0-8.1-0.2-0.2","sub-11_ses-03_2","","639","0","stim","<div class = cct-box><div class = titleBigBox>   <div class = titleboxLeft><div class = game-text id = game_round>Tour: 2</div></div>   <div class = titleboxLeft1><div class = game-text id = loss_amount>Pertes: -75</div></div>    <div class = titleboxMiddle1><div class = game-text id = gain_amount>Gains: 14</div></div>    <div class = titlebox><div class = game-text>Combien de cartes voulez-vous prendre? </div></div>     <div class = titleboxRight1><div class = game-text id = num_loss_cards><font size='+3'>Mauveaises Cartes: 1</font></div></div>   <div class = titleboxRight><div class = game-text id = current_round>Points du tour: 14</div></div><div class = cardbox><div class = square><input type='image' id = 1 class = 'card_image' src='/static/experiments/columbia_card_task_hot/images/beforeChosen.png'></div><div class = square><input type='image' id = 2 class = 'card_image' src='/static/experiments/columbia_card_task_hot/images/beforeChosen.png'></div><div class = square><input type='image' id = 3 class = 'card_image' src='/static/experiments/columbia_card_task_hot/images/chosen.png'></div><div class = square><input type='image' id = 4 class = 'card_image' src='/static/experiments/columbia_card_task_hot/images/beforeChosen.png'></div><div class = square><input type='image' id = 5 class = 'card_image' src='/static/experiments/columbia_card_task_hot/images/beforeChosen.png'></div><div class = square><input type='image' id = 6 class = 'card_image' src='/static/experiments/columbia_card_task_hot/images/beforeChosen.png'></div></div>","89,71","639","test","2","2","6","1","14","-75","28","false","",""
"674","89","poldrack-single-stim","12","73770","0.0-8.1-0.3-0.3","sub-11_ses-03_2","","674","0","stim","<div class = cct-box><div class = titleBigBox>   <div class = titleboxLeft><div class = game-text id = game_round>Tour: 2</div></div>   <div class = titleboxLeft1><div class = game-text id = loss_amount>Pertes: -75</div></div>    <div class = titleboxMiddle1><div class = game-text id = gain_amount>Gains: 14</div></div>    <div class = titlebox><div class = game-text>Combien de cartes voulez-vous prendre? </div></div>     <div class = titleboxRight1><div class = game-text id = num_loss_cards><font size='+3'>Mauveaises Cartes: 1</font></div></div>   <div class = titleboxRight><div class = game-text id = current_round>Points du tour: 28</div></div><div class = cardbox><div class = square><input type='image' id = 1 class = 'card_image' src='/static/experiments/columbia_card_task_hot/images/chosen.png'></div><div class = square><input type='image' id = 2 class = 'card_image' src='/static/experiments/columbia_card_task_hot/images/beforeChosen.png'></div><div class = square><input type='image' id = 3 class = 'card_image' src='/static/experiments/columbia_card_task_hot/images/chosen.png'></div><div class = square><input type='image' id = 4 class = 'card_image' src='/static/experiments/columbia_card_task_hot/images/beforeChosen.png'></div><div class = square><input type='image' id = 5 class = 'card_image' src='/static/experiments/columbia_card_task_hot/images/beforeChosen.png'></div><div class = square><input type='image' id = 6 class = 'card_image' src='/static/experiments/columbia_card_task_hot/images/beforeChosen.png'></div></div>","89,71","674","test","2","3","6","1","14","-75","-47","true","",""
"-1","-1","poldrack-single-stim","13","76252","0.0-8.1-1.1","sub-11_ses-03_2","","2454","0","ITI","<div class = cct-box><div class = titleBigBox>   <div class = titleboxLeft><div class = game-text id = game_round>Tour: 2</div></div>   <div class = titleboxLeft1><div class = game-text id = loss_amount>Pertes: -75</div></div>    <div class = titleboxMiddle1><div class = game-text id = gain_amount>Gains: 14</div></div>    <div class = titlebox><div class = game-text>Combien de cartes voulez-vous prendre? </div></div>     <div class = titleboxRight1><div class = game-text id = num_loss_cards><font size='+3'>Mauveaises Cartes: 1</font></div></div>   <div class = titleboxRight><div class = game-text id = current_round>Points du tour: -47</div></div><div class = cardbox><div class = square><input type='image' id = 1 class = 'card_image' src='/static/experiments/columbia_card_task_hot/images/chosen.png'></div><div class = square><input type='image' id = 2 class = 'card_image' src='/static/experiments/columbia_card_task_hot/images/beforeChosen.png'></div><div class = square><input type='image' id = 3 class = 'card_image' src='/static/experiments/columbia_card_task_hot/images/chosen.png'></div><div class = square><input type='image' id = 4 class = 'card_image' src='/static/experiments/columbia_card_task_hot/images/beforeChosen.png'></div><div class = square><input type='image' id = 5 class = 'card_image' src='/static/experiments/columbia_card_task_hot/images/beforeChosen.png'></div><div class = square><input type='image' id = 6 class = 'card_image' src='/static/experiments/columbia_card_task_hot/images/loss.png'></div></div>","none","2250","","","","","","","","","","",""
"572","89","poldrack-single-stim","14","76829","0.0-8.2-0.4-0.4","sub-11_ses-03_2","","572","0","stim","<div class = cct-box><div class = titleBigBox>   <div class = titleboxLeft><div class = game-text id = game_round>Tour: 3</div></div>   <div class = titleboxLeft1><div class = game-text id = loss_amount>Pertes: -70</div></div>    <div class = titleboxMiddle1><div class = game-text id = gain_amount>Gains: 15</div></div>    <div class = titlebox><div class = game-text>Combien de cartes voulez-vous prendre? </div></div>     <div class = titleboxRight1><div class = game-text id = num_loss_cards><font size='+3'>Mauveaises Cartes: 1</font></div></div>   <div class = titleboxRight><div class = game-text id = current_round>Points du tour: 0</div></div><div class = cardbox><div class = square><input type='image' id = 1 class = 'card_image' src='/static/experiments/columbia_card_task_hot/images/beforeChosen.png'></div><div class = square><input type='image' id = 2 class = 'card_image' src='/static/experiments/columbia_card_task_hot/images/beforeChosen.png'></div><div class = square><input type='image' id = 3 class = 'card_image' src='/static/experiments/columbia_card_task_hot/images/beforeChosen.png'></div><div class = square><input type='image' id = 4 class = 'card_image' src='/static/experiments/columbia_card_task_hot/images/beforeChosen.png'></div><div class = square><input type='image' id = 5 class = 'card_image' src='/static/experiments/columbia_card_task_hot/images/beforeChosen.png'></div><div class = square><input type='image' id = 6 class = 'card_image' src='/static/experiments/columbia_card_task_hot/images/beforeChosen.png'></div></div>","89,71","572","test","3","1","6","1","15","-70","15","false","",""
"646","89","poldrack-single-stim","15","77479","0.0-8.2-0.5-0.5","sub-11_ses-03_2","","646","0","stim","<div class = cct-box><div class = titleBigBox>   <div class = titleboxLeft><div class = game-text id = game_round>Tour: 3</div></div>   <div class = titleboxLeft1><div class = game-text id = loss_amount>Pertes: -70</div></div>    <div class = titleboxMiddle1><div class = game-text id = gain_amount>Gains: 15</div></div>    <div class = titlebox><div class = game-text>Combien de cartes voulez-vous prendre? </div></div>     <div class = titleboxRight1><div class = game-text id = num_loss_cards><font size='+3'>Mauveaises Cartes: 1</font></div></div>   <div class = titleboxRight><div class = game-text id = current_round>Points du tour: 15</div></div><div class = cardbox><div class = square><input type='image' id = 1 class = 'card_image' src='/static/experiments/columbia_card_task_hot/images/beforeChosen.png'></div><div class = square><input type='image' id = 2 class = 'card_image' src='/static/experiments/columbia_card_task_hot/images/beforeChosen.png'></div><div class = square><input type='image' id = 3 class = 'card_image' src='/static/experiments/columbia_card_task_hot/images/beforeChosen.png'></div><div class = square><input type='image' id = 4 class = 'card_image' src='/static/experiments/columbia_card_task_hot/images/beforeChosen.png'></div><div class = square><input type='image' id = 5 class = 'card_image' src='/static/experiments/columbia_card_task_hot/images/beforeChosen.png'></div><div class = square><input type='image' id = 6 class = 'card_image' src='/static/experiments/columbia_card_task_hot/images/chosen.png'></div></div>","89,71","646","test","3","2","6","1","15","-70","30","false","",""
"511","71","poldrack-single-stim","16","77996","0.0-8.2-0.6-0.6","sub-11_ses-03_2","","511","0","stim","<div class = cct-box><div class = titleBigBox>   <div class = titleboxLeft><div class = game-text id = game_round>Tour: 3</div></div>   <div class = titleboxLeft1><div class = game-text id = loss_amount>Pertes: -70</div></div>    <div class = titleboxMiddle1><div class = game-text id = gain_amount>Gains: 15</div></div>    <div class = titlebox><div class = game-text>Combien de cartes voulez-vous prendre? </div></div>     <div class = titleboxRight1><div class = game-text id = num_loss_cards><font size='+3'>Mauveaises Cartes: 1</font></div></div>   <div class = titleboxRight><div class = game-text id = current_round>Points du tour: 30</div></div><div class = cardbox><div class = square><input type='image' id = 1 class = 'card_image' src='/static/experiments/columbia_card_task_hot/images/beforeChosen.png'></div><div class = square><input type='image' id = 2 class = 'card_image' src='/static/experiments/columbia_card_task_hot/images/beforeChosen.png'></div><div class = square><input type='image' id = 3 class = 'card_image' src='/static/experiments/columbia_card_task_hot/images/beforeChosen.png'></div><div class = square><input type='image' id = 4 class = 'card_image' src='/static/experiments/columbia_card_task_hot/images/chosen.png'></div><div class = square><input type='image' id = 5 class = 'card_image' src='/static/experiments/columbia_card_task_hot/images/beforeChosen.png'></div><div class = square><input type='image' id = 6 class = 'card_image' src='/static/experiments/columbia_card_task_hot/images/chosen.png'></div></div>","89,71","511","test","3","2","6","1","15","-70","30","false","",""
"-1","-1","poldrack-single-stim","17","80532","0.0-8.2-1.2","sub-11_ses-03_2","","2522","0","ITI","<div class = cct-box><div class = titleBigBox>   <div class = titleboxLeft><div class = game-text id = game_round>Tour: 3</div></div>   <div class = titleboxLeft1><div class = game-text id = loss_amount>Pertes: -70</div></div>    <div class = titleboxMiddle1><div class = game-text id = gain_amount>Gains: 15</div></div>    <div class = titlebox><div class = game-text>Combien de cartes voulez-vous prendre? </div></div>     <div class = titleboxRight1><div class = game-text id = num_loss_cards><font size='+3'>Mauveaises Cartes: 1</font></div></div>   <div class = titleboxRight><div class = game-text id = current_round>Points du tour: 30</div></div><div class = cardbox><div class = square><input type='image' id = 1 class = 'card_image' src='/static/experiments/columbia_card_task_hot/images/beforeChosen.png'></div><div class = square><input type='image' id = 2 class = 'card_image' src='/static/experiments/columbia_card_task_hot/images/beforeChosen.png'></div><div class = square><input type='image' id = 3 class = 'card_image' src='/static/experiments/columbia_card_task_hot/images/beforeChosen.png'></div><div class = square><input type='image' id = 4 class = 'card_image' src='/static/experiments/columbia_card_task_hot/images/chosen.png'></div><div class = square><input type='image' id = 5 class = 'card_image' src='/static/experiments/columbia_card_task_hot/images/beforeChosen.png'></div><div class = square><input type='image' id = 6 class = 'card_image' src='/static/experiments/columbia_card_task_hot/images/chosen.png'></div></div>","none","2250","","","","","","","","","","",""
"736","89","poldrack-single-stim","18","81272","0.0-8.3-0.7-0.7","sub-11_ses-03_2","","736","0","stim","<div class = cct-box><div class = titleBigBox>   <div class = titleboxLeft><div class = game-text id = game_round>Tour: 4</div></div>   <div class = titleboxLeft1><div class = game-text id = loss_amount>Pertes: -75</div></div>    <div class = titleboxMiddle1><div class = game-text id = gain_amount>Gains: 17</div></div>    <div class = titlebox><div class = game-text>Combien de cartes voulez-vous prendre? </div></div>     <div class = titleboxRight1><div class = game-text id = num_loss_cards><font size='+3'>Mauveaises Cartes: 1</font></div></div>   <div class = titleboxRight><div class = game-text id = current_round>Points du tour: 0</div></div><div class = cardbox><div class = square><input type='image' id = 1 class = 'card_image' src='/static/experiments/columbia_card_task_hot/images/beforeChosen.png'></div><div class = square><input type='image' id = 2 class = 'card_image' src='/static/experiments/columbia_card_task_hot/images/beforeChosen.png'></div><div class = square><input type='image' id = 3 class = 'card_image' src='/static/experiments/columbia_card_task_hot/images/beforeChosen.png'></div><div class = square><input type='image' id = 4 class = 'card_image' src='/static/experiments/columbia_card_task_hot/images/beforeChosen.png'></div><div class = square><input type='image' id = 5 class = 'card_image' src='/static/experiments/columbia_card_task_hot/images/beforeChosen.png'></div><div class = square><input type='image' id = 6 class = 'card_image' src='/static/experiments/columbia_card_task_hot/images/beforeChosen.png'></div></div>","89,71","736","test","4","1","6","1","17","-75","17","false","",""
"1160","71","poldrack-single-stim","19","82435","0.0-8.3-0.8-0.8","sub-11_ses-03_2","","1160","0","stim","<div class = cct-box><div class = titleBigBox>   <div class = titleboxLeft><div class = game-text id = game_round>Tour: 4</div></div>   <div class = titleboxLeft1><div class = game-text id = loss_amount>Pertes: -75</div></div>    <div class = titleboxMiddle1><div class = game-text id = gain_amount>Gains: 17</div></div>    <div class = titlebox><div class = game-text>Combien de cartes voulez-vous prendre? </div></div>     <div class = titleboxRight1><div class = game-text id = num_loss_cards><font size='+3'>Mauveaises Cartes: 1</font></div></div>   <div class = titleboxRight><div class = game-text id = current_round>Points du tour: 17</div></div><div class = cardbox><div class = square><input type='image' id = 1 class = 'card_image' src='/static/experiments/columbia_card_task_hot/images/beforeChosen.png'></div><div class = square><input type='image' id = 2 class = 'card_image' src='/static/experiments/columbia_card_task_hot/images/beforeChosen.png'></div><div class = square><input type='image' id = 3 class = 'card_image' src='/static/experiments/columbia_card_task_hot/images/beforeChosen.png'></div><div class = square><input type='image' id = 4 class = 'card_image' src='/static/experiments/columbia_card_task_hot/images/chosen.png'></div><div class = square><input type='image' id = 5 class = 'card_image' src='/static/experiments/columbia_card_task_hot/images/beforeChosen.png'></div><div class = square><input type='image' id = 6 class = 'card_image' src='/static/experiments/columbia_card_task_hot/images/beforeChosen.png'></div></div>","89,71","1160","test","4","1","6","1","17","-75","17","false","",""
"-1","-1","poldrack-single-stim","20","84913","0.0-8.3-1.3","sub-11_ses-03_2","","2454","0","ITI","<div class = cct-box><div class = titleBigBox>   <div class = titleboxLeft><div class = game-text id = game_round>Tour: 4</div></div>   <div class = titleboxLeft1><div class = game-text id = loss_amount>Pertes: -75</div></div>    <div class = titleboxMiddle1><div class = game-text id = gain_amount>Gains: 17</div></div>    <div class = titlebox><div class = game-text>Combien de cartes voulez-vous prendre? </div></div>     <div class = titleboxRight1><div class = game-text id = num_loss_cards><font size='+3'>Mauveaises Cartes: 1</font></div></div>   <div class = titleboxRight><div class = game-text id = current_round>Points du tour: 17</div></div><div class = cardbox><div class = square><input type='image' id = 1 class = 'card_image' src='/static/experiments/columbia_card_task_hot/images/beforeChosen.png'></div><div class = square><input type='image' id = 2 class = 'card_image' src='/static/experiments/columbia_card_task_hot/images/beforeChosen.png'></div><div class = square><input type='image' id = 3 class = 'card_image' src='/static/experiments/columbia_card_task_hot/images/beforeChosen.png'></div><div class = square><input type='image' id = 4 class = 'card_image' src='/static/experiments/columbia_card_task_hot/images/chosen.png'></div><div class = square><input type='image' id = 5 class = 'card_image' src='/static/experiments/columbia_card_task_hot/images/beforeChosen.png'></div><div class = square><input type='image' id = 6 class = 'card_image' src='/static/experiments/columbia_card_task_hot/images/beforeChosen.png'></div></div>","none","2250","","","","","","","","","","",""
"473","89","poldrack-single-stim","21","85389","0.0-8.4-0.9-0.9","sub-11_ses-03_2","","473","0","stim","<div class = cct-box><div class = titleBigBox>   <div class = titleboxLeft><div class = game-text id = game_round>Tour: 5</div></div>   <div class = titleboxLeft1><div class = game-text id = loss_amount>Pertes: -60</div></div>    <div class = titleboxMiddle1><div class = game-text id = gain_amount>Gains: 24</div></div>    <div class = titlebox><div class = game-text>Combien de cartes voulez-vous prendre? </div></div>     <div class = titleboxRight1><div class = game-text id = num_loss_cards><font size='+3'>Mauveaises Cartes: 2</font></div></div>   <div class = titleboxRight><div class = game-text id = current_round>Points du tour: 0</div></div><div class = cardbox><div class = square><input type='image' id = 1 class = 'card_image' src='/static/experiments/columbia_card_task_hot/images/beforeChosen.png'></div><div class = square><input type='image' id = 2 class = 'card_image' src='/static/experiments/columbia_card_task_hot/images/beforeChosen.png'></div><div class = square><input type='image' id = 3 class = 'card_image' src='/static/experiments/columbia_card_task_hot/images/beforeChosen.png'></div><div class = square><input type='image' id = 4 class = 'card_image' src='/static/experiments/columbia_card_task_hot/images/beforeChosen.png'></div><div class = square><input type='image' id = 5 class = 'card_image' src='/static/experiments/columbia_card_task_hot/images/beforeChosen.png'></div><div class = square><input type='image' id = 6 class = 'card_image' src='/static/experiments/columbia_card_task_hot/images/beforeChosen.png'></div><div class = square><input type='image' id = 7 class = 'card_image' src='/static/experiments/columbia_card_task_hot/images/beforeChosen.png'></div><div class = square><input type='image' id = 8 class = 'card_image' src='/static/experiments/columbia_card_task_hot/images/beforeChosen.png'></div></div>","89,71","473","test","5","1","8","2","24","-60","24","false","",""
"383","89","poldrack-single-stim","22","85774","0.0-8.4-0.10-0.10","sub-11_ses-03_2","","383","0","stim","<div class = cct-box><div class = titleBigBox>   <div class = titleboxLeft><div class = game-text id = game_round>Tour: 5</div></div>   <div class = titleboxLeft1><div class = game-text id = loss_amount>Pertes: -60</div></div>    <div class = titleboxMiddle1><div class = game-text id = gain_amount>Gains: 24</div></div>    <div class = titlebox><div class = game-text>Combien de cartes voulez-vous prendre? </div></div>     <div class = titleboxRight1><div class = game-text id = num_loss_cards><font size='+3'>Mauveaises Cartes: 2</font></div></div>   <div class = titleboxRight><div class = game-text id = current_round>Points du tour: 24</div></div><div class = cardbox><div class = square><input type='image' id = 1 class = 'card_image' src='/static/experiments/columbia_card_task_hot/images/beforeChosen.png'></div><div class = square><input type='image' id = 2 class = 'card_image' src='/static/experiments/columbia_card_task_hot/images/beforeChosen.png'></div><div class = square><input type='image' id = 3 class = 'card_image' src='/static/experiments/columbia_card_task_hot/images/beforeChosen.png'></div><div class = square><input type='image' id = 4 class = 'card_image' src='/static/experiments/columbia_card_task_hot/images/beforeChosen.png'></div><div class = square><input type='image' id = 5 class = 'card_image' src='/static/experiments/columbia_card_task_hot/images/beforeChosen.png'></div><div class = square><input type='image' id = 6 class = 'card_image' src='/static/experiments/columbia_card_task_hot/images/chosen.png'></div><div class = square><input type='image' id = 7 class = 'card_image' src='/static/experiments/columbia_card_task_hot/images/beforeChosen.png'></div><div class = square><input type='image' id = 8 class = 'card_image' src='/static/experiments/columbia_card_task_hot/images/beforeChosen.png'></div></div>","89,71","383","test","5","2","8","2","24","-60","48","false","",""
"467","71","poldrack-single-stim","23","86244","0.0-8.4-0.11-0.11","sub-11_ses-03_2","","467","0","stim","<div class = cct-box><div class = titleBigBox>   <div class = titleboxLeft><div class = game-text id = game_round>Tour: 5</div></div>   <div class = titleboxLeft1><div class = game-text id = loss_amount>Pertes: -60</div></div>    <div class = titleboxMiddle1><div class = game-text id = gain_amount>Gains: 24</div></div>    <div class = titlebox><div class = game-text>Combien de cartes voulez-vous prendre? </div></div>     <div class = titleboxRight1><div class = game-text id = num_loss_cards><font size='+3'>Mauveaises Cartes: 2</font></div></div>   <div class = titleboxRight><div class = game-text id = current_round>Points du tour: 48</div></div><div class = cardbox><div class = square><input type='image' id = 1 class = 'card_image' src='/static/experiments/columbia_card_task_hot/images/beforeChosen.png'></div><div class = square><input type='image' id = 2 class = 'card_image' src='/static/experiments/columbia_card_task_hot/images/beforeChosen.png'></div><div class = square><input type='image' id = 3 class = 'card_image' src='/static/experiments/columbia_card_task_hot/images/beforeChosen.png'></div><div class = square><input type='image' id = 4 class = 'card_image' src='/static/experiments/columbia_card_task_hot/images/beforeChosen.png'></div><div class = square><input type='image' id = 5 class = 'card_image' src='/static/experiments/columbia_card_task_hot/images/beforeChosen.png'></div><div class = square><input type='image' id = 6 class = 'card_image' src='/static/experiments/columbia_card_task_hot/images/chosen.png'></div><div class = square><input type='image' id = 7 class = 'card_image' src='/static/experiments/columbia_card_task_hot/images/beforeChosen.png'></div><div class = square><input type='image' id = 8 class = 'card_image' src='/static/experiments/columbia_card_task_hot/images/chosen.png'></div></div>","89,71","467","test","5","2","8","2","24","-60","48","false","",""
"-1","-1","poldrack-single-stim","24","88922","0.0-8.4-1.4","sub-11_ses-03_2","","2658","0","ITI","<div class = cct-box><div class = titleBigBox>   <div class = titleboxLeft><div class = game-text id = game_round>Tour: 5</div></div>   <div class = titleboxLeft1><div class = game-text id = loss_amount>Pertes: -60</div></div>    <div class = titleboxMiddle1><div class = game-text id = gain_amount>Gains: 24</div></div>    <div class = titlebox><div class = game-text>Combien de cartes voulez-vous prendre? </div></div>     <div class = titleboxRight1><div class = game-text id = num_loss_cards><font size='+3'>Mauveaises Cartes: 2</font></div></div>   <div class = titleboxRight><div class = game-text id = current_round>Points du tour: 48</div></div><div class = cardbox><div class = square><input type='image' id = 1 class = 'card_image' src='/static/experiments/columbia_card_task_hot/images/beforeChosen.png'></div><div class = square><input type='image' id = 2 class = 'card_image' src='/static/experiments/columbia_card_task_hot/images/beforeChosen.png'></div><div class = square><input type='image' id = 3 class = 'card_image' src='/static/experiments/columbia_card_task_hot/images/beforeChosen.png'></div><div class = square><input type='image' id = 4 class = 'card_image' src='/static/experiments/columbia_card_task_hot/images/beforeChosen.png'></div><div class = square><input type='image' id = 5 class = 'card_image' src='/static/experiments/columbia_card_task_hot/images/beforeChosen.png'></div><div class = square><input type='image' id = 6 class = 'card_image' src='/static/experiments/columbia_card_task_hot/images/chosen.png'></div><div class = square><input type='image' id = 7 class = 'card_image' src='/static/experiments/columbia_card_task_hot/images/beforeChosen.png'></div><div class = square><input type='image' id = 8 class = 'card_image' src='/static/experiments/columbia_card_task_hot/images/chosen.png'></div></div>","none","2250","","","","","","","","","","",""
"656","89","poldrack-single-stim","25","89581","0.0-8.5-0.12-0.12","sub-11_ses-03_2","","656","0","stim","<div class = cct-box><div class = titleBigBox>   <div class = titleboxLeft><div class = game-text id = game_round>Tour: 6</div></div>   <div class = titleboxLeft1><div class = game-text id = loss_amount>Pertes: -75</div></div>    <div class = titleboxMiddle1><div class = game-text id = gain_amount>Gains: 29</div></div>    <div class = titlebox><div class = game-text>Combien de cartes voulez-vous prendre? </div></div>     <div class = titleboxRight1><div class = game-text id = num_loss_cards><font size='+3'>Mauveaises Cartes: 2</font></div></div>   <div class = titleboxRight><div class = game-text id = current_round>Points du tour: 0</div></div><div class = cardbox><div class = square><input type='image' id = 1 class = 'card_image' src='/static/experiments/columbia_card_task_hot/images/beforeChosen.png'></div><div class = square><input type='image' id = 2 class = 'card_image' src='/static/experiments/columbia_card_task_hot/images/beforeChosen.png'></div><div class = square><input type='image' id = 3 class = 'card_image' src='/static/experiments/columbia_card_task_hot/images/beforeChosen.png'></div><div class = square><input type='image' id = 4 class = 'card_image' src='/static/experiments/columbia_card_task_hot/images/beforeChosen.png'></div><div class = square><input type='image' id = 5 class = 'card_image' src='/static/experiments/columbia_card_task_hot/images/beforeChosen.png'></div><div class = square><input type='image' id = 6 class = 'card_image' src='/static/experiments/columbia_card_task_hot/images/beforeChosen.png'></div><div class = square><input type='image' id = 7 class = 'card_image' src='/static/experiments/columbia_card_task_hot/images/beforeChosen.png'></div><div class = square><input type='image' id = 8 class = 'card_image' src='/static/experiments/columbia_card_task_hot/images/beforeChosen.png'></div></div>","89,71","656","test","6","1","8","2","29","-75","29","false","",""
"393","89","poldrack-single-stim","26","89978","0.0-8.5-0.13-0.13","sub-11_ses-03_2","","393","0","stim","<div class = cct-box><div class = titleBigBox>   <div class = titleboxLeft><div class = game-text id = game_round>Tour: 6</div></div>   <div class = titleboxLeft1><div class = game-text id = loss_amount>Pertes: -75</div></div>    <div class = titleboxMiddle1><div class = game-text id = gain_amount>Gains: 29</div></div>    <div class = titlebox><div class = game-text>Combien de cartes voulez-vous prendre? </div></div>     <div class = titleboxRight1><div class = game-text id = num_loss_cards><font size='+3'>Mauveaises Cartes: 2</font></div></div>   <div class = titleboxRight><div class = game-text id = current_round>Points du tour: 29</div></div><div class = cardbox><div class = square><input type='image' id = 1 class = 'card_image' src='/static/experiments/columbia_card_task_hot/images/beforeChosen.png'></div><div class = square><input type='image' id = 2 class = 'card_image' src='/static/experiments/columbia_card_task_hot/images/beforeChosen.png'></div><div class = square><input type='image' id = 3 class = 'card_image' src='/static/experiments/columbia_card_task_hot/images/beforeChosen.png'></div><div class = square><input type='image' id = 4 class = 'card_image' src='/static/experiments/columbia_card_task_hot/images/beforeChosen.png'></div><div class = square><input type='image' id = 5 class = 'card_image' src='/static/experiments/columbia_card_task_hot/images/beforeChosen.png'></div><div class = square><input type='image' id = 6 class = 'card_image' src='/static/experiments/columbia_card_task_hot/images/beforeChosen.png'></div><div class = square><input type='image' id = 7 class = 'card_image' src='/static/experiments/columbia_card_task_hot/images/chosen.png'></div><div class = square><input type='image' id = 8 class = 'card_image' src='/static/experiments/columbia_card_task_hot/images/beforeChosen.png'></div></div>","89,71","393","test","6","2","8","2","29","-75","58","false","",""
"425","71","poldrack-single-stim","27","90410","0.0-8.5-0.14-0.14","sub-11_ses-03_2","","425","0","stim","<div class = cct-box><div class = titleBigBox>   <div class = titleboxLeft><div class = game-text id = game_round>Tour: 6</div></div>   <div class = titleboxLeft1><div class = game-text id = loss_amount>Pertes: -75</div></div>    <div class = titleboxMiddle1><div class = game-text id = gain_amount>Gains: 29</div></div>    <div class = titlebox><div class = game-text>Combien de cartes voulez-vous prendre? </div></div>     <div class = titleboxRight1><div class = game-text id = num_loss_cards><font size='+3'>Mauveaises Cartes: 2</font></div></div>   <div class = titleboxRight><div class = game-text id = current_round>Points du tour: 58</div></div><div class = cardbox><div class = square><input type='image' id = 1 class = 'card_image' src='/static/experiments/columbia_card_task_hot/images/beforeChosen.png'></div><div class = square><input type='image' id = 2 class = 'card_image' src='/static/experiments/columbia_card_task_hot/images/beforeChosen.png'></div><div class = square><input type='image' id = 3 class = 'card_image' src='/static/experiments/columbia_card_task_hot/images/chosen.png'></div><div class = square><input type='image' id = 4 class = 'card_image' src='/static/experiments/columbia_card_task_hot/images/beforeChosen.png'></div><div class = square><input type='image' id = 5 class = 'card_image' src='/static/experiments/columbia_card_task_hot/images/beforeChosen.png'></div><div class = square><input type='image' id = 6 class = 'card_image' src='/static/experiments/columbia_card_task_hot/images/beforeChosen.png'></div><div class = square><input type='image' id = 7 class = 'card_image' src='/static/experiments/columbia_card_task_hot/images/chosen.png'></div><div class = square><input type='image' id = 8 class = 'card_image' src='/static/experiments/columbia_card_task_hot/images/beforeChosen.png'></div></div>","89,71","425","test","6","2","8","2","29","-75","58","false","",""
"-1","-1","poldrack-single-stim","28","92811","0.0-8.5-1.5","sub-11_ses-03_2","","2386","0","ITI","<div class = cct-box><div class = titleBigBox>   <div class = titleboxLeft><div class = game-text id = game_round>Tour: 6</div></div>   <div class = titleboxLeft1><div class = game-text id = loss_amount>Pertes: -75</div></div>    <div class = titleboxMiddle1><div class = game-text id = gain_amount>Gains: 29</div></div>    <div class = titlebox><div class = game-text>Combien de cartes voulez-vous prendre? </div></div>     <div class = titleboxRight1><div class = game-text id = num_loss_cards><font size='+3'>Mauveaises Cartes: 2</font></div></div>   <div class = titleboxRight><div class = game-text id = current_round>Points du tour: 58</div></div><div class = cardbox><div class = square><input type='image' id = 1 class = 'card_image' src='/static/experiments/columbia_card_task_hot/images/beforeChosen.png'></div><div class = square><input type='image' id = 2 class = 'card_image' src='/static/experiments/columbia_card_task_hot/images/beforeChosen.png'></div><div class = square><input type='image' id = 3 class = 'card_image' src='/static/experiments/columbia_card_task_hot/images/chosen.png'></div><div class = square><input type='image' id = 4 class = 'card_image' src='/static/experiments/columbia_card_task_hot/images/beforeChosen.png'></div><div class = square><input type='image' id = 5 class = 'card_image' src='/static/experiments/columbia_card_task_hot/images/beforeChosen.png'></div><div class = square><input type='image' id = 6 class = 'card_image' src='/static/experiments/columbia_card_task_hot/images/beforeChosen.png'></div><div class = square><input type='image' id = 7 class = 'card_image' src='/static/experiments/columbia_card_task_hot/images/chosen.png'></div><div class = square><input type='image' id = 8 class = 'card_image' src='/static/experiments/columbia_card_task_hot/images/beforeChosen.png'></div></div>","none","2250","","","","","","","","","","",""
"635","89","poldrack-single-stim","29","93454","0.0-8.6-0.15-0.15","sub-11_ses-03_2","","635","0","stim","<div class = cct-box><div class = titleBigBox>   <div class = titleboxLeft><div class = game-text id = game_round>Tour: 7</div></div>   <div class = titleboxLeft1><div class = game-text id = loss_amount>Pertes: -65</div></div>    <div class = titleboxMiddle1><div class = game-text id = gain_amount>Gains: 17</div></div>    <div class = titlebox><div class = game-text>Combien de cartes voulez-vous prendre? </div></div>     <div class = titleboxRight1><div class = game-text id = num_loss_cards><font size='+3'>Mauveaises Cartes: 2</font></div></div>   <div class = titleboxRight><div class = game-text id = current_round>Points du tour: 0</div></div><div class = cardbox><div class = square><input type='image' id = 1 class = 'card_image' src='/static/experiments/columbia_card_task_hot/images/beforeChosen.png'></div><div class = square><input type='image' id = 2 class = 'card_image' src='/static/experiments/columbia_card_task_hot/images/beforeChosen.png'></div><div class = square><input type='image' id = 3 class = 'card_image' src='/static/experiments/columbia_card_task_hot/images/beforeChosen.png'></div><div class = square><input type='image' id = 4 class = 'card_image' src='/static/experiments/columbia_card_task_hot/images/beforeChosen.png'></div><div class = square><input type='image' id = 5 class = 'card_image' src='/static/experiments/columbia_card_task_hot/images/beforeChosen.png'></div><div class = square><input type='image' id = 6 class = 'card_image' src='/static/experiments/columbia_card_task_hot/images/beforeChosen.png'></div><div class = square><input type='image' id = 7 class = 'card_image' src='/static/experiments/columbia_card_task_hot/images/beforeChosen.png'></div><div class = square><input type='image' id = 8 class = 'card_image' src='/static/experiments/columbia_card_task_hot/images/beforeChosen.png'></div><div class = square><input type='image' id = 9 class = 'card_image' src='/static/experiments/columbia_card_task_hot/images/beforeChosen.png'></div></div>","89,71","635","test","7","1","9","2","17","-65","17","false","",""
"397","89","poldrack-single-stim","30","93857","0.0-8.6-0.16-0.16","sub-11_ses-03_2","","397","0","stim","<div class = cct-box><div class = titleBigBox>   <div class = titleboxLeft><div class = game-text id = game_round>Tour: 7</div></div>   <div class = titleboxLeft1><div class = game-text id = loss_amount>Pertes: -65</div></div>    <div class = titleboxMiddle1><div class = game-text id = gain_amount>Gains: 17</div></div>    <div class = titlebox><div class = game-text>Combien de cartes voulez-vous prendre? </div></div>     <div class = titleboxRight1><div class = game-text id = num_loss_cards><font size='+3'>Mauveaises Cartes: 2</font></div></div>   <div class = titleboxRight><div class = game-text id = current_round>Points du tour: 17</div></div><div class = cardbox><div class = square><input type='image' id = 1 class = 'card_image' src='/static/experiments/columbia_card_task_hot/images/beforeChosen.png'></div><div class = square><input type='image' id = 2 class = 'card_image' src='/static/experiments/columbia_card_task_hot/images/beforeChosen.png'></div><div class = square><input type='image' id = 3 class = 'card_image' src='/static/experiments/columbia_card_task_hot/images/beforeChosen.png'></div><div class = square><input type='image' id = 4 class = 'card_image' src='/static/experiments/columbia_card_task_hot/images/beforeChosen.png'></div><div class = square><input type='image' id = 5 class = 'card_image' src='/static/experiments/columbia_card_task_hot/images/beforeChosen.png'></div><div class = square><input type='image' id = 6 class = 'card_image' src='/static/experiments/columbia_card_task_hot/images/beforeChosen.png'></div><div class = square><input type='image' id = 7 class = 'card_image' src='/static/experiments/columbia_card_task_hot/images/chosen.png'></div><div class = square><input type='image' id = 8 class = 'card_image' src='/static/experiments/columbia_card_task_hot/images/beforeChosen.png'></div><div class = square><input type='image' id = 9 class = 'card_image' src='/static/experiments/columbia_card_task_hot/images/beforeChosen.png'></div></div>","89,71","397","test","7","2","9","2","17","-65","-48","true","",""
"-1","-1","poldrack-single-stim","31","96391","0.0-8.6-1.6","sub-11_ses-03_2","","2522","0","ITI","<div class = cct-box><div class = titleBigBox>   <div class = titleboxLeft><div class = game-text id = game_round>Tour: 7</div></div>   <div class = titleboxLeft1><div class = game-text id = loss_amount>Pertes: -65</div></div>    <div class = titleboxMiddle1><div class = game-text id = gain_amount>Gains: 17</div></div>    <div class = titlebox><div class = game-text>Combien de cartes voulez-vous prendre? </div></div>     <div class = titleboxRight1><div class = game-text id = num_loss_cards><font size='+3'>Mauveaises Cartes: 2</font></div></div>   <div class = titleboxRight><div class = game-text id = current_round>Points du tour: -48</div></div><div class = cardbox><div class = square><input type='image' id = 1 class = 'card_image' src='/static/experiments/columbia_card_task_hot/images/beforeChosen.png'></div><div class = square><input type='image' id = 2 class = 'card_image' src='/static/experiments/columbia_card_task_hot/images/beforeChosen.png'></div><div class = square><input type='image' id = 3 class = 'card_image' src='/static/experiments/columbia_card_task_hot/images/beforeChosen.png'></div><div class = square><input type='image' id = 4 class = 'card_image' src='/static/experiments/columbia_card_task_hot/images/beforeChosen.png'></div><div class = square><input type='image' id = 5 class = 'card_image' src='/static/experiments/columbia_card_task_hot/images/loss.png'></div><div class = square><input type='image' id = 6 class = 'card_image' src='/static/experiments/columbia_card_task_hot/images/beforeChosen.png'></div><div class = square><input type='image' id = 7 class = 'card_image' src='/static/experiments/columbia_card_task_hot/images/chosen.png'></div><div class = square><input type='image' id = 8 class = 'card_image' src='/static/experiments/columbia_card_task_hot/images/beforeChosen.png'></div><div class = square><input type='image' id = 9 class = 'card_image' src='/static/experiments/columbia_card_task_hot/images/beforeChosen.png'></div></div>","none","2250","","","","","","","","","","",""
"559","89","poldrack-single-stim","32","96994","0.0-8.7-0.17-0.17","sub-11_ses-03_2","","559","0","stim","<div class = cct-box><div class = titleBigBox>   <div class = titleboxLeft><div class = game-text id = game_round>Tour: 8</div></div>   <div class = titleboxLeft1><div class = game-text id = loss_amount>Pertes: -95</div></div>    <div class = titleboxMiddle1><div class = game-text id = gain_amount>Gains: 14</div></div>    <div class = titlebox><div class = game-text>Combien de cartes voulez-vous prendre? </div></div>     <div class = titleboxRight1><div class = game-text id = num_loss_cards><font size='+3'>Mauveaises Cartes: 1</font></div></div>   <div class = titleboxRight><div class = game-text id = current_round>Points du tour: 0</div></div><div class = cardbox><div class = square><input type='image' id = 1 class = 'card_image' src='/static/experiments/columbia_card_task_hot/images/beforeChosen.png'></div><div class = square><input type='image' id = 2 class = 'card_image' src='/static/experiments/columbia_card_task_hot/images/beforeChosen.png'></div><div class = square><input type='image' id = 3 class = 'card_image' src='/static/experiments/columbia_card_task_hot/images/beforeChosen.png'></div><div class = square><input type='image' id = 4 class = 'card_image' src='/static/experiments/columbia_card_task_hot/images/beforeChosen.png'></div><div class = square><input type='image' id = 5 class = 'card_image' src='/static/experiments/columbia_card_task_hot/images/beforeChosen.png'></div><div class = square><input type='image' id = 6 class = 'card_image' src='/static/experiments/columbia_card_task_hot/images/beforeChosen.png'></div><div class = square><input type='image' id = 7 class = 'card_image' src='/static/experiments/columbia_card_task_hot/images/beforeChosen.png'></div><div class = square><input type='image' id = 8 class = 'card_image' src='/static/experiments/columbia_card_task_hot/images/beforeChosen.png'></div><div class = square><input type='image' id = 9 class = 'card_image' src='/static/experiments/columbia_card_task_hot/images/beforeChosen.png'></div><div class = square><input type='image' id = 10 class = 'card_image' src='/static/experiments/columbia_card_task_hot/images/beforeChosen.png'></div></div>","89,71","559","test","8","1","10","1","14","-95","14","false","",""
"391","89","poldrack-single-stim","33","97392","0.0-8.7-0.18-0.18","sub-11_ses-03_2","","391","0","stim","<div class = cct-box><div class = titleBigBox>   <div class = titleboxLeft><div class = game-text id = game_round>Tour: 8</div></div>   <div class = titleboxLeft1><div class = game-text id = loss_amount>Pertes: -95</div></div>    <div class = titleboxMiddle1><div class = game-text id = gain_amount>Gains: 14</div></div>    <div class = titlebox><div class = game-text>Combien de cartes voulez-vous prendre? </div></div>     <div class = titleboxRight1><div class = game-text id = num_loss_cards><font size='+3'>Mauveaises Cartes: 1</font></div></div>   <div class = titleboxRight><div class = game-text id = current_round>Points du tour: 14</div></div><div class = cardbox><div class = square><input type='image' id = 1 class = 'card_image' src='/static/experiments/columbia_card_task_hot/images/beforeChosen.png'></div><div class = square><input type='image' id = 2 class = 'card_image' src='/static/experiments/columbia_card_task_hot/images/beforeChosen.png'></div><div class = square><input type='image' id = 3 class = 'card_image' src='/static/experiments/columbia_card_task_hot/images/beforeChosen.png'></div><div class = square><input type='image' id = 4 class = 'card_image' src='/static/experiments/columbia_card_task_hot/images/beforeChosen.png'></div><div class = square><input type='image' id = 5 class = 'card_image' src='/static/experiments/columbia_card_task_hot/images/beforeChosen.png'></div><div class = square><input type='image' id = 6 class = 'card_image' src='/static/experiments/columbia_card_task_hot/images/beforeChosen.png'></div><div class = square><input type='image' id = 7 class = 'card_image' src='/static/experiments/columbia_card_task_hot/images/chosen.png'></div><div class = square><input type='image' id = 8 class = 'card_image' src='/static/experiments/columbia_card_task_hot/images/beforeChosen.png'></div><div class = square><input type='image' id = 9 class = 'card_image' src='/static/experiments/columbia_card_task_hot/images/beforeChosen.png'></div><div class = square><input type='image' id = 10 class = 'card_image' src='/static/experiments/columbia_card_task_hot/images/beforeChosen.png'></div></div>","89,71","391","test","8","2","10","1","14","-95","28","false","",""
"940","89","poldrack-single-stim","34","98338","0.0-8.7-0.19-0.19","sub-11_ses-03_2","","940","0","stim","<div class = cct-box><div class = titleBigBox>   <div class = titleboxLeft><div class = game-text id = game_round>Tour: 8</div></div>   <div class = titleboxLeft1><div class = game-text id = loss_amount>Pertes: -95</div></div>    <div class = titleboxMiddle1><div class = game-text id = gain_amount>Gains: 14</div></div>    <div class = titlebox><div class = game-text>Combien de cartes voulez-vous prendre? </div></div>     <div class = titleboxRight1><div class = game-text id = num_loss_cards><font size='+3'>Mauveaises Cartes: 1</font></div></div>   <div class = titleboxRight><div class = game-text id = current_round>Points du tour: 28</div></div><div class = cardbox><div class = square><input type='image' id = 1 class = 'card_image' src='/static/experiments/columbia_card_task_hot/images/beforeChosen.png'></div><div class = square><input type='image' id = 2 class = 'card_image' src='/static/experiments/columbia_card_task_hot/images/beforeChosen.png'></div><div class = square><input type='image' id = 3 class = 'card_image' src='/static/experiments/columbia_card_task_hot/images/beforeChosen.png'></div><div class = square><input type='image' id = 4 class = 'card_image' src='/static/experiments/columbia_card_task_hot/images/beforeChosen.png'></div><div class = square><input type='image' id = 5 class = 'card_image' src='/static/experiments/columbia_card_task_hot/images/beforeChosen.png'></div><div class = square><input type='image' id = 6 class = 'card_image' src='/static/experiments/columbia_card_task_hot/images/beforeChosen.png'></div><div class = square><input type='image' id = 7 class = 'card_image' src='/static/experiments/columbia_card_task_hot/images/chosen.png'></div><div class = square><input type='image' id = 8 class = 'card_image' src='/static/experiments/columbia_card_task_hot/images/chosen.png'></div><div class = square><input type='image' id = 9 class = 'card_image' src='/static/experiments/columbia_card_task_hot/images/beforeChosen.png'></div><div class = square><input type='image' id = 10 class = 'card_image' src='/static/experiments/columbia_card_task_hot/images/beforeChosen.png'></div></div>","89,71","940","test","8","3","10","1","14","-95","42","false","",""
"580","89","poldrack-single-stim","35","98923","0.0-8.7-0.20-0.20","sub-11_ses-03_2","","580","0","stim","<div class = cct-box><div class = titleBigBox>   <div class = titleboxLeft><div class = game-text id = game_round>Tour: 8</div></div>   <div class = titleboxLeft1><div class = game-text id = loss_amount>Pertes: -95</div></div>    <div class = titleboxMiddle1><div class = game-text id = gain_amount>Gains: 14</div></div>    <div class = titlebox><div class = game-text>Combien de cartes voulez-vous prendre? </div></div>     <div class = titleboxRight1><div class = game-text id = num_loss_cards><font size='+3'>Mauveaises Cartes: 1</font></div></div>   <div class = titleboxRight><div class = game-text id = current_round>Points du tour: 42</div></div><div class = cardbox><div class = square><input type='image' id = 1 class = 'card_image' src='/static/experiments/columbia_card_task_hot/images/beforeChosen.png'></div><div class = square><input type='image' id = 2 class = 'card_image' src='/static/experiments/columbia_card_task_hot/images/beforeChosen.png'></div><div class = square><input type='image' id = 3 class = 'card_image' src='/static/experiments/columbia_card_task_hot/images/beforeChosen.png'></div><div class = square><input type='image' id = 4 class = 'card_image' src='/static/experiments/columbia_card_task_hot/images/beforeChosen.png'></div><div class = square><input type='image' id = 5 class = 'card_image' src='/static/experiments/columbia_card_task_hot/images/beforeChosen.png'></div><div class = square><input type='image' id = 6 class = 'card_image' src='/static/experiments/columbia_card_task_hot/images/beforeChosen.png'></div><div class = square><input type='image' id = 7 class = 'card_image' src='/static/experiments/columbia_card_task_hot/images/chosen.png'></div><div class = square><input type='image' id = 8 class = 'card_image' src='/static/experiments/columbia_card_task_hot/images/chosen.png'></div><div class = square><input type='image' id = 9 class = 'card_image' src='/static/experiments/columbia_card_task_hot/images/chosen.png'></div><div class = square><input type='image' id = 10 class = 'card_image' src='/static/experiments/columbia_card_task_hot/images/beforeChosen.png'></div></div>","89,71","580","test","8","4","10","1","14","-95","56","false","",""
"693","71","poldrack-single-stim","36","99622","0.0-8.7-0.21-0.21","sub-11_ses-03_2","","693","0","stim","<div class = cct-box><div class = titleBigBox>   <div class = titleboxLeft><div class = game-text id = game_round>Tour: 8</div></div>   <div class = titleboxLeft1><div class = game-text id = loss_amount>Pertes: -95</div></div>    <div class = titleboxMiddle1><div class = game-text id = gain_amount>Gains: 14</div></div>    <div class = titlebox><div class = game-text>Combien de cartes voulez-vous prendre? </div></div>     <div class = titleboxRight1><div class = game-text id = num_loss_cards><font size='+3'>Mauveaises Cartes: 1</font></div></div>   <div class = titleboxRight><div class = game-text id = current_round>Points du tour: 56</div></div><div class = cardbox><div class = square><input type='image' id = 1 class = 'card_image' src='/static/experiments/columbia_card_task_hot/images/beforeChosen.png'></div><div class = square><input type='image' id = 2 class = 'card_image' src='/static/experiments/columbia_card_task_hot/images/chosen.png'></div><div class = square><input type='image' id = 3 class = 'card_image' src='/static/experiments/columbia_card_task_hot/images/beforeChosen.png'></div><div class = square><input type='image' id = 4 class = 'card_image' src='/static/experiments/columbia_card_task_hot/images/beforeChosen.png'></div><div class = square><input type='image' id = 5 class = 'card_image' src='/static/experiments/columbia_card_task_hot/images/beforeChosen.png'></div><div class = square><input type='image' id = 6 class = 'card_image' src='/static/experiments/columbia_card_task_hot/images/beforeChosen.png'></div><div class = square><input type='image' id = 7 class = 'card_image' src='/static/experiments/columbia_card_task_hot/images/chosen.png'></div><div class = square><input type='image' id = 8 class = 'card_image' src='/static/experiments/columbia_card_task_hot/images/chosen.png'></div><div class = square><input type='image' id = 9 class = 'card_image' src='/static/experiments/columbia_card_task_hot/images/chosen.png'></div><div class = square><input type='image' id = 10 class = 'card_image' src='/static/experiments/columbia_card_task_hot/images/beforeChosen.png'></div></div>","89,71","693","test","8","4","10","1","14","-95","56","false","",""
"-1","-1","poldrack-single-stim","37","102233","0.0-8.7-1.7","sub-11_ses-03_2","","2590","0","ITI","<div class = cct-box><div class = titleBigBox>   <div class = titleboxLeft><div class = game-text id = game_round>Tour: 8</div></div>   <div class = titleboxLeft1><div class = game-text id = loss_amount>Pertes: -95</div></div>    <div class = titleboxMiddle1><div class = game-text id = gain_amount>Gains: 14</div></div>    <div class = titlebox><div class = game-text>Combien de cartes voulez-vous prendre? </div></div>     <div class = titleboxRight1><div class = game-text id = num_loss_cards><font size='+3'>Mauveaises Cartes: 1</font></div></div>   <div class = titleboxRight><div class = game-text id = current_round>Points du tour: 56</div></div><div class = cardbox><div class = square><input type='image' id = 1 class = 'card_image' src='/static/experiments/columbia_card_task_hot/images/beforeChosen.png'></div><div class = square><input type='image' id = 2 class = 'card_image' src='/static/experiments/columbia_card_task_hot/images/chosen.png'></div><div class = square><input type='image' id = 3 class = 'card_image' src='/static/experiments/columbia_card_task_hot/images/beforeChosen.png'></div><div class = square><input type='image' id = 4 class = 'card_image' src='/static/experiments/columbia_card_task_hot/images/beforeChosen.png'></div><div class = square><input type='image' id = 5 class = 'card_image' src='/static/experiments/columbia_card_task_hot/images/beforeChosen.png'></div><div class = square><input type='image' id = 6 class = 'card_image' src='/static/experiments/columbia_card_task_hot/images/beforeChosen.png'></div><div class = square><input type='image' id = 7 class = 'card_image' src='/static/experiments/columbia_card_task_hot/images/chosen.png'></div><div class = square><input type='image' id = 8 class = 'card_image' src='/static/experiments/columbia_card_task_hot/images/chosen.png'></div><div class = square><input type='image' id = 9 class = 'card_image' src='/static/experiments/columbia_card_task_hot/images/chosen.png'></div><div class = square><input type='image' id = 10 class = 'card_image' src='/static/experiments/columbia_card_task_hot/images/beforeChosen.png'></div></div>","none","2250","","","","","","","","","","",""
"844","89","poldrack-single-stim","38","103083","0.0-8.8-0.22-0.22","sub-11_ses-03_2","","844","0","stim","<div class = cct-box><div class = titleBigBox>   <div class = titleboxLeft><div class = game-text id = game_round>Tour: 9</div></div>   <div class = titleboxLeft1><div class = game-text id = loss_amount>Pertes: -65</div></div>    <div class = titleboxMiddle1><div class = game-text id = gain_amount>Gains: 15</div></div>    <div class = titlebox><div class = game-text>Combien de cartes voulez-vous prendre? </div></div>     <div class = titleboxRight1><div class = game-text id = num_loss_cards><font size='+3'>Mauveaises Cartes: 2</font></div></div>   <div class = titleboxRight><div class = game-text id = current_round>Points du tour: 0</div></div><div class = cardbox><div class = square><input type='image' id = 1 class = 'card_image' src='/static/experiments/columbia_card_task_hot/images/beforeChosen.png'></div><div class = square><input type='image' id = 2 class = 'card_image' src='/static/experiments/columbia_card_task_hot/images/beforeChosen.png'></div><div class = square><input type='image' id = 3 class = 'card_image' src='/static/experiments/columbia_card_task_hot/images/beforeChosen.png'></div><div class = square><input type='image' id = 4 class = 'card_image' src='/static/experiments/columbia_card_task_hot/images/beforeChosen.png'></div><div class = square><input type='image' id = 5 class = 'card_image' src='/static/experiments/columbia_card_task_hot/images/beforeChosen.png'></div><div class = square><input type='image' id = 6 class = 'card_image' src='/static/experiments/columbia_card_task_hot/images/beforeChosen.png'></div><div class = square><input type='image' id = 7 class = 'card_image' src='/static/experiments/columbia_card_task_hot/images/beforeChosen.png'></div><div class = square><input type='image' id = 8 class = 'card_image' src='/static/experiments/columbia_card_task_hot/images/beforeChosen.png'></div><div class = square><input type='image' id = 9 class = 'card_image' src='/static/experiments/columbia_card_task_hot/images/beforeChosen.png'></div><div class = square><input type='image' id = 10 class = 'card_image' src='/static/experiments/columbia_card_task_hot/images/beforeChosen.png'></div></div>","89,71","844","test","9","1","10","2","15","-65","15","false","",""
"387","89","poldrack-single-stim","39","103476","0.0-8.8-0.23-0.23","sub-11_ses-03_2","","387","0","stim","<div class = cct-box><div class = titleBigBox>   <div class = titleboxLeft><div class = game-text id = game_round>Tour: 9</div></div>   <div class = titleboxLeft1><div class = game-text id = loss_amount>Pertes: -65</div></div>    <div class = titleboxMiddle1><div class = game-text id = gain_amount>Gains: 15</div></div>    <div class = titlebox><div class = game-text>Combien de cartes voulez-vous prendre? </div></div>     <div class = titleboxRight1><div class = game-text id = num_loss_cards><font size='+3'>Mauveaises Cartes: 2</font></div></div>   <div class = titleboxRight><div class = game-text id = current_round>Points du tour: 15</div></div><div class = cardbox><div class = square><input type='image' id = 1 class = 'card_image' src='/static/experiments/columbia_card_task_hot/images/beforeChosen.png'></div><div class = square><input type='image' id = 2 class = 'card_image' src='/static/experiments/columbia_card_task_hot/images/beforeChosen.png'></div><div class = square><input type='image' id = 3 class = 'card_image' src='/static/experiments/columbia_card_task_hot/images/beforeChosen.png'></div><div class = square><input type='image' id = 4 class = 'card_image' src='/static/experiments/columbia_card_task_hot/images/chosen.png'></div><div class = square><input type='image' id = 5 class = 'card_image' src='/static/experiments/columbia_card_task_hot/images/beforeChosen.png'></div><div class = square><input type='image' id = 6 class = 'card_image' src='/static/experiments/columbia_card_task_hot/images/beforeChosen.png'></div><div class = square><input type='image' id = 7 class = 'card_image' src='/static/experiments/columbia_card_task_hot/images/beforeChosen.png'></div><div class = square><input type='image' id = 8 class = 'card_image' src='/static/experiments/columbia_card_task_hot/images/beforeChosen.png'></div><div class = square><input type='image' id = 9 class = 'card_image' src='/static/experiments/columbia_card_task_hot/images/beforeChosen.png'></div><div class = square><input type='image' id = 10 class = 'card_image' src='/static/experiments/columbia_card_task_hot/images/beforeChosen.png'></div></div>","89,71","387","test","9","2","10","2","15","-65","-50","true","",""
"-1","-1","poldrack-single-stim","40","105881","0.0-8.8-1.8","sub-11_ses-03_2","","2386","0","ITI","<div class = cct-box><div class = titleBigBox>   <div class = titleboxLeft><div class = game-text id = game_round>Tour: 9</div></div>   <div class = titleboxLeft1><div class = game-text id = loss_amount>Pertes: -65</div></div>    <div class = titleboxMiddle1><div class = game-text id = gain_amount>Gains: 15</div></div>    <div class = titlebox><div class = game-text>Combien de cartes voulez-vous prendre? </div></div>     <div class = titleboxRight1><div class = game-text id = num_loss_cards><font size='+3'>Mauveaises Cartes: 2</font></div></div>   <div class = titleboxRight><div class = game-text id = current_round>Points du tour: -50</div></div><div class = cardbox><div class = square><input type='image' id = 1 class = 'card_image' src='/static/experiments/columbia_card_task_hot/images/beforeChosen.png'></div><div class = square><input type='image' id = 2 class = 'card_image' src='/static/experiments/columbia_card_task_hot/images/beforeChosen.png'></div><div class = square><input type='image' id = 3 class = 'card_image' src='/static/experiments/columbia_card_task_hot/images/beforeChosen.png'></div><div class = square><input type='image' id = 4 class = 'card_image' src='/static/experiments/columbia_card_task_hot/images/chosen.png'></div><div class = square><input type='image' id = 5 class = 'card_image' src='/static/experiments/columbia_card_task_hot/images/beforeChosen.png'></div><div class = square><input type='image' id = 6 class = 'card_image' src='/static/experiments/columbia_card_task_hot/images/beforeChosen.png'></div><div class = square><input type='image' id = 7 class = 'card_image' src='/static/experiments/columbia_card_task_hot/images/beforeChosen.png'></div><div class = square><input type='image' id = 8 class = 'card_image' src='/static/experiments/columbia_card_task_hot/images/beforeChosen.png'></div><div class = square><input type='image' id = 9 class = 'card_image' src='/static/experiments/columbia_card_task_hot/images/beforeChosen.png'></div><div class = square><input type='image' id = 10 class = 'card_image' src='/static/experiments/columbia_card_task_hot/images/loss.png'></div></div>","none","2250","","","","","","","","","","",""
"783","89","poldrack-single-stim","41","106668","0.0-8.9-0.24-0.24","sub-11_ses-03_2","","783","0","stim","<div class = cct-box><div class = titleBigBox>   <div class = titleboxLeft><div class = game-text id = game_round>Tour: 10</div></div>   <div class = titleboxLeft1><div class = game-text id = loss_amount>Pertes: -65</div></div>    <div class = titleboxMiddle1><div class = game-text id = gain_amount>Gains: 17</div></div>    <div class = titlebox><div class = game-text>Combien de cartes voulez-vous prendre? </div></div>     <div class = titleboxRight1><div class = game-text id = num_loss_cards><font size='+3'>Mauveaises Cartes: 2</font></div></div>   <div class = titleboxRight><div class = game-text id = current_round>Points du tour: 0</div></div><div class = cardbox><div class = square><input type='image' id = 1 class = 'card_image' src='/static/experiments/columbia_card_task_hot/images/beforeChosen.png'></div><div class = square><input type='image' id = 2 class = 'card_image' src='/static/experiments/columbia_card_task_hot/images/beforeChosen.png'></div><div class = square><input type='image' id = 3 class = 'card_image' src='/static/experiments/columbia_card_task_hot/images/beforeChosen.png'></div><div class = square><input type='image' id = 4 class = 'card_image' src='/static/experiments/columbia_card_task_hot/images/beforeChosen.png'></div><div class = square><input type='image' id = 5 class = 'card_image' src='/static/experiments/columbia_card_task_hot/images/beforeChosen.png'></div><div class = square><input type='image' id = 6 class = 'card_image' src='/static/experiments/columbia_card_task_hot/images/beforeChosen.png'></div><div class = square><input type='image' id = 7 class = 'card_image' src='/static/experiments/columbia_card_task_hot/images/beforeChosen.png'></div><div class = square><input type='image' id = 8 class = 'card_image' src='/static/experiments/columbia_card_task_hot/images/beforeChosen.png'></div><div class = square><input type='image' id = 9 class = 'card_image' src='/static/experiments/columbia_card_task_hot/images/beforeChosen.png'></div><div class = square><input type='image' id = 10 class = 'card_image' src='/static/experiments/columbia_card_task_hot/images/beforeChosen.png'></div></div>","89,71","783","test","10","1","10","2","17","-65","17","false","",""
"843","89","poldrack-single-stim","42","107517","0.0-8.9-0.25-0.25","sub-11_ses-03_2","","843","0","stim","<div class = cct-box><div class = titleBigBox>   <div class = titleboxLeft><div class = game-text id = game_round>Tour: 10</div></div>   <div class = titleboxLeft1><div class = game-text id = loss_amount>Pertes: -65</div></div>    <div class = titleboxMiddle1><div class = game-text id = gain_amount>Gains: 17</div></div>    <div class = titlebox><div class = game-text>Combien de cartes voulez-vous prendre? </div></div>     <div class = titleboxRight1><div class = game-text id = num_loss_cards><font size='+3'>Mauveaises Cartes: 2</font></div></div>   <div class = titleboxRight><div class = game-text id = current_round>Points du tour: 17</div></div><div class = cardbox><div class = square><input type='image' id = 1 class = 'card_image' src='/static/experiments/columbia_card_task_hot/images/beforeChosen.png'></div><div class = square><input type='image' id = 2 class = 'card_image' src='/static/experiments/columbia_card_task_hot/images/beforeChosen.png'></div><div class = square><input type='image' id = 3 class = 'card_image' src='/static/experiments/columbia_card_task_hot/images/beforeChosen.png'></div><div class = square><input type='image' id = 4 class = 'card_image' src='/static/experiments/columbia_card_task_hot/images/chosen.png'></div><div class = square><input type='image' id = 5 class = 'card_image' src='/static/experiments/columbia_card_task_hot/images/beforeChosen.png'></div><div class = square><input type='image' id = 6 class = 'card_image' src='/static/experiments/columbia_card_task_hot/images/beforeChosen.png'></div><div class = square><input type='image' id = 7 class = 'card_image' src='/static/experiments/columbia_card_task_hot/images/beforeChosen.png'></div><div class = square><input type='image' id = 8 class = 'card_image' src='/static/experiments/columbia_card_task_hot/images/beforeChosen.png'></div><div class = square><input type='image' id = 9 class = 'card_image' src='/static/experiments/columbia_card_task_hot/images/beforeChosen.png'></div><div class = square><input type='image' id = 10 class = 'card_image' src='/static/experiments/columbia_card_task_hot/images/beforeChosen.png'></div></div>","89,71","843","test","10","2","10","2","17","-65","34","false","",""
"421","71","poldrack-single-stim","43","107945","0.0-8.9-0.26-0.26","sub-11_ses-03_2","","421","0","stim","<div class = cct-box><div class = titleBigBox>   <div class = titleboxLeft><div class = game-text id = game_round>Tour: 10</div></div>   <div class = titleboxLeft1><div class = game-text id = loss_amount>Pertes: -65</div></div>    <div class = titleboxMiddle1><div class = game-text id = gain_amount>Gains: 17</div></div>    <div class = titlebox><div class = game-text>Combien de cartes voulez-vous prendre? </div></div>     <div class = titleboxRight1><div class = game-text id = num_loss_cards><font size='+3'>Mauveaises Cartes: 2</font></div></div>   <div class = titleboxRight><div class = game-text id = current_round>Points du tour: 34</div></div><div class = cardbox><div class = square><input type='image' id = 1 class = 'card_image' src='/static/experiments/columbia_card_task_hot/images/beforeChosen.png'></div><div class = square><input type='image' id = 2 class = 'card_image' src='/static/experiments/columbia_card_task_hot/images/beforeChosen.png'></div><div class = square><input type='image' id = 3 class = 'card_image' src='/static/experiments/columbia_card_task_hot/images/chosen.png'></div><div class = square><input type='image' id = 4 class = 'card_image' src='/static/experiments/columbia_card_task_hot/images/chosen.png'></div><div class = square><input type='image' id = 5 class = 'card_image' src='/static/experiments/columbia_card_task_hot/images/beforeChosen.png'></div><div class = square><input type='image' id = 6 class = 'card_image' src='/static/experiments/columbia_card_task_hot/images/beforeChosen.png'></div><div class = square><input type='image' id = 7 class = 'card_image' src='/static/experiments/columbia_card_task_hot/images/beforeChosen.png'></div><div class = square><input type='image' id = 8 class = 'card_image' src='/static/experiments/columbia_card_task_hot/images/beforeChosen.png'></div><div class = square><input type='image' id = 9 class = 'card_image' src='/static/experiments/columbia_card_task_hot/images/beforeChosen.png'></div><div class = square><input type='image' id = 10 class = 'card_image' src='/static/experiments/columbia_card_task_hot/images/beforeChosen.png'></div></div>","89,71","421","test","10","2","10","2","17","-65","34","false","",""
"-1","-1","poldrack-single-stim","44","110562","0.0-8.9-1.9","sub-11_ses-03_2","","2590","0","ITI","<div class = cct-box><div class = titleBigBox>   <div class = titleboxLeft><div class = game-text id = game_round>Tour: 10</div></div>   <div class = titleboxLeft1><div class = game-text id = loss_amount>Pertes: -65</div></div>    <div class = titleboxMiddle1><div class = game-text id = gain_amount>Gains: 17</div></div>    <div class = titlebox><div class = game-text>Combien de cartes voulez-vous prendre? </div></div>     <div class = titleboxRight1><div class = game-text id = num_loss_cards><font size='+3'>Mauveaises Cartes: 2</font></div></div>   <div class = titleboxRight><div class = game-text id = current_round>Points du tour: 34</div></div><div class = cardbox><div class = square><input type='image' id = 1 class = 'card_image' src='/static/experiments/columbia_card_task_hot/images/beforeChosen.png'></div><div class = square><input type='image' id = 2 class = 'card_image' src='/static/experiments/columbia_card_task_hot/images/beforeChosen.png'></div><div class = square><input type='image' id = 3 class = 'card_image' src='/static/experiments/columbia_card_task_hot/images/chosen.png'></div><div class = square><input type='image' id = 4 class = 'card_image' src='/static/experiments/columbia_card_task_hot/images/chosen.png'></div><div class = square><input type='image' id = 5 class = 'card_image' src='/static/experiments/columbia_card_task_hot/images/beforeChosen.png'></div><div class = square><input type='image' id = 6 class = 'card_image' src='/static/experiments/columbia_card_task_hot/images/beforeChosen.png'></div><div class = square><input type='image' id = 7 class = 'card_image' src='/static/experiments/columbia_card_task_hot/images/beforeChosen.png'></div><div class = square><input type='image' id = 8 class = 'card_image' src='/static/experiments/columbia_card_task_hot/images/beforeChosen.png'></div><div class = square><input type='image' id = 9 class = 'card_image' src='/static/experiments/columbia_card_task_hot/images/beforeChosen.png'></div><div class = square><input type='image' id = 10 class = 'card_image' src='/static/experiments/columbia_card_task_hot/images/beforeChosen.png'></div></div>","none","2250","","","","","","","","","","",""
"761","89","poldrack-single-stim","45","111331","0.0-8.10-0.27-0.27","sub-11_ses-03_2","","761","0","stim","<div class = cct-box><div class = titleBigBox>   <div class = titleboxLeft><div class = game-text id = game_round>Tour: 11</div></div>   <div class = titleboxLeft1><div class = game-text id = loss_amount>Pertes: -70</div></div>    <div class = titleboxMiddle1><div class = game-text id = gain_amount>Gains: 13</div></div>    <div class = titlebox><div class = game-text>Combien de cartes voulez-vous prendre? </div></div>     <div class = titleboxRight1><div class = game-text id = num_loss_cards><font size='+3'>Mauveaises Cartes: 2</font></div></div>   <div class = titleboxRight><div class = game-text id = current_round>Points du tour: 0</div></div><div class = cardbox><div class = square><input type='image' id = 1 class = 'card_image' src='/static/experiments/columbia_card_task_hot/images/beforeChosen.png'></div><div class = square><input type='image' id = 2 class = 'card_image' src='/static/experiments/columbia_card_task_hot/images/beforeChosen.png'></div><div class = square><input type='image' id = 3 class = 'card_image' src='/static/experiments/columbia_card_task_hot/images/beforeChosen.png'></div><div class = square><input type='image' id = 4 class = 'card_image' src='/static/experiments/columbia_card_task_hot/images/beforeChosen.png'></div><div class = square><input type='image' id = 5 class = 'card_image' src='/static/experiments/columbia_card_task_hot/images/beforeChosen.png'></div><div class = square><input type='image' id = 6 class = 'card_image' src='/static/experiments/columbia_card_task_hot/images/beforeChosen.png'></div><div class = square><input type='image' id = 7 class = 'card_image' src='/static/experiments/columbia_card_task_hot/images/beforeChosen.png'></div><div class = square><input type='image' id = 8 class = 'card_image' src='/static/experiments/columbia_card_task_hot/images/beforeChosen.png'></div><div class = square><input type='image' id = 9 class = 'card_image' src='/static/experiments/columbia_card_task_hot/images/beforeChosen.png'></div><div class = square><input type='image' id = 10 class = 'card_image' src='/static/experiments/columbia_card_task_hot/images/beforeChosen.png'></div><div class = square><input type='image' id = 11 class = 'card_image' src='/static/experiments/columbia_card_task_hot/images/beforeChosen.png'></div><div class = square><input type='image' id = 12 class = 'card_image' src='/static/experiments/columbia_card_task_hot/images/beforeChosen.png'></div></div>","89,71","761","test","11","1","12","2","13","-70","-70","true","",""
"-1","-1","poldrack-single-stim","46","113672","0.0-8.10-1.10","sub-11_ses-03_2","","2318","0","ITI","<div class = cct-box><div class = titleBigBox>   <div class = titleboxLeft><div class = game-text id = game_round>Tour: 11</div></div>   <div class = titleboxLeft1><div class = game-text id = loss_amount>Pertes: -70</div></div>    <div class = titleboxMiddle1><div class = game-text id = gain_amount>Gains: 13</div></div>    <div class = titlebox><div class = game-text>Combien de cartes voulez-vous prendre? </div></div>     <div class = titleboxRight1><div class = game-text id = num_loss_cards><font size='+3'>Mauveaises Cartes: 2</font></div></div>   <div class = titleboxRight><div class = game-text id = current_round>Points du tour: -70</div></div><div class = cardbox><div class = square><input type='image' id = 1 class = 'card_image' src='/static/experiments/columbia_card_task_hot/images/beforeChosen.png'></div><div class = square><input type='image' id = 2 class = 'card_image' src='/static/experiments/columbia_card_task_hot/images/beforeChosen.png'></div><div class = square><input type='image' id = 3 class = 'card_image' src='/static/experiments/columbia_card_task_hot/images/beforeChosen.png'></div><div class = square><input type='image' id = 4 class = 'card_image' src='/static/experiments/columbia_card_task_hot/images/beforeChosen.png'></div><div class = square><input type='image' id = 5 class = 'card_image' src='/static/experiments/columbia_card_task_hot/images/beforeChosen.png'></div><div class = square><input type='image' id = 6 class = 'card_image' src='/static/experiments/columbia_card_task_hot/images/beforeChosen.png'></div><div class = square><input type='image' id = 7 class = 'card_image' src='/static/experiments/columbia_card_task_hot/images/loss.png'></div><div class = square><input type='image' id = 8 class = 'card_image' src='/static/experiments/columbia_card_task_hot/images/beforeChosen.png'></div><div class = square><input type='image' id = 9 class = 'card_image' src='/static/experiments/columbia_card_task_hot/images/beforeChosen.png'></div><div class = square><input type='image' id = 10 class = 'card_image' src='/static/experiments/columbia_card_task_hot/images/beforeChosen.png'></div><div class = square><input type='image' id = 11 class = 'card_image' src='/static/experiments/columbia_card_task_hot/images/beforeChosen.png'></div><div class = square><input type='image' id = 12 class = 'card_image' src='/static/experiments/columbia_card_task_hot/images/beforeChosen.png'></div></div>","none","2250","","","","","","","","","","",""
"694","89","poldrack-single-stim","47","114375","0.0-8.11-0.28-0.28","sub-11_ses-03_2","","694","0","stim","<div class = cct-box><div class = titleBigBox>   <div class = titleboxLeft><div class = game-text id = game_round>Tour: 12</div></div>   <div class = titleboxLeft1><div class = game-text id = loss_amount>Pertes: -80</div></div>    <div class = titleboxMiddle1><div class = game-text id = gain_amount>Gains: 15</div></div>    <div class = titlebox><div class = game-text>Combien de cartes voulez-vous prendre? </div></div>     <div class = titleboxRight1><div class = game-text id = num_loss_cards><font size='+3'>Mauveaises Cartes: 2</font></div></div>   <div class = titleboxRight><div class = game-text id = current_round>Points du tour: 0</div></div><div class = cardbox><div class = square><input type='image' id = 1 class = 'card_image' src='/static/experiments/columbia_card_task_hot/images/beforeChosen.png'></div><div class = square><input type='image' id = 2 class = 'card_image' src='/static/experiments/columbia_card_task_hot/images/beforeChosen.png'></div><div class = square><input type='image' id = 3 class = 'card_image' src='/static/experiments/columbia_card_task_hot/images/beforeChosen.png'></div><div class = square><input type='image' id = 4 class = 'card_image' src='/static/experiments/columbia_card_task_hot/images/beforeChosen.png'></div><div class = square><input type='image' id = 5 class = 'card_image' src='/static/experiments/columbia_card_task_hot/images/beforeChosen.png'></div><div class = square><input type='image' id = 6 class = 'card_image' src='/static/experiments/columbia_card_task_hot/images/beforeChosen.png'></div><div class = square><input type='image' id = 7 class = 'card_image' src='/static/experiments/columbia_card_task_hot/images/beforeChosen.png'></div><div class = square><input type='image' id = 8 class = 'card_image' src='/static/experiments/columbia_card_task_hot/images/beforeChosen.png'></div><div class = square><input type='image' id = 9 class = 'card_image' src='/static/experiments/columbia_card_task_hot/images/beforeChosen.png'></div><div class = square><input type='image' id = 10 class = 'card_image' src='/static/experiments/columbia_card_task_hot/images/beforeChosen.png'></div><div class = square><input type='image' id = 11 class = 'card_image' src='/static/experiments/columbia_card_task_hot/images/beforeChosen.png'></div><div class = square><input type='image' id = 12 class = 'card_image' src='/static/experiments/columbia_card_task_hot/images/beforeChosen.png'></div></div>","89,71","694","test","12","1","12","2","15","-80","15","false","",""
"357","89","poldrack-single-stim","48","114737","0.0-8.11-0.29-0.29","sub-11_ses-03_2","","357","0","stim","<div class = cct-box><div class = titleBigBox>   <div class = titleboxLeft><div class = game-text id = game_round>Tour: 12</div></div>   <div class = titleboxLeft1><div class = game-text id = loss_amount>Pertes: -80</div></div>    <div class = titleboxMiddle1><div class = game-text id = gain_amount>Gains: 15</div></div>    <div class = titlebox><div class = game-text>Combien de cartes voulez-vous prendre? </div></div>     <div class = titleboxRight1><div class = game-text id = num_loss_cards><font size='+3'>Mauveaises Cartes: 2</font></div></div>   <div class = titleboxRight><div class = game-text id = current_round>Points du tour: 15</div></div><div class = cardbox><div class = square><input type='image' id = 1 class = 'card_image' src='/static/experiments/columbia_card_task_hot/images/beforeChosen.png'></div><div class = square><input type='image' id = 2 class = 'card_image' src='/static/experiments/columbia_card_task_hot/images/beforeChosen.png'></div><div class = square><input type='image' id = 3 class = 'card_image' src='/static/experiments/columbia_card_task_hot/images/beforeChosen.png'></div><div class = square><input type='image' id = 4 class = 'card_image' src='/static/experiments/columbia_card_task_hot/images/chosen.png'></div><div class = square><input type='image' id = 5 class = 'card_image' src='/static/experiments/columbia_card_task_hot/images/beforeChosen.png'></div><div class = square><input type='image' id = 6 class = 'card_image' src='/static/experiments/columbia_card_task_hot/images/beforeChosen.png'></div><div class = square><input type='image' id = 7 class = 'card_image' src='/static/experiments/columbia_card_task_hot/images/beforeChosen.png'></div><div class = square><input type='image' id = 8 class = 'card_image' src='/static/experiments/columbia_card_task_hot/images/beforeChosen.png'></div><div class = square><input type='image' id = 9 class = 'card_image' src='/static/experiments/columbia_card_task_hot/images/beforeChosen.png'></div><div class = square><input type='image' id = 10 class = 'card_image' src='/static/experiments/columbia_card_task_hot/images/beforeChosen.png'></div><div class = square><input type='image' id = 11 class = 'card_image' src='/static/experiments/columbia_card_task_hot/images/beforeChosen.png'></div><div class = square><input type='image' id = 12 class = 'card_image' src='/static/experiments/columbia_card_task_hot/images/beforeChosen.png'></div></div>","89,71","357","test","12","2","12","2","15","-80","30","false","",""
"588","71","poldrack-single-stim","49","115333","0.0-8.11-0.30-0.30","sub-11_ses-03_2","","588","0","stim","<div class = cct-box><div class = titleBigBox>   <div class = titleboxLeft><div class = game-text id = game_round>Tour: 12</div></div>   <div class = titleboxLeft1><div class = game-text id = loss_amount>Pertes: -80</div></div>    <div class = titleboxMiddle1><div class = game-text id = gain_amount>Gains: 15</div></div>    <div class = titlebox><div class = game-text>Combien de cartes voulez-vous prendre? </div></div>     <div class = titleboxRight1><div class = game-text id = num_loss_cards><font size='+3'>Mauveaises Cartes: 2</font></div></div>   <div class = titleboxRight><div class = game-text id = current_round>Points du tour: 30</div></div><div class = cardbox><div class = square><input type='image' id = 1 class = 'card_image' src='/static/experiments/columbia_card_task_hot/images/beforeChosen.png'></div><div class = square><input type='image' id = 2 class = 'card_image' src='/static/experiments/columbia_card_task_hot/images/beforeChosen.png'></div><div class = square><input type='image' id = 3 class = 'card_image' src='/static/experiments/columbia_card_task_hot/images/beforeChosen.png'></div><div class = square><input type='image' id = 4 class = 'card_image' src='/static/experiments/columbia_card_task_hot/images/chosen.png'></div><div class = square><input type='image' id = 5 class = 'card_image' src='/static/experiments/columbia_card_task_hot/images/beforeChosen.png'></div><div class = square><input type='image' id = 6 class = 'card_image' src='/static/experiments/columbia_card_task_hot/images/beforeChosen.png'></div><div class = square><input type='image' id = 7 class = 'card_image' src='/static/experiments/columbia_card_task_hot/images/chosen.png'></div><div class = square><input type='image' id = 8 class = 'card_image' src='/static/experiments/columbia_card_task_hot/images/beforeChosen.png'></div><div class = square><input type='image' id = 9 class = 'card_image' src='/static/experiments/columbia_card_task_hot/images/beforeChosen.png'></div><div class = square><input type='image' id = 10 class = 'card_image' src='/static/experiments/columbia_card_task_hot/images/beforeChosen.png'></div><div class = square><input type='image' id = 11 class = 'card_image' src='/static/experiments/columbia_card_task_hot/images/beforeChosen.png'></div><div class = square><input type='image' id = 12 class = 'card_image' src='/static/experiments/columbia_card_task_hot/images/beforeChosen.png'></div></div>","89,71","588","test","12","2","12","2","15","-80","30","false","",""
"-1","-1","poldrack-single-stim","50","117594","0.0-8.11-1.11","sub-11_ses-03_2","","2250","0","ITI","<div class = cct-box><div class = titleBigBox>   <div class = titleboxLeft><div class = game-text id = game_round>Tour: 12</div></div>   <div class = titleboxLeft1><div class = game-text id = loss_amount>Pertes: -80</div></div>    <div class = titleboxMiddle1><div class = game-text id = gain_amount>Gains: 15</div></div>    <div class = titlebox><div class = game-text>Combien de cartes voulez-vous prendre? </div></div>     <div class = titleboxRight1><div class = game-text id = num_loss_cards><font size='+3'>Mauveaises Cartes: 2</font></div></div>   <div class = titleboxRight><div class = game-text id = current_round>Points du tour: 30</div></div><div class = cardbox><div class = square><input type='image' id = 1 class = 'card_image' src='/static/experiments/columbia_card_task_hot/images/beforeChosen.png'></div><div class = square><input type='image' id = 2 class = 'card_image' src='/static/experiments/columbia_card_task_hot/images/beforeChosen.png'></div><div class = square><input type='image' id = 3 class = 'card_image' src='/static/experiments/columbia_card_task_hot/images/beforeChosen.png'></div><div class = square><input type='image' id = 4 class = 'card_image' src='/static/experiments/columbia_card_task_hot/images/chosen.png'></div><div class = square><input type='image' id = 5 class = 'card_image' src='/static/experiments/columbia_card_task_hot/images/beforeChosen.png'></div><div class = square><input type='image' id = 6 class = 'card_image' src='/static/experiments/columbia_card_task_hot/images/beforeChosen.png'></div><div class = square><input type='image' id = 7 class = 'card_image' src='/static/experiments/columbia_card_task_hot/images/chosen.png'></div><div class = square><input type='image' id = 8 class = 'card_image' src='/static/experiments/columbia_card_task_hot/images/beforeChosen.png'></div><div class = square><input type='image' id = 9 class = 'card_image' src='/static/experiments/columbia_card_task_hot/images/beforeChosen.png'></div><div class = square><input type='image' id = 10 class = 'card_image' src='/static/experiments/columbia_card_task_hot/images/beforeChosen.png'></div><div class = square><input type='image' id = 11 class = 'card_image' src='/static/experiments/columbia_card_task_hot/images/beforeChosen.png'></div><div class = square><input type='image' id = 12 class = 'card_image' src='/static/experiments/columbia_card_task_hot/images/beforeChosen.png'></div></div>","none","2250","","","","","","","","","","",""
"1308","89","poldrack-single-stim","51","118911","0.0-8.12-0.31-0.31","sub-11_ses-03_2","","1308","0","stim","<div class = cct-box><div class = titleBigBox>   <div class = titleboxLeft><div class = game-text id = game_round>Tour: 13</div></div>   <div class = titleboxLeft1><div class = game-text id = loss_amount>Pertes: -65</div></div>    <div class = titleboxMiddle1><div class = game-text id = gain_amount>Gains: 14</div></div>    <div class = titlebox><div class = game-text>Combien de cartes voulez-vous prendre? </div></div>     <div class = titleboxRight1><div class = game-text id = num_loss_cards><font size='+3'>Mauveaises Cartes: 3</font></div></div>   <div class = titleboxRight><div class = game-text id = current_round>Points du tour: 0</div></div><div class = cardbox><div class = square><input type='image' id = 1 class = 'card_image' src='/static/experiments/columbia_card_task_hot/images/beforeChosen.png'></div><div class = square><input type='image' id = 2 class = 'card_image' src='/static/experiments/columbia_card_task_hot/images/beforeChosen.png'></div><div class = square><input type='image' id = 3 class = 'card_image' src='/static/experiments/columbia_card_task_hot/images/beforeChosen.png'></div><div class = square><input type='image' id = 4 class = 'card_image' src='/static/experiments/columbia_card_task_hot/images/beforeChosen.png'></div><div class = square><input type='image' id = 5 class = 'card_image' src='/static/experiments/columbia_card_task_hot/images/beforeChosen.png'></div><div class = square><input type='image' id = 6 class = 'card_image' src='/static/experiments/columbia_card_task_hot/images/beforeChosen.png'></div><div class = square><input type='image' id = 7 class = 'card_image' src='/static/experiments/columbia_card_task_hot/images/beforeChosen.png'></div><div class = square><input type='image' id = 8 class = 'card_image' src='/static/experiments/columbia_card_task_hot/images/beforeChosen.png'></div><div class = square><input type='image' id = 9 class = 'card_image' src='/static/experiments/columbia_card_task_hot/images/beforeChosen.png'></div><div class = square><input type='image' id = 10 class = 'card_image' src='/static/experiments/columbia_card_task_hot/images/beforeChosen.png'></div><div class = square><input type='image' id = 11 class = 'card_image' src='/static/experiments/columbia_card_task_hot/images/beforeChosen.png'></div><div class = square><input type='image' id = 12 class = 'card_image' src='/static/experiments/columbia_card_task_hot/images/beforeChosen.png'></div><div class = square><input type='image' id = 13 class = 'card_image' src='/static/experiments/columbia_card_task_hot/images/beforeChosen.png'></div><div class = square><input type='image' id = 14 class = 'card_image' src='/static/experiments/columbia_card_task_hot/images/beforeChosen.png'></div><div class = square><input type='image' id = 15 class = 'card_image' src='/static/experiments/columbia_card_task_hot/images/beforeChosen.png'></div></div>","89,71","1308","test","13","1","15","3","14","-65","14","false","",""
"365","89","poldrack-single-stim","52","119285","0.0-8.12-0.32-0.32","sub-11_ses-03_2","","365","0","stim","<div class = cct-box><div class = titleBigBox>   <div class = titleboxLeft><div class = game-text id = game_round>Tour: 13</div></div>   <div class = titleboxLeft1><div class = game-text id = loss_amount>Pertes: -65</div></div>    <div class = titleboxMiddle1><div class = game-text id = gain_amount>Gains: 14</div></div>    <div class = titlebox><div class = game-text>Combien de cartes voulez-vous prendre? </div></div>     <div class = titleboxRight1><div class = game-text id = num_loss_cards><font size='+3'>Mauveaises Cartes: 3</font></div></div>   <div class = titleboxRight><div class = game-text id = current_round>Points du tour: 14</div></div><div class = cardbox><div class = square><input type='image' id = 1 class = 'card_image' src='/static/experiments/columbia_card_task_hot/images/beforeChosen.png'></div><div class = square><input type='image' id = 2 class = 'card_image' src='/static/experiments/columbia_card_task_hot/images/beforeChosen.png'></div><div class = square><input type='image' id = 3 class = 'card_image' src='/static/experiments/columbia_card_task_hot/images/chosen.png'></div><div class = square><input type='image' id = 4 class = 'card_image' src='/static/experiments/columbia_card_task_hot/images/beforeChosen.png'></div><div class = square><input type='image' id = 5 class = 'card_image' src='/static/experiments/columbia_card_task_hot/images/beforeChosen.png'></div><div class = square><input type='image' id = 6 class = 'card_image' src='/static/experiments/columbia_card_task_hot/images/beforeChosen.png'></div><div class = square><input type='image' id = 7 class = 'card_image' src='/static/experiments/columbia_card_task_hot/images/beforeChosen.png'></div><div class = square><input type='image' id = 8 class = 'card_image' src='/static/experiments/columbia_card_task_hot/images/beforeChosen.png'></div><div class = square><input type='image' id = 9 class = 'card_image' src='/static/experiments/columbia_card_task_hot/images/beforeChosen.png'></div><div class = square><input type='image' id = 10 class = 'card_image' src='/static/experiments/columbia_card_task_hot/images/beforeChosen.png'></div><div class = square><input type='image' id = 11 class = 'card_image' src='/static/experiments/columbia_card_task_hot/images/beforeChosen.png'></div><div class = square><input type='image' id = 12 class = 'card_image' src='/static/experiments/columbia_card_task_hot/images/beforeChosen.png'></div><div class = square><input type='image' id = 13 class = 'card_image' src='/static/experiments/columbia_card_task_hot/images/beforeChosen.png'></div><div class = square><input type='image' id = 14 class = 'card_image' src='/static/experiments/columbia_card_task_hot/images/beforeChosen.png'></div><div class = square><input type='image' id = 15 class = 'card_image' src='/static/experiments/columbia_card_task_hot/images/beforeChosen.png'></div></div>","89,71","365","test","13","2","15","3","14","-65","28","false","",""
