"rt","key_press","trial_type","trial_index","time_elapsed","internal_node_id","subject","text","block_duration","timing_post_trial","trial_id","stimulus","possible_responses","stim_duration","exp_stage","correct","correct_response","feedback_duration","flanker_middle_direction","flanker_type","flanker_location","cue","trial_num","exp_id"
"4005","13","text","0","4011","0.0-0.0","sub-11_2","","","","","","","","","","","","","","","","",""
"798","89","poldrack-text","1","5827","0.0-1.0","sub-11_2","<div class = centerbox><div style = 'font-size: 50px' class = center-text>Veuillez appuyer avec votre index</p></div>","798","500","fmri_response_test","","","","","","","","","","","","",""
"326","71","poldrack-text","2","6664","0.0-2.0","sub-11_2","<div class = centerbox><div style = 'font-size: 50px' class = center-text>Veuillez appuyer avec votre majeur</p></div>","326","500","fmri_response_test","","","","","","","","","","","","",""
"4302","32","poldrack-single-stim","3","11485","0.0-3.0","sub-11_2","","4302","500","instructions","<div class = centerbox><div class = center-text>Indiquez dans quelle direction la fleche centrale pointe.<br>Apuyez sur l'index (gauche) ou le majeur (droite).</div>","32","4302","","","","","","","","","",""
"-1","-1","poldrack-single-stim","4","12112","0.0-4.0-0.0","sub-11_2","","100","0","doublecue","<div class = centerbox><div class = ANT_text>+</div></div><div class = ANT_down><div class = ANT_text>*</div></div><div class = ANT_up><div class = ANT_text>*</div><div></div>","none","100","practice","","","","","","","","",""
"-1","-1","poldrack-single-stim","5","12526","0.0-4.0-1.0","sub-11_2","","400","0","fixation","<div class = centerbox><div class = ANT_text>+</div></div>","none","400","practice","","","","","","","","",""
"-1","-1","poldrack-categorize","6","15257","0.0-4.0-2.0","sub-11_2","","1700","500","stim","<div class = centerbox><div class = ANT_text>+</div></div><div class = ANT_down><img class = ""ANT_img first"" src = /static/experiments/attention_network_task/images/left_arrow.png></img><img class = ANT_img src = /static/experiments/attention_network_task/images/left_arrow.png></img><img class = ANT_img src = /static/experiments/attention_network_task/images/right_arrow.png></img><img class = ANT_img src = /static/experiments/attention_network_task/images/left_arrow.png></img><img class = ANT_img src = /static/experiments/attention_network_task/images/left_arrow.png></img></div></div>","89,71","1700","practice","false","71","1000","right","incongruent","down","double","",""
"-1","-1","poldrack-single-stim","7","15872","0.0-4.0-3.0","sub-11_2","","100","0","doublecue","<div class = centerbox><div class = ANT_text>+</div></div><div class = ANT_down><div class = ANT_text>*</div></div><div class = ANT_up><div class = ANT_text>*</div><div></div>","none","100","practice","","","","","","","","",""
"-1","-1","poldrack-single-stim","8","16286","0.0-4.0-4.0","sub-11_2","","400","0","fixation","<div class = centerbox><div class = ANT_text>+</div></div>","none","400","practice","","","","","","","","",""
"636","71","poldrack-categorize","9","19001","0.0-4.0-5.0","sub-11_2","","1700","500","stim","<div class = centerbox><div class = ANT_text>+</div></div><div class = ANT_up><img class = ""ANT_img first"" src = /static/experiments/attention_network_task/images/right_arrow.png></img><img class = ANT_img src = /static/experiments/attention_network_task/images/right_arrow.png></img><img class = ANT_img src = /static/experiments/attention_network_task/images/right_arrow.png></img><img class = ANT_img src = /static/experiments/attention_network_task/images/right_arrow.png></img><img class = ANT_img src = /static/experiments/attention_network_task/images/right_arrow.png></img></div></div>","89,71","1700","practice","true","71","1000","right","congruent","up","double","",""
"-1","-1","poldrack-single-stim","10","19618","0.0-4.0-6.0","sub-11_2","","100","0","spatialcue","<div class = centerbox><div class = ANT_text>+</div></div><div class = centerbox><div class = ANT_down><div class = ANT_text>*</p></div></div>","none","100","practice","","","","","","","","",""
"-1","-1","poldrack-single-stim","11","20031","0.0-4.0-7.0","sub-11_2","","400","0","fixation","<div class = centerbox><div class = ANT_text>+</div></div>","none","400","practice","","","","","","","","",""
"704","89","poldrack-categorize","12","22753","0.0-4.0-8.0","sub-11_2","","1700","500","stim","<div class = centerbox><div class = ANT_text>+</div></div><div class = ANT_down><img class = ""ANT_img first"" src = /static/experiments/attention_network_task/images/right_arrow.png></img><img class = ANT_img src = /static/experiments/attention_network_task/images/right_arrow.png></img><img class = ANT_img src = /static/experiments/attention_network_task/images/left_arrow.png></img><img class = ANT_img src = /static/experiments/attention_network_task/images/right_arrow.png></img><img class = ANT_img src = /static/experiments/attention_network_task/images/right_arrow.png></img></div></div>","89,71","1700","practice","true","89","1000","left","incongruent","down","spatial","",""
"-1","-1","poldrack-single-stim","13","23375","0.0-4.0-9.0","sub-11_2","","100","0","doublecue","<div class = centerbox><div class = ANT_text>+</div></div><div class = ANT_down><div class = ANT_text>*</div></div><div class = ANT_up><div class = ANT_text>*</div><div></div>","none","100","practice","","","","","","","","",""
"-1","-1","poldrack-single-stim","14","23789","0.0-4.0-10.0","sub-11_2","","400","0","fixation","<div class = centerbox><div class = ANT_text>+</div></div>","none","400","practice","","","","","","","","",""
"576","89","poldrack-categorize","15","26517","0.0-4.0-11.0","sub-11_2","","1700","500","stim","<div class = centerbox><div class = ANT_text>+</div></div><div class = ANT_up><img class = ""ANT_img first"" src = /static/experiments/attention_network_task/images/left_arrow.png></img><img class = ANT_img src = /static/experiments/attention_network_task/images/left_arrow.png></img><img class = ANT_img src = /static/experiments/attention_network_task/images/left_arrow.png></img><img class = ANT_img src = /static/experiments/attention_network_task/images/left_arrow.png></img><img class = ANT_img src = /static/experiments/attention_network_task/images/left_arrow.png></img></div></div>","89,71","1700","practice","true","89","1000","left","congruent","up","double","",""
"-1","-1","poldrack-single-stim","16","27135","0.0-4.0-12.0","sub-11_2","","100","0","doublecue","<div class = centerbox><div class = ANT_text>+</div></div><div class = ANT_down><div class = ANT_text>*</div></div><div class = ANT_up><div class = ANT_text>*</div><div></div>","none","100","practice","","","","","","","","",""
"-1","-1","poldrack-single-stim","17","27550","0.0-4.0-13.0","sub-11_2","","400","0","fixation","<div class = centerbox><div class = ANT_text>+</div></div>","none","400","practice","","","","","","","","",""
"596","71","poldrack-categorize","18","30261","0.0-4.0-14.0","sub-11_2","","1700","500","stim","<div class = centerbox><div class = ANT_text>+</div></div><div class = ANT_up><img class = ""ANT_img first"" src = /static/experiments/attention_network_task/images/left_arrow.png></img><img class = ANT_img src = /static/experiments/attention_network_task/images/left_arrow.png></img><img class = ANT_img src = /static/experiments/attention_network_task/images/right_arrow.png></img><img class = ANT_img src = /static/experiments/attention_network_task/images/left_arrow.png></img><img class = ANT_img src = /static/experiments/attention_network_task/images/left_arrow.png></img></div></div>","89,71","1700","practice","true","71","1000","right","incongruent","up","double","",""
"-1","-1","poldrack-single-stim","19","30878","0.0-4.0-15.0","sub-11_2","","100","0","doublecue","<div class = centerbox><div class = ANT_text>+</div></div><div class = ANT_down><div class = ANT_text>*</div></div><div class = ANT_up><div class = ANT_text>*</div><div></div>","none","100","practice","","","","","","","","",""
"-1","-1","poldrack-single-stim","20","31295","0.0-4.0-16.0","sub-11_2","","400","0","fixation","<div class = centerbox><div class = ANT_text>+</div></div>","none","400","practice","","","","","","","","",""
"683","89","poldrack-categorize","21","34021","0.0-4.0-17.0","sub-11_2","","1700","500","stim","<div class = centerbox><div class = ANT_text>+</div></div><div class = ANT_down><img class = ""ANT_img first"" src = /static/experiments/attention_network_task/images/right_arrow.png></img><img class = ANT_img src = /static/experiments/attention_network_task/images/right_arrow.png></img><img class = ANT_img src = /static/experiments/attention_network_task/images/left_arrow.png></img><img class = ANT_img src = /static/experiments/attention_network_task/images/right_arrow.png></img><img class = ANT_img src = /static/experiments/attention_network_task/images/right_arrow.png></img></div></div>","89,71","1700","practice","true","89","1000","left","incongruent","down","double","",""
"-1","-1","poldrack-single-stim","22","34640","0.0-4.0-18.0","sub-11_2","","100","0","doublecue","<div class = centerbox><div class = ANT_text>+</div></div><div class = ANT_down><div class = ANT_text>*</div></div><div class = ANT_up><div class = ANT_text>*</div><div></div>","none","100","practice","","","","","","","","",""
"-1","-1","poldrack-single-stim","23","35054","0.0-4.0-19.0","sub-11_2","","400","0","fixation","<div class = centerbox><div class = ANT_text>+</div></div>","none","400","practice","","","","","","","","",""
"457","71","poldrack-categorize","24","37772","0.0-4.0-20.0","sub-11_2","","1700","500","stim","<div class = centerbox><div class = ANT_text>+</div></div><div class = ANT_down><img class = ""ANT_img first"" src = /static/experiments/attention_network_task/images/right_arrow.png></img><img class = ANT_img src = /static/experiments/attention_network_task/images/right_arrow.png></img><img class = ANT_img src = /static/experiments/attention_network_task/images/right_arrow.png></img><img class = ANT_img src = /static/experiments/attention_network_task/images/right_arrow.png></img><img class = ANT_img src = /static/experiments/attention_network_task/images/right_arrow.png></img></div></div>","89,71","1700","practice","true","71","1000","right","congruent","down","double","",""
"-1","-1","poldrack-single-stim","25","38390","0.0-4.0-21.0","sub-11_2","","100","0","doublecue","<div class = centerbox><div class = ANT_text>+</div></div><div class = ANT_down><div class = ANT_text>*</div></div><div class = ANT_up><div class = ANT_text>*</div><div></div>","none","100","practice","","","","","","","","",""
"-1","-1","poldrack-single-stim","26","38804","0.0-4.0-22.0","sub-11_2","","400","0","fixation","<div class = centerbox><div class = ANT_text>+</div></div>","none","400","practice","","","","","","","","",""
"623","89","poldrack-categorize","27","41532","0.0-4.0-23.0","sub-11_2","","1700","500","stim","<div class = centerbox><div class = ANT_text>+</div></div><div class = ANT_up><img class = ""ANT_img first"" src = /static/experiments/attention_network_task/images/right_arrow.png></img><img class = ANT_img src = /static/experiments/attention_network_task/images/right_arrow.png></img><img class = ANT_img src = /static/experiments/attention_network_task/images/left_arrow.png></img><img class = ANT_img src = /static/experiments/attention_network_task/images/right_arrow.png></img><img class = ANT_img src = /static/experiments/attention_network_task/images/right_arrow.png></img></div></div>","89,71","1700","practice","true","89","1000","left","incongruent","up","double","",""
"-1","-1","poldrack-single-stim","28","42150","0.0-4.0-24.0","sub-11_2","","100","0","spatialcue","<div class = centerbox><div class = ANT_text>+</div></div><div class = centerbox><div class = ANT_up><div class = ANT_text>*</p></div></div>","none","100","practice","","","","","","","","",""
"-1","-1","poldrack-single-stim","29","42567","0.0-4.0-25.0","sub-11_2","","400","0","fixation","<div class = centerbox><div class = ANT_text>+</div></div>","none","400","practice","","","","","","","","",""
"525","89","poldrack-categorize","30","45293","0.0-4.0-26.0","sub-11_2","","1700","500","stim","<div class = centerbox><div class = ANT_text>+</div></div><div class = ANT_up><img class = ""ANT_img first"" src = /static/experiments/attention_network_task/images/left_arrow.png></img><img class = ANT_img src = /static/experiments/attention_network_task/images/left_arrow.png></img><img class = ANT_img src = /static/experiments/attention_network_task/images/left_arrow.png></img><img class = ANT_img src = /static/experiments/attention_network_task/images/left_arrow.png></img><img class = ANT_img src = /static/experiments/attention_network_task/images/left_arrow.png></img></div></div>","89,71","1700","practice","true","89","1000","left","congruent","up","spatial","",""
"-1","-1","poldrack-single-stim","31","45908","0.0-4.0-27.0","sub-11_2","","100","0","doublecue","<div class = centerbox><div class = ANT_text>+</div></div><div class = ANT_down><div class = ANT_text>*</div></div><div class = ANT_up><div class = ANT_text>*</div><div></div>","none","100","practice","","","","","","","","",""
"-1","-1","poldrack-single-stim","32","46325","0.0-4.0-28.0","sub-11_2","","400","0","fixation","<div class = centerbox><div class = ANT_text>+</div></div>","none","400","practice","","","","","","","","",""
"645","89","poldrack-categorize","33","49049","0.0-4.0-29.0","sub-11_2","","1700","500","stim","<div class = centerbox><div class = ANT_text>+</div></div><div class = ANT_down><img class = ""ANT_img first"" src = /static/experiments/attention_network_task/images/left_arrow.png></img><img class = ANT_img src = /static/experiments/attention_network_task/images/left_arrow.png></img><img class = ANT_img src = /static/experiments/attention_network_task/images/left_arrow.png></img><img class = ANT_img src = /static/experiments/attention_network_task/images/left_arrow.png></img><img class = ANT_img src = /static/experiments/attention_network_task/images/left_arrow.png></img></div></div>","89,71","1700","practice","true","89","1000","left","congruent","down","double","",""
"-1","-1","poldrack-single-stim","34","49667","0.0-4.0-30.0","sub-11_2","","100","0","spatialcue","<div class = centerbox><div class = ANT_text>+</div></div><div class = centerbox><div class = ANT_down><div class = ANT_text>*</p></div></div>","none","100","practice","","","","","","","","",""
"-1","-1","poldrack-single-stim","35","50084","0.0-4.0-31.0","sub-11_2","","400","0","fixation","<div class = centerbox><div class = ANT_text>+</div></div>","none","400","practice","","","","","","","","",""
"532","71","poldrack-categorize","36","52793","0.0-4.0-32.0","sub-11_2","","1700","500","stim","<div class = centerbox><div class = ANT_text>+</div></div><div class = ANT_down><img class = ""ANT_img first"" src = /static/experiments/attention_network_task/images/right_arrow.png></img><img class = ANT_img src = /static/experiments/attention_network_task/images/right_arrow.png></img><img class = ANT_img src = /static/experiments/attention_network_task/images/right_arrow.png></img><img class = ANT_img src = /static/experiments/attention_network_task/images/right_arrow.png></img><img class = ANT_img src = /static/experiments/attention_network_task/images/right_arrow.png></img></div></div>","89,71","1700","practice","true","71","1000","right","congruent","down","spatial","",""
"-1","-1","poldrack-single-stim","37","53410","0.0-4.0-33.0","sub-11_2","","100","0","spatialcue","<div class = centerbox><div class = ANT_text>+</div></div><div class = centerbox><div class = ANT_up><div class = ANT_text>*</p></div></div>","none","100","practice","","","","","","","","",""
"-1","-1","poldrack-single-stim","38","53826","0.0-4.0-34.0","sub-11_2","","400","0","fixation","<div class = centerbox><div class = ANT_text>+</div></div>","none","400","practice","","","","","","","","",""
"764","71","poldrack-categorize","39","56548","0.0-4.0-35.0","sub-11_2","","1700","500","stim","<div class = centerbox><div class = ANT_text>+</div></div><div class = ANT_up><img class = ""ANT_img first"" src = /static/experiments/attention_network_task/images/right_arrow.png></img><img class = ANT_img src = /static/experiments/attention_network_task/images/right_arrow.png></img><img class = ANT_img src = /static/experiments/attention_network_task/images/right_arrow.png></img><img class = ANT_img src = /static/experiments/attention_network_task/images/right_arrow.png></img><img class = ANT_img src = /static/experiments/attention_network_task/images/right_arrow.png></img></div></div>","89,71","1700","practice","true","71","1000","right","congruent","up","spatial","",""
"2810","32","poldrack-text","40","59870","0.0-5.0","sub-11_2","<div class = centerbox><div  class = center-text>Scanner Setup</div></div>","2810","0","fmri_scanner_wait","","","","","","","","","","","","",""
"67578","84","poldrack-text","41","127450","0.0-6.0","sub-11_2","<div class = centerbox><div style='color:red'; class = center-text>+</div></div>","67578","0","fmri_trigger_wait","","","","","","","","","","","","",""
"-1","-1","poldrack-single-stim","42","128466","0.0-7.0","sub-11_2","","1000","0","fmri_buffer","","none","1000","","","","","","","","","",""
"-1","-1","poldrack-single-stim","43","129982","0.0-8.0","sub-11_2","","1500","500","test_start_block","<div class = centerbox><div class = center-text>Preparez-vous!</div></div>","none","1500","","","","","","","","","",""
"-1","-1","poldrack-single-stim","44","130597","0.0-9.0","sub-11_2","","100","0","spatialcue","<div class = centerbox><div class = ANT_text>+</div></div><div class = centerbox><div class = ANT_up><div class = ANT_text>*</p></div></div>","none","100","test","","","","","","","","",""
"-1","-1","poldrack-single-stim","45","131014","0.0-10.0","sub-11_2","","400","0","fixation","<div class = centerbox><div class = ANT_text>+</div></div>","none","400","test","","","","","","","","",""
"568","71","poldrack-single-stim","46","133129","0.0-11.0","sub-11_2","","2100","0","stim","<div class = centerbox><div class = ANT_text>+</div></div><div class = ANT_up><img class = ""ANT_img first"" src = /static/experiments/attention_network_task/images/right_arrow.png></img><img class = ANT_img src = /static/experiments/attention_network_task/images/right_arrow.png></img><img class = ANT_img src = /static/experiments/attention_network_task/images/right_arrow.png></img><img class = ANT_img src = /static/experiments/attention_network_task/images/right_arrow.png></img><img class = ANT_img src = /static/experiments/attention_network_task/images/right_arrow.png></img></div></div>","89,71","1700","test","true","71","","right","congruent","up","spatial","0",""
"-1","-1","poldrack-single-stim","47","133238","0.0-12.0","sub-11_2","","100","0","doublecue","<div class = centerbox><div class = ANT_text>+</div></div><div class = ANT_down><div class = ANT_text>*</div></div><div class = ANT_up><div class = ANT_text>*</div><div></div>","none","100","test","","","","","","","","",""
"-1","-1","poldrack-single-stim","48","133652","0.0-13.0","sub-11_2","","400","0","fixation","<div class = centerbox><div class = ANT_text>+</div></div>","none","400","test","","","","","","","","",""
"701","89","poldrack-single-stim","49","135762","0.0-14.0","sub-11_2","","2100.272","0","stim","<div class = centerbox><div class = ANT_text>+</div></div><div class = ANT_down><img class = ""ANT_img first"" src = /static/experiments/attention_network_task/images/right_arrow.png></img><img class = ANT_img src = /static/experiments/attention_network_task/images/right_arrow.png></img><img class = ANT_img src = /static/experiments/attention_network_task/images/left_arrow.png></img><img class = ANT_img src = /static/experiments/attention_network_task/images/right_arrow.png></img><img class = ANT_img src = /static/experiments/attention_network_task/images/right_arrow.png></img></div></div>","89,71","1700","test","true","89","","left","incongruent","down","double","1",""
"-1","-1","poldrack-single-stim","50","135870","0.0-15.0","sub-11_2","","100","0","spatialcue","<div class = centerbox><div class = ANT_text>+</div></div><div class = centerbox><div class = ANT_up><div class = ANT_text>*</p></div></div>","none","100","test","","","","","","","","",""
"-1","-1","poldrack-single-stim","51","136286","0.0-16.0","sub-11_2","","400","0","fixation","<div class = centerbox><div class = ANT_text>+</div></div>","none","400","test","","","","","","","","",""
"552","71","poldrack-single-stim","52","138403","0.0-17.0","sub-11_2","","2100","0","stim","<div class = centerbox><div class = ANT_text>+</div></div><div class = ANT_up><img class = ""ANT_img first"" src = /static/experiments/attention_network_task/images/right_arrow.png></img><img class = ANT_img src = /static/experiments/attention_network_task/images/right_arrow.png></img><img class = ANT_img src = /static/experiments/attention_network_task/images/right_arrow.png></img><img class = ANT_img src = /static/experiments/attention_network_task/images/right_arrow.png></img><img class = ANT_img src = /static/experiments/attention_network_task/images/right_arrow.png></img></div></div>","89,71","1700","test","true","71","","right","congruent","up","spatial","2",""
"-1","-1","poldrack-single-stim","53","138511","0.0-18.0","sub-11_2","","100","0","spatialcue","<div class = centerbox><div class = ANT_text>+</div></div><div class = centerbox><div class = ANT_up><div class = ANT_text>*</p></div></div>","none","100","test","","","","","","","","",""
"-1","-1","poldrack-single-stim","54","138926","0.0-19.0","sub-11_2","","400","0","fixation","<div class = centerbox><div class = ANT_text>+</div></div>","none","400","test","","","","","","","","",""
"421","89","poldrack-single-stim","55","141042","0.0-20.0","sub-11_2","","2100.136","0","stim","<div class = centerbox><div class = ANT_text>+</div></div><div class = ANT_up><img class = ""ANT_img first"" src = /static/experiments/attention_network_task/images/left_arrow.png></img><img class = ANT_img src = /static/experiments/attention_network_task/images/left_arrow.png></img><img class = ANT_img src = /static/experiments/attention_network_task/images/left_arrow.png></img><img class = ANT_img src = /static/experiments/attention_network_task/images/left_arrow.png></img><img class = ANT_img src = /static/experiments/attention_network_task/images/left_arrow.png></img></div></div>","89,71","1700","test","true","89","","left","congruent","up","spatial","3",""
"-1","-1","poldrack-single-stim","56","141149","0.0-21.0","sub-11_2","","100","0","doublecue","<div class = centerbox><div class = ANT_text>+</div></div><div class = ANT_down><div class = ANT_text>*</div></div><div class = ANT_up><div class = ANT_text>*</div><div></div>","none","100","test","","","","","","","","",""
"-1","-1","poldrack-single-stim","57","141565","0.0-22.0","sub-11_2","","400","0","fixation","<div class = centerbox><div class = ANT_text>+</div></div>","none","400","test","","","","","","","","",""
"688","71","poldrack-single-stim","58","143680","0.0-23.0","sub-11_2","","2100.408","0","stim","<div class = centerbox><div class = ANT_text>+</div></div><div class = ANT_down><img class = ""ANT_img first"" src = /static/experiments/attention_network_task/images/left_arrow.png></img><img class = ANT_img src = /static/experiments/attention_network_task/images/left_arrow.png></img><img class = ANT_img src = /static/experiments/attention_network_task/images/right_arrow.png></img><img class = ANT_img src = /static/experiments/attention_network_task/images/left_arrow.png></img><img class = ANT_img src = /static/experiments/attention_network_task/images/left_arrow.png></img></div></div>","89,71","1700","test","true","71","","right","incongruent","down","double","4",""
"-1","-1","poldrack-single-stim","59","143789","0.0-24.0","sub-11_2","","100","0","doublecue","<div class = centerbox><div class = ANT_text>+</div></div><div class = ANT_down><div class = ANT_text>*</div></div><div class = ANT_up><div class = ANT_text>*</div><div></div>","none","100","test","","","","","","","","",""
"-1","-1","poldrack-single-stim","60","144192","0.0-25.0","sub-11_2","","400","0","fixation","<div class = centerbox><div class = ANT_text>+</div></div>","none","400","test","","","","","","","","",""
"629","71","poldrack-single-stim","61","146301","0.0-26.0","sub-11_2","","2100.544","0","stim","<div class = centerbox><div class = ANT_text>+</div></div><div class = ANT_up><img class = ""ANT_img first"" src = /static/experiments/attention_network_task/images/right_arrow.png></img><img class = ANT_img src = /static/experiments/attention_network_task/images/right_arrow.png></img><img class = ANT_img src = /static/experiments/attention_network_task/images/right_arrow.png></img><img class = ANT_img src = /static/experiments/attention_network_task/images/right_arrow.png></img><img class = ANT_img src = /static/experiments/attention_network_task/images/right_arrow.png></img></div></div>","89,71","1700","test","true","71","","right","congruent","up","double","5",""
"-1","-1","poldrack-single-stim","62","146410","0.0-27.0","sub-11_2","","100","0","doublecue","<div class = centerbox><div class = ANT_text>+</div></div><div class = ANT_down><div class = ANT_text>*</div></div><div class = ANT_up><div class = ANT_text>*</div><div></div>","none","100","test","","","","","","","","",""
"-1","-1","poldrack-single-stim","63","146814","0.0-28.0","sub-11_2","","400","0","fixation","<div class = centerbox><div class = ANT_text>+</div></div>","none","400","test","","","","","","","","",""
"620","71","poldrack-single-stim","64","148922","0.0-29.0","sub-11_2","","2100","0","stim","<div class = centerbox><div class = ANT_text>+</div></div><div class = ANT_down><img class = ""ANT_img first"" src = /static/experiments/attention_network_task/images/left_arrow.png></img><img class = ANT_img src = /static/experiments/attention_network_task/images/left_arrow.png></img><img class = ANT_img src = /static/experiments/attention_network_task/images/right_arrow.png></img><img class = ANT_img src = /static/experiments/attention_network_task/images/left_arrow.png></img><img class = ANT_img src = /static/experiments/attention_network_task/images/left_arrow.png></img></div></div>","89,71","1700","test","true","71","","right","incongruent","down","double","6",""
"-1","-1","poldrack-single-stim","65","149031","0.0-30.0","sub-11_2","","100","0","spatialcue","<div class = centerbox><div class = ANT_text>+</div></div><div class = centerbox><div class = ANT_up><div class = ANT_text>*</p></div></div>","none","100","test","","","","","","","","",""
"-1","-1","poldrack-single-stim","66","149436","0.0-31.0","sub-11_2","","400","0","fixation","<div class = centerbox><div class = ANT_text>+</div></div>","none","400","test","","","","","","","","",""
"537","89","poldrack-single-stim","67","151566","0.0-32.0","sub-11_2","","2100.136","0","stim","<div class = centerbox><div class = ANT_text>+</div></div><div class = ANT_up><img class = ""ANT_img first"" src = /static/experiments/attention_network_task/images/right_arrow.png></img><img class = ANT_img src = /static/experiments/attention_network_task/images/right_arrow.png></img><img class = ANT_img src = /static/experiments/attention_network_task/images/left_arrow.png></img><img class = ANT_img src = /static/experiments/attention_network_task/images/right_arrow.png></img><img class = ANT_img src = /static/experiments/attention_network_task/images/right_arrow.png></img></div></div>","89,71","1700","test","true","89","","left","incongruent","up","spatial","7",""
"-1","-1","poldrack-single-stim","68","151677","0.0-33.0","sub-11_2","","100","0","doublecue","<div class = centerbox><div class = ANT_text>+</div></div><div class = ANT_down><div class = ANT_text>*</div></div><div class = ANT_up><div class = ANT_text>*</div><div></div>","none","100","test","","","","","","","","",""
"-1","-1","poldrack-single-stim","69","152090","0.0-34.0","sub-11_2","","400","0","fixation","<div class = centerbox><div class = ANT_text>+</div></div>","none","400","test","","","","","","","","",""
"711","89","poldrack-single-stim","70","154200","0.0-35.0","sub-11_2","","2100.136","0","stim","<div class = centerbox><div class = ANT_text>+</div></div><div class = ANT_down><img class = ""ANT_img first"" src = /static/experiments/attention_network_task/images/right_arrow.png></img><img class = ANT_img src = /static/experiments/attention_network_task/images/right_arrow.png></img><img class = ANT_img src = /static/experiments/attention_network_task/images/left_arrow.png></img><img class = ANT_img src = /static/experiments/attention_network_task/images/right_arrow.png></img><img class = ANT_img src = /static/experiments/attention_network_task/images/right_arrow.png></img></div></div>","89,71","1700","test","true","89","","left","incongruent","down","double","8",""
"-1","-1","poldrack-single-stim","71","154308","0.0-36.0","sub-11_2","","100","0","spatialcue","<div class = centerbox><div class = ANT_text>+</div></div><div class = centerbox><div class = ANT_up><div class = ANT_text>*</p></div></div>","none","100","test","","","","","","","","",""
"-1","-1","poldrack-single-stim","72","154725","0.0-37.0","sub-11_2","","400","0","fixation","<div class = centerbox><div class = ANT_text>+</div></div>","none","400","test","","","","","","","","",""
"562","71","poldrack-single-stim","73","156838","0.0-38.0","sub-11_2","","2100.136","0","stim","<div class = centerbox><div class = ANT_text>+</div></div><div class = ANT_up><img class = ""ANT_img first"" src = /static/experiments/attention_network_task/images/left_arrow.png></img><img class = ANT_img src = /static/experiments/attention_network_task/images/left_arrow.png></img><img class = ANT_img src = /static/experiments/attention_network_task/images/right_arrow.png></img><img class = ANT_img src = /static/experiments/attention_network_task/images/left_arrow.png></img><img class = ANT_img src = /static/experiments/attention_network_task/images/left_arrow.png></img></div></div>","89,71","1700","test","true","71","","right","incongruent","up","spatial","9",""
"-1","-1","poldrack-single-stim","74","156946","0.0-39.0","sub-11_2","","100","0","doublecue","<div class = centerbox><div class = ANT_text>+</div></div><div class = ANT_down><div class = ANT_text>*</div></div><div class = ANT_up><div class = ANT_text>*</div><div></div>","none","100","test","","","","","","","","",""
"-1","-1","poldrack-single-stim","75","157353","0.0-40.0","sub-11_2","","400","0","fixation","<div class = centerbox><div class = ANT_text>+</div></div>","none","400","test","","","","","","","","",""
"663","71","poldrack-single-stim","76","159460","0.0-41.0","sub-11_2","","2100.136","0","stim","<div class = centerbox><div class = ANT_text>+</div></div><div class = ANT_down><img class = ""ANT_img first"" src = /static/experiments/attention_network_task/images/right_arrow.png></img><img class = ANT_img src = /static/experiments/attention_network_task/images/right_arrow.png></img><img class = ANT_img src = /static/experiments/attention_network_task/images/right_arrow.png></img><img class = ANT_img src = /static/experiments/attention_network_task/images/right_arrow.png></img><img class = ANT_img src = /static/experiments/attention_network_task/images/right_arrow.png></img></div></div>","89,71","1700","test","true","71","","right","congruent","down","double","10",""
"-1","-1","poldrack-single-stim","77","159568","0.0-42.0","sub-11_2","","100","0","spatialcue","<div class = centerbox><div class = ANT_text>+</div></div><div class = centerbox><div class = ANT_up><div class = ANT_text>*</p></div></div>","none","100","test","","","","","","","","",""
"-1","-1","poldrack-single-stim","78","159984","0.0-43.0","sub-11_2","","400","0","fixation","<div class = centerbox><div class = ANT_text>+</div></div>","none","400","test","","","","","","","","",""
"648","89","poldrack-single-stim","79","162093","0.0-44.0","sub-11_2","","2100.272","0","stim","<div class = centerbox><div class = ANT_text>+</div></div><div class = ANT_up><img class = ""ANT_img first"" src = /static/experiments/attention_network_task/images/right_arrow.png></img><img class = ANT_img src = /static/experiments/attention_network_task/images/right_arrow.png></img><img class = ANT_img src = /static/experiments/attention_network_task/images/left_arrow.png></img><img class = ANT_img src = /static/experiments/attention_network_task/images/right_arrow.png></img><img class = ANT_img src = /static/experiments/attention_network_task/images/right_arrow.png></img></div></div>","89,71","1700","test","true","89","","left","incongruent","up","spatial","11",""
"-1","-1","poldrack-single-stim","80","162202","0.0-45.0","sub-11_2","","100","0","spatialcue","<div class = centerbox><div class = ANT_text>+</div></div><div class = centerbox><div class = ANT_up><div class = ANT_text>*</p></div></div>","none","100","test","","","","","","","","",""
"-1","-1","poldrack-single-stim","81","162616","0.0-46.0","sub-11_2","","400","0","fixation","<div class = centerbox><div class = ANT_text>+</div></div>","none","400","test","","","","","","","","",""
"579","71","poldrack-single-stim","82","164727","0.0-47.0","sub-11_2","","2100.136","0","stim","<div class = centerbox><div class = ANT_text>+</div></div><div class = ANT_up><img class = ""ANT_img first"" src = /static/experiments/attention_network_task/images/left_arrow.png></img><img class = ANT_img src = /static/experiments/attention_network_task/images/left_arrow.png></img><img class = ANT_img src = /static/experiments/attention_network_task/images/right_arrow.png></img><img class = ANT_img src = /static/experiments/attention_network_task/images/left_arrow.png></img><img class = ANT_img src = /static/experiments/attention_network_task/images/left_arrow.png></img></div></div>","89,71","1700","test","true","71","","right","incongruent","up","spatial","12",""
"-1","-1","poldrack-single-stim","83","164835","0.0-48.0","sub-11_2","","100","0","spatialcue","<div class = centerbox><div class = ANT_text>+</div></div><div class = centerbox><div class = ANT_up><div class = ANT_text>*</p></div></div>","none","100","test","","","","","","","","",""
"-1","-1","poldrack-single-stim","84","165249","0.0-49.0","sub-11_2","","400","0","fixation","<div class = centerbox><div class = ANT_text>+</div></div>","none","400","test","","","","","","","","",""
"528","89","poldrack-single-stim","85","167361","0.0-50.0","sub-11_2","","2100.408","0","stim","<div class = centerbox><div class = ANT_text>+</div></div><div class = ANT_up><img class = ""ANT_img first"" src = /static/experiments/attention_network_task/images/right_arrow.png></img><img class = ANT_img src = /static/experiments/attention_network_task/images/right_arrow.png></img><img class = ANT_img src = /static/experiments/attention_network_task/images/left_arrow.png></img><img class = ANT_img src = /static/experiments/attention_network_task/images/right_arrow.png></img><img class = ANT_img src = /static/experiments/attention_network_task/images/right_arrow.png></img></div></div>","89,71","1700","test","true","89","","left","incongruent","up","spatial","13",""
"-1","-1","poldrack-single-stim","86","167470","0.0-51.0","sub-11_2","","100","0","doublecue","<div class = centerbox><div class = ANT_text>+</div></div><div class = ANT_down><div class = ANT_text>*</div></div><div class = ANT_up><div class = ANT_text>*</div><div></div>","none","100","test","","","","","","","","",""
"-1","-1","poldrack-single-stim","87","167884","0.0-52.0","sub-11_2","","400","0","fixation","<div class = centerbox><div class = ANT_text>+</div></div>","none","400","test","","","","","","","","",""
"526","71","poldrack-single-stim","88","170000","0.0-53.0","sub-11_2","","2100","0","stim","<div class = centerbox><div class = ANT_text>+</div></div><div class = ANT_up><img class = ""ANT_img first"" src = /static/experiments/attention_network_task/images/left_arrow.png></img><img class = ANT_img src = /static/experiments/attention_network_task/images/left_arrow.png></img><img class = ANT_img src = /static/experiments/attention_network_task/images/right_arrow.png></img><img class = ANT_img src = /static/experiments/attention_network_task/images/left_arrow.png></img><img class = ANT_img src = /static/experiments/attention_network_task/images/left_arrow.png></img></div></div>","89,71","1700","test","true","71","","right","incongruent","up","double","14",""
"-1","-1","poldrack-single-stim","89","170109","0.0-54.0","sub-11_2","","100","0","doublecue","<div class = centerbox><div class = ANT_text>+</div></div><div class = ANT_down><div class = ANT_text>*</div></div><div class = ANT_up><div class = ANT_text>*</div><div></div>","none","100","test","","","","","","","","",""
"-1","-1","poldrack-single-stim","90","170525","0.0-55.0","sub-11_2","","400","0","fixation","<div class = centerbox><div class = ANT_text>+</div></div>","none","400","test","","","","","","","","",""
"587","71","poldrack-single-stim","91","172634","0.0-56.0","sub-11_2","","2100.136","0","stim","<div class = centerbox><div class = ANT_text>+</div></div><div class = ANT_up><img class = ""ANT_img first"" src = /static/experiments/attention_network_task/images/right_arrow.png></img><img class = ANT_img src = /static/experiments/attention_network_task/images/right_arrow.png></img><img class = ANT_img src = /static/experiments/attention_network_task/images/right_arrow.png></img><img class = ANT_img src = /static/experiments/attention_network_task/images/right_arrow.png></img><img class = ANT_img src = /static/experiments/attention_network_task/images/right_arrow.png></img></div></div>","89,71","1700","test","true","71","","right","congruent","up","double","15",""
"-1","-1","poldrack-single-stim","92","172742","0.0-57.0","sub-11_2","","100","0","spatialcue","<div class = centerbox><div class = ANT_text>+</div></div><div class = centerbox><div class = ANT_down><div class = ANT_text>*</p></div></div>","none","100","test","","","","","","","","",""
"-1","-1","poldrack-single-stim","93","173159","0.0-58.0","sub-11_2","","400","0","fixation","<div class = centerbox><div class = ANT_text>+</div></div>","none","400","test","","","","","","","","",""
"544","89","poldrack-single-stim","94","175264","0.0-59.0","sub-11_2","","2100","0","stim","<div class = centerbox><div class = ANT_text>+</div></div><div class = ANT_down><img class = ""ANT_img first"" src = /static/experiments/attention_network_task/images/left_arrow.png></img><img class = ANT_img src = /static/experiments/attention_network_task/images/left_arrow.png></img><img class = ANT_img src = /static/experiments/attention_network_task/images/left_arrow.png></img><img class = ANT_img src = /static/experiments/attention_network_task/images/left_arrow.png></img><img class = ANT_img src = /static/experiments/attention_network_task/images/left_arrow.png></img></div></div>","89,71","1700","test","true","89","","left","congruent","down","spatial","16",""
"-1","-1","poldrack-single-stim","95","175372","0.0-60.0","sub-11_2","","100","0","doublecue","<div class = centerbox><div class = ANT_text>+</div></div><div class = ANT_down><div class = ANT_text>*</div></div><div class = ANT_up><div class = ANT_text>*</div><div></div>","none","100","test","","","","","","","","",""
"-1","-1","poldrack-single-stim","96","175788","0.0-61.0","sub-11_2","","400","0","fixation","<div class = centerbox><div class = ANT_text>+</div></div>","none","400","test","","","","","","","","",""
"569","89","poldrack-single-stim","97","177903","0.0-62.0","sub-11_2","","2100.136","0","stim","<div class = centerbox><div class = ANT_text>+</div></div><div class = ANT_up><img class = ""ANT_img first"" src = /static/experiments/attention_network_task/images/right_arrow.png></img><img class = ANT_img src = /static/experiments/attention_network_task/images/right_arrow.png></img><img class = ANT_img src = /static/experiments/attention_network_task/images/left_arrow.png></img><img class = ANT_img src = /static/experiments/attention_network_task/images/right_arrow.png></img><img class = ANT_img src = /static/experiments/attention_network_task/images/right_arrow.png></img></div></div>","89,71","1700","test","true","89","","left","incongruent","up","double","17",""
"-1","-1","poldrack-single-stim","98","178012","0.0-63.0","sub-11_2","","100","0","spatialcue","<div class = centerbox><div class = ANT_text>+</div></div><div class = centerbox><div class = ANT_down><div class = ANT_text>*</p></div></div>","none","100","test","","","","","","","","",""
"-1","-1","poldrack-single-stim","99","178426","0.0-64.0","sub-11_2","","400","0","fixation","<div class = centerbox><div class = ANT_text>+</div></div>","none","400","test","","","","","","","","",""
"747","71","poldrack-single-stim","100","180538","0.0-65.0","sub-11_2","","2100.952","0","stim","<div class = centerbox><div class = ANT_text>+</div></div><div class = ANT_down><img class = ""ANT_img first"" src = /static/experiments/attention_network_task/images/right_arrow.png></img><img class = ANT_img src = /static/experiments/attention_network_task/images/right_arrow.png></img><img class = ANT_img src = /static/experiments/attention_network_task/images/right_arrow.png></img><img class = ANT_img src = /static/experiments/attention_network_task/images/right_arrow.png></img><img class = ANT_img src = /static/experiments/attention_network_task/images/right_arrow.png></img></div></div>","89,71","1700","test","true","71","","right","congruent","down","spatial","18",""
"-1","-1","poldrack-single-stim","101","180647","0.0-66.0","sub-11_2","","100","0","doublecue","<div class = centerbox><div class = ANT_text>+</div></div><div class = ANT_down><div class = ANT_text>*</div></div><div class = ANT_up><div class = ANT_text>*</div><div></div>","none","100","test","","","","","","","","",""
"-1","-1","poldrack-single-stim","102","181063","0.0-67.0","sub-11_2","","400","0","fixation","<div class = centerbox><div class = ANT_text>+</div></div>","none","400","test","","","","","","","","",""
"514","89","poldrack-single-stim","103","183171","0.0-68.0","sub-11_2","","2100.272","0","stim","<div class = centerbox><div class = ANT_text>+</div></div><div class = ANT_down><img class = ""ANT_img first"" src = /static/experiments/attention_network_task/images/left_arrow.png></img><img class = ANT_img src = /static/experiments/attention_network_task/images/left_arrow.png></img><img class = ANT_img src = /static/experiments/attention_network_task/images/left_arrow.png></img><img class = ANT_img src = /static/experiments/attention_network_task/images/left_arrow.png></img><img class = ANT_img src = /static/experiments/attention_network_task/images/left_arrow.png></img></div></div>","89,71","1700","test","true","89","","left","congruent","down","double","19",""
"-1","-1","poldrack-single-stim","104","183279","0.0-69.0","sub-11_2","","100","0","doublecue","<div class = centerbox><div class = ANT_text>+</div></div><div class = ANT_down><div class = ANT_text>*</div></div><div class = ANT_up><div class = ANT_text>*</div><div></div>","none","100","test","","","","","","","","",""
"-1","-1","poldrack-single-stim","105","183681","0.0-70.0","sub-11_2","","400","0","fixation","<div class = centerbox><div class = ANT_text>+</div></div>","none","400","test","","","","","","","","",""
"628","89","poldrack-single-stim","106","185783","0.0-71.0","sub-11_2","","2100.136","0","stim","<div class = centerbox><div class = ANT_text>+</div></div><div class = ANT_up><img class = ""ANT_img first"" src = /static/experiments/attention_network_task/images/left_arrow.png></img><img class = ANT_img src = /static/experiments/attention_network_task/images/left_arrow.png></img><img class = ANT_img src = /static/experiments/attention_network_task/images/left_arrow.png></img><img class = ANT_img src = /static/experiments/attention_network_task/images/left_arrow.png></img><img class = ANT_img src = /static/experiments/attention_network_task/images/left_arrow.png></img></div></div>","89,71","1700","test","true","89","","left","congruent","up","double","20",""
"-1","-1","poldrack-single-stim","107","185885","0.0-72.0","sub-11_2","","100","0","doublecue","<div class = centerbox><div class = ANT_text>+</div></div><div class = ANT_down><div class = ANT_text>*</div></div><div class = ANT_up><div class = ANT_text>*</div><div></div>","none","100","test","","","","","","","","",""
"-1","-1","poldrack-single-stim","108","186289","0.0-73.0","sub-11_2","","400","0","fixation","<div class = centerbox><div class = ANT_text>+</div></div>","none","400","test","","","","","","","","",""
"603","89","poldrack-single-stim","109","188400","0.0-74.0","sub-11_2","","2100","0","stim","<div class = centerbox><div class = ANT_text>+</div></div><div class = ANT_up><img class = ""ANT_img first"" src = /static/experiments/attention_network_task/images/right_arrow.png></img><img class = ANT_img src = /static/experiments/attention_network_task/images/right_arrow.png></img><img class = ANT_img src = /static/experiments/attention_network_task/images/left_arrow.png></img><img class = ANT_img src = /static/experiments/attention_network_task/images/right_arrow.png></img><img class = ANT_img src = /static/experiments/attention_network_task/images/right_arrow.png></img></div></div>","89,71","1700","test","true","89","","left","incongruent","up","double","21",""
"-1","-1","poldrack-single-stim","110","188508","0.0-75.0","sub-11_2","","100","0","spatialcue","<div class = centerbox><div class = ANT_text>+</div></div><div class = centerbox><div class = ANT_up><div class = ANT_text>*</p></div></div>","none","100","test","","","","","","","","",""
"-1","-1","poldrack-single-stim","111","188923","0.0-76.0","sub-11_2","","400","0","fixation","<div class = centerbox><div class = ANT_text>+</div></div>","none","400","test","","","","","","","","",""
"613","71","poldrack-single-stim","112","191032","0.0-77.0","sub-11_2","","2100.136","0","stim","<div class = centerbox><div class = ANT_text>+</div></div><div class = ANT_up><img class = ""ANT_img first"" src = /static/experiments/attention_network_task/images/left_arrow.png></img><img class = ANT_img src = /static/experiments/attention_network_task/images/left_arrow.png></img><img class = ANT_img src = /static/experiments/attention_network_task/images/right_arrow.png></img><img class = ANT_img src = /static/experiments/attention_network_task/images/left_arrow.png></img><img class = ANT_img src = /static/experiments/attention_network_task/images/left_arrow.png></img></div></div>","89,71","1700","test","true","71","","right","incongruent","up","spatial","22",""
"-1","-1","poldrack-single-stim","113","191139","0.0-78.0","sub-11_2","","100","0","doublecue","<div class = centerbox><div class = ANT_text>+</div></div><div class = ANT_down><div class = ANT_text>*</div></div><div class = ANT_up><div class = ANT_text>*</div><div></div>","none","100","test","","","","","","","","",""
"-1","-1","poldrack-single-stim","114","191542","0.0-79.0","sub-11_2","","400","0","fixation","<div class = centerbox><div class = ANT_text>+</div></div>","none","400","test","","","","","","","","",""
"589","71","poldrack-single-stim","115","193651","0.0-80.0","sub-11_2","","2100","0","stim","<div class = centerbox><div class = ANT_text>+</div></div><div class = ANT_down><img class = ""ANT_img first"" src = /static/experiments/attention_network_task/images/right_arrow.png></img><img class = ANT_img src = /static/experiments/attention_network_task/images/right_arrow.png></img><img class = ANT_img src = /static/experiments/attention_network_task/images/right_arrow.png></img><img class = ANT_img src = /static/experiments/attention_network_task/images/right_arrow.png></img><img class = ANT_img src = /static/experiments/attention_network_task/images/right_arrow.png></img></div></div>","89,71","1700","test","true","71","","right","congruent","down","double","23",""
"-1","-1","poldrack-single-stim","116","193753","0.0-81.0","sub-11_2","","100","0","spatialcue","<div class = centerbox><div class = ANT_text>+</div></div><div class = centerbox><div class = ANT_down><div class = ANT_text>*</p></div></div>","none","100","test","","","","","","","","",""
"-1","-1","poldrack-single-stim","117","194160","0.0-82.0","sub-11_2","","400","0","fixation","<div class = centerbox><div class = ANT_text>+</div></div>","none","400","test","","","","","","","","",""
"635","71","poldrack-single-stim","118","196264","0.0-83.0","sub-11_2","","2100.136","0","stim","<div class = centerbox><div class = ANT_text>+</div></div><div class = ANT_down><img class = ""ANT_img first"" src = /static/experiments/attention_network_task/images/left_arrow.png></img><img class = ANT_img src = /static/experiments/attention_network_task/images/left_arrow.png></img><img class = ANT_img src = /static/experiments/attention_network_task/images/right_arrow.png></img><img class = ANT_img src = /static/experiments/attention_network_task/images/left_arrow.png></img><img class = ANT_img src = /static/experiments/attention_network_task/images/left_arrow.png></img></div></div>","89,71","1700","test","true","71","","right","incongruent","down","spatial","24",""
"-1","-1","poldrack-single-stim","119","196372","0.0-84.0","sub-11_2","","100","0","doublecue","<div class = centerbox><div class = ANT_text>+</div></div><div class = ANT_down><div class = ANT_text>*</div></div><div class = ANT_up><div class = ANT_text>*</div><div></div>","none","100","test","","","","","","","","",""
"-1","-1","poldrack-single-stim","120","196787","0.0-85.0","sub-11_2","","400","0","fixation","<div class = centerbox><div class = ANT_text>+</div></div>","none","400","test","","","","","","","","",""
"594","89","poldrack-single-stim","121","198889","0.0-86.0","sub-11_2","","2100.272","0","stim","<div class = centerbox><div class = ANT_text>+</div></div><div class = ANT_down><img class = ""ANT_img first"" src = /static/experiments/attention_network_task/images/right_arrow.png></img><img class = ANT_img src = /static/experiments/attention_network_task/images/right_arrow.png></img><img class = ANT_img src = /static/experiments/attention_network_task/images/left_arrow.png></img><img class = ANT_img src = /static/experiments/attention_network_task/images/right_arrow.png></img><img class = ANT_img src = /static/experiments/attention_network_task/images/right_arrow.png></img></div></div>","89,71","1700","test","true","89","","left","incongruent","down","double","25",""
"-1","-1","poldrack-single-stim","122","198998","0.0-87.0","sub-11_2","","100","0","spatialcue","<div class = centerbox><div class = ANT_text>+</div></div><div class = centerbox><div class = ANT_down><div class = ANT_text>*</p></div></div>","none","100","test","","","","","","","","",""
"-1","-1","poldrack-single-stim","123","199416","0.0-88.0","sub-11_2","","400","0","fixation","<div class = centerbox><div class = ANT_text>+</div></div>","none","400","test","","","","","","","","",""
"469","71","poldrack-single-stim","124","201530","0.0-89.0","sub-11_2","","2100.272","0","stim","<div class = centerbox><div class = ANT_text>+</div></div><div class = ANT_down><img class = ""ANT_img first"" src = /static/experiments/attention_network_task/images/left_arrow.png></img><img class = ANT_img src = /static/experiments/attention_network_task/images/left_arrow.png></img><img class = ANT_img src = /static/experiments/attention_network_task/images/right_arrow.png></img><img class = ANT_img src = /static/experiments/attention_network_task/images/left_arrow.png></img><img class = ANT_img src = /static/experiments/attention_network_task/images/left_arrow.png></img></div></div>","89,71","1700","test","true","71","","right","incongruent","down","spatial","26",""
"-1","-1","poldrack-single-stim","125","201639","0.0-90.0","sub-11_2","","100","0","doublecue","<div class = centerbox><div class = ANT_text>+</div></div><div class = ANT_down><div class = ANT_text>*</div></div><div class = ANT_up><div class = ANT_text>*</div><div></div>","none","100","test","","","","","","","","",""
"-1","-1","poldrack-single-stim","126","202056","0.0-91.0","sub-11_2","","400","0","fixation","<div class = centerbox><div class = ANT_text>+</div></div>","none","400","test","","","","","","","","",""
"485","71","poldrack-single-stim","127","204163","0.0-92.0","sub-11_2","","2100.136","0","stim","<div class = centerbox><div class = ANT_text>+</div></div><div class = ANT_down><img class = ""ANT_img first"" src = /static/experiments/attention_network_task/images/right_arrow.png></img><img class = ANT_img src = /static/experiments/attention_network_task/images/right_arrow.png></img><img class = ANT_img src = /static/experiments/attention_network_task/images/right_arrow.png></img><img class = ANT_img src = /static/experiments/attention_network_task/images/right_arrow.png></img><img class = ANT_img src = /static/experiments/attention_network_task/images/right_arrow.png></img></div></div>","89,71","1700","test","true","71","","right","congruent","down","double","27",""
"-1","-1","poldrack-single-stim","128","204271","0.0-93.0","sub-11_2","","100","0","doublecue","<div class = centerbox><div class = ANT_text>+</div></div><div class = ANT_down><div class = ANT_text>*</div></div><div class = ANT_up><div class = ANT_text>*</div><div></div>","none","100","test","","","","","","","","",""
"-1","-1","poldrack-single-stim","129","204673","0.0-94.0","sub-11_2","","400","0","fixation","<div class = centerbox><div class = ANT_text>+</div></div>","none","400","test","","","","","","","","",""
"521","89","poldrack-single-stim","130","206785","0.0-95.0","sub-11_2","","2100","0","stim","<div class = centerbox><div class = ANT_text>+</div></div><div class = ANT_down><img class = ""ANT_img first"" src = /static/experiments/attention_network_task/images/right_arrow.png></img><img class = ANT_img src = /static/experiments/attention_network_task/images/right_arrow.png></img><img class = ANT_img src = /static/experiments/attention_network_task/images/left_arrow.png></img><img class = ANT_img src = /static/experiments/attention_network_task/images/right_arrow.png></img><img class = ANT_img src = /static/experiments/attention_network_task/images/right_arrow.png></img></div></div>","89,71","1700","test","true","89","","left","incongruent","down","double","28",""
"-1","-1","poldrack-single-stim","131","206893","0.0-96.0","sub-11_2","","100","0","doublecue","<div class = centerbox><div class = ANT_text>+</div></div><div class = ANT_down><div class = ANT_text>*</div></div><div class = ANT_up><div class = ANT_text>*</div><div></div>","none","100","test","","","","","","","","",""
"-1","-1","poldrack-single-stim","132","207309","0.0-97.0","sub-11_2","","400","0","fixation","<div class = centerbox><div class = ANT_text>+</div></div>","none","400","test","","","","","","","","",""
"555","71","poldrack-single-stim","133","209428","0.0-98.0","sub-11_2","","2100.136","0","stim","<div class = centerbox><div class = ANT_text>+</div></div><div class = ANT_down><img class = ""ANT_img first"" src = /static/experiments/attention_network_task/images/left_arrow.png></img><img class = ANT_img src = /static/experiments/attention_network_task/images/left_arrow.png></img><img class = ANT_img src = /static/experiments/attention_network_task/images/right_arrow.png></img><img class = ANT_img src = /static/experiments/attention_network_task/images/left_arrow.png></img><img class = ANT_img src = /static/experiments/attention_network_task/images/left_arrow.png></img></div></div>","89,71","1700","test","true","71","","right","incongruent","down","double","29",""
"-1","-1","poldrack-single-stim","134","209593","0.0-99.0","sub-11_2","","100","0","spatialcue","<div class = centerbox><div class = ANT_text>+</div></div><div class = centerbox><div class = ANT_up><div class = ANT_text>*</p></div></div>","none","100","test","","","","","","","","",""
"-1","-1","poldrack-single-stim","135","209999","0.0-100.0","sub-11_2","","400","0","fixation","<div class = centerbox><div class = ANT_text>+</div></div>","none","400","test","","","","","","","","",""
"687","71","poldrack-single-stim","136","212106","0.0-101.0","sub-11_2","","2100","0","stim","<div class = centerbox><div class = ANT_text>+</div></div><div class = ANT_up><img class = ""ANT_img first"" src = /static/experiments/attention_network_task/images/right_arrow.png></img><img class = ANT_img src = /static/experiments/attention_network_task/images/right_arrow.png></img><img class = ANT_img src = /static/experiments/attention_network_task/images/right_arrow.png></img><img class = ANT_img src = /static/experiments/attention_network_task/images/right_arrow.png></img><img class = ANT_img src = /static/experiments/attention_network_task/images/right_arrow.png></img></div></div>","89,71","1700","test","true","71","","right","congruent","up","spatial","30",""
"-1","-1","poldrack-single-stim","137","212215","0.0-102.0","sub-11_2","","100","0","doublecue","<div class = centerbox><div class = ANT_text>+</div></div><div class = ANT_down><div class = ANT_text>*</div></div><div class = ANT_up><div class = ANT_text>*</div><div></div>","none","100","test","","","","","","","","",""
"-1","-1","poldrack-single-stim","138","212631","0.0-103.0","sub-11_2","","400","0","fixation","<div class = centerbox><div class = ANT_text>+</div></div>","none","400","test","","","","","","","","",""
"598","71","poldrack-single-stim","139","214742","0.0-104.0","sub-11_2","","2100.272","0","stim","<div class = centerbox><div class = ANT_text>+</div></div><div class = ANT_down><img class = ""ANT_img first"" src = /static/experiments/attention_network_task/images/right_arrow.png></img><img class = ANT_img src = /static/experiments/attention_network_task/images/right_arrow.png></img><img class = ANT_img src = /static/experiments/attention_network_task/images/right_arrow.png></img><img class = ANT_img src = /static/experiments/attention_network_task/images/right_arrow.png></img><img class = ANT_img src = /static/experiments/attention_network_task/images/right_arrow.png></img></div></div>","89,71","1700","test","true","71","","right","congruent","down","double","31",""
"-1","-1","poldrack-single-stim","140","214848","0.0-105.0","sub-11_2","","100","0","spatialcue","<div class = centerbox><div class = ANT_text>+</div></div><div class = centerbox><div class = ANT_up><div class = ANT_text>*</p></div></div>","none","100","test","","","","","","","","",""
"-1","-1","poldrack-single-stim","141","215250","0.0-106.0","sub-11_2","","400","0","fixation","<div class = centerbox><div class = ANT_text>+</div></div>","none","400","test","","","","","","","","",""
"748","71","poldrack-single-stim","142","217375","0.0-107.0","sub-11_2","","2100","0","stim","<div class = centerbox><div class = ANT_text>+</div></div><div class = ANT_up><img class = ""ANT_img first"" src = /static/experiments/attention_network_task/images/left_arrow.png></img><img class = ANT_img src = /static/experiments/attention_network_task/images/left_arrow.png></img><img class = ANT_img src = /static/experiments/attention_network_task/images/right_arrow.png></img><img class = ANT_img src = /static/experiments/attention_network_task/images/left_arrow.png></img><img class = ANT_img src = /static/experiments/attention_network_task/images/left_arrow.png></img></div></div>","89,71","1700","test","true","71","","right","incongruent","up","spatial","32",""
"-1","-1","poldrack-single-stim","143","217492","0.0-108.0","sub-11_2","","100","0","spatialcue","<div class = centerbox><div class = ANT_text>+</div></div><div class = centerbox><div class = ANT_up><div class = ANT_text>*</p></div></div>","none","100","test","","","","","","","","",""
"-1","-1","poldrack-single-stim","144","217907","0.0-109.0","sub-11_2","","400","0","fixation","<div class = centerbox><div class = ANT_text>+</div></div>","none","400","test","","","","","","","","",""
"536","89","poldrack-single-stim","145","220016","0.0-110.0","sub-11_2","","2100","0","stim","<div class = centerbox><div class = ANT_text>+</div></div><div class = ANT_up><img class = ""ANT_img first"" src = /static/experiments/attention_network_task/images/right_arrow.png></img><img class = ANT_img src = /static/experiments/attention_network_task/images/right_arrow.png></img><img class = ANT_img src = /static/experiments/attention_network_task/images/left_arrow.png></img><img class = ANT_img src = /static/experiments/attention_network_task/images/right_arrow.png></img><img class = ANT_img src = /static/experiments/attention_network_task/images/right_arrow.png></img></div></div>","89,71","1700","test","true","89","","left","incongruent","up","spatial","33",""
"-1","-1","poldrack-single-stim","146","220124","0.0-111.0","sub-11_2","","100","0","spatialcue","<div class = centerbox><div class = ANT_text>+</div></div><div class = centerbox><div class = ANT_up><div class = ANT_text>*</p></div></div>","none","100","test","","","","","","","","",""
"-1","-1","poldrack-single-stim","147","220526","0.0-112.0","sub-11_2","","400","0","fixation","<div class = centerbox><div class = ANT_text>+</div></div>","none","400","test","","","","","","","","",""
"445","71","poldrack-single-stim","148","222641","0.0-113.0","sub-11_2","","2100.136","0","stim","<div class = centerbox><div class = ANT_text>+</div></div><div class = ANT_up><img class = ""ANT_img first"" src = /static/experiments/attention_network_task/images/right_arrow.png></img><img class = ANT_img src = /static/experiments/attention_network_task/images/right_arrow.png></img><img class = ANT_img src = /static/experiments/attention_network_task/images/right_arrow.png></img><img class = ANT_img src = /static/experiments/attention_network_task/images/right_arrow.png></img><img class = ANT_img src = /static/experiments/attention_network_task/images/right_arrow.png></img></div></div>","89,71","1700","test","true","71","","right","congruent","up","spatial","34",""
"-1","-1","poldrack-single-stim","149","222749","0.0-114.0","sub-11_2","","100","0","spatialcue","<div class = centerbox><div class = ANT_text>+</div></div><div class = centerbox><div class = ANT_up><div class = ANT_text>*</p></div></div>","none","100","test","","","","","","","","",""
"-1","-1","poldrack-single-stim","150","223164","0.0-115.0","sub-11_2","","400","0","fixation","<div class = centerbox><div class = ANT_text>+</div></div>","none","400","test","","","","","","","","",""
"491","71","poldrack-single-stim","151","225274","0.0-116.0","sub-11_2","","2100.272","0","stim","<div class = centerbox><div class = ANT_text>+</div></div><div class = ANT_up><img class = ""ANT_img first"" src = /static/experiments/attention_network_task/images/right_arrow.png></img><img class = ANT_img src = /static/experiments/attention_network_task/images/right_arrow.png></img><img class = ANT_img src = /static/experiments/attention_network_task/images/right_arrow.png></img><img class = ANT_img src = /static/experiments/attention_network_task/images/right_arrow.png></img><img class = ANT_img src = /static/experiments/attention_network_task/images/right_arrow.png></img></div></div>","89,71","1700","test","true","71","","right","congruent","up","spatial","35",""
"-1","-1","poldrack-single-stim","152","225382","0.0-117.0","sub-11_2","","100","0","doublecue","<div class = centerbox><div class = ANT_text>+</div></div><div class = ANT_down><div class = ANT_text>*</div></div><div class = ANT_up><div class = ANT_text>*</div><div></div>","none","100","test","","","","","","","","",""
"-1","-1","poldrack-single-stim","153","225784","0.0-118.0","sub-11_2","","400","0","fixation","<div class = centerbox><div class = ANT_text>+</div></div>","none","400","test","","","","","","","","",""
"601","89","poldrack-single-stim","154","227892","0.0-119.0","sub-11_2","","2100.408","0","stim","<div class = centerbox><div class = ANT_text>+</div></div><div class = ANT_up><img class = ""ANT_img first"" src = /static/experiments/attention_network_task/images/right_arrow.png></img><img class = ANT_img src = /static/experiments/attention_network_task/images/right_arrow.png></img><img class = ANT_img src = /static/experiments/attention_network_task/images/left_arrow.png></img><img class = ANT_img src = /static/experiments/attention_network_task/images/right_arrow.png></img><img class = ANT_img src = /static/experiments/attention_network_task/images/right_arrow.png></img></div></div>","89,71","1700","test","true","89","","left","incongruent","up","double","36",""
"-1","-1","poldrack-single-stim","155","228000","0.0-120.0","sub-11_2","","100","0","doublecue","<div class = centerbox><div class = ANT_text>+</div></div><div class = ANT_down><div class = ANT_text>*</div></div><div class = ANT_up><div class = ANT_text>*</div><div></div>","none","100","test","","","","","","","","",""
"-1","-1","poldrack-single-stim","156","228415","0.0-121.0","sub-11_2","","400","0","fixation","<div class = centerbox><div class = ANT_text>+</div></div>","none","400","test","","","","","","","","",""
"609","71","poldrack-single-stim","157","230525","0.0-122.0","sub-11_2","","2100","0","stim","<div class = centerbox><div class = ANT_text>+</div></div><div class = ANT_up><img class = ""ANT_img first"" src = /static/experiments/attention_network_task/images/right_arrow.png></img><img class = ANT_img src = /static/experiments/attention_network_task/images/right_arrow.png></img><img class = ANT_img src = /static/experiments/attention_network_task/images/right_arrow.png></img><img class = ANT_img src = /static/experiments/attention_network_task/images/right_arrow.png></img><img class = ANT_img src = /static/experiments/attention_network_task/images/right_arrow.png></img></div></div>","89,71","1700","test","true","71","","right","congruent","up","double","37",""
"-1","-1","poldrack-single-stim","158","230634","0.0-123.0","sub-11_2","","100","0","doublecue","<div class = centerbox><div class = ANT_text>+</div></div><div class = ANT_down><div class = ANT_text>*</div></div><div class = ANT_up><div class = ANT_text>*</div><div></div>","none","100","test","","","","","","","","",""
"-1","-1","poldrack-single-stim","159","231050","0.0-124.0","sub-11_2","","400","0","fixation","<div class = centerbox><div class = ANT_text>+</div></div>","none","400","test","","","","","","","","",""
"669","89","poldrack-single-stim","160","233160","0.0-125.0","sub-11_2","","2100.136","0","stim","<div class = centerbox><div class = ANT_text>+</div></div><div class = ANT_down><img class = ""ANT_img first"" src = /static/experiments/attention_network_task/images/left_arrow.png></img><img class = ANT_img src = /static/experiments/attention_network_task/images/left_arrow.png></img><img class = ANT_img src = /static/experiments/attention_network_task/images/left_arrow.png></img><img class = ANT_img src = /static/experiments/attention_network_task/images/left_arrow.png></img><img class = ANT_img src = /static/experiments/attention_network_task/images/left_arrow.png></img></div></div>","89,71","1700","test","true","89","","left","congruent","down","double","38",""
"-1","-1","poldrack-single-stim","161","233268","0.0-126.0","sub-11_2","","100","0","spatialcue","<div class = centerbox><div class = ANT_text>+</div></div><div class = centerbox><div class = ANT_up><div class = ANT_text>*</p></div></div>","none","100","test","","","","","","","","",""
"-1","-1","poldrack-single-stim","162","233684","0.0-127.0","sub-11_2","","400","0","fixation","<div class = centerbox><div class = ANT_text>+</div></div>","none","400","test","","","","","","","","",""
"552","89","poldrack-single-stim","163","235787","0.0-128.0","sub-11_2","","2100.136","0","stim","<div class = centerbox><div class = ANT_text>+</div></div><div class = ANT_up><img class = ""ANT_img first"" src = /static/experiments/attention_network_task/images/left_arrow.png></img><img class = ANT_img src = /static/experiments/attention_network_task/images/left_arrow.png></img><img class = ANT_img src = /static/experiments/attention_network_task/images/left_arrow.png></img><img class = ANT_img src = /static/experiments/attention_network_task/images/left_arrow.png></img><img class = ANT_img src = /static/experiments/attention_network_task/images/left_arrow.png></img></div></div>","89,71","1700","test","true","89","","left","congruent","up","spatial","39",""
"-1","-1","poldrack-single-stim","164","235894","0.0-129.0","sub-11_2","","100","0","doublecue","<div class = centerbox><div class = ANT_text>+</div></div><div class = ANT_down><div class = ANT_text>*</div></div><div class = ANT_up><div class = ANT_text>*</div><div></div>","none","100","test","","","","","","","","",""
"-1","-1","poldrack-single-stim","165","236314","0.0-130.0","sub-11_2","","400","0","fixation","<div class = centerbox><div class = ANT_text>+</div></div>","none","400","test","","","","","","","","",""
"558","71","poldrack-single-stim","166","238425","0.0-131.0","sub-11_2","","2100","0","stim","<div class = centerbox><div class = ANT_text>+</div></div><div class = ANT_down><img class = ""ANT_img first"" src = /static/experiments/attention_network_task/images/right_arrow.png></img><img class = ANT_img src = /static/experiments/attention_network_task/images/right_arrow.png></img><img class = ANT_img src = /static/experiments/attention_network_task/images/right_arrow.png></img><img class = ANT_img src = /static/experiments/attention_network_task/images/right_arrow.png></img><img class = ANT_img src = /static/experiments/attention_network_task/images/right_arrow.png></img></div></div>","89,71","1700","test","true","71","","right","congruent","down","double","40",""
"-1","-1","poldrack-single-stim","167","238532","0.0-132.0","sub-11_2","","100","0","doublecue","<div class = centerbox><div class = ANT_text>+</div></div><div class = ANT_down><div class = ANT_text>*</div></div><div class = ANT_up><div class = ANT_text>*</div><div></div>","none","100","test","","","","","","","","",""
"-1","-1","poldrack-single-stim","168","238939","0.0-133.0","sub-11_2","","400","0","fixation","<div class = centerbox><div class = ANT_text>+</div></div>","none","400","test","","","","","","","","",""
"563","71","poldrack-single-stim","169","241047","0.0-134.0","sub-11_2","","2100.408","0","stim","<div class = centerbox><div class = ANT_text>+</div></div><div class = ANT_down><img class = ""ANT_img first"" src = /static/experiments/attention_network_task/images/left_arrow.png></img><img class = ANT_img src = /static/experiments/attention_network_task/images/left_arrow.png></img><img class = ANT_img src = /static/experiments/attention_network_task/images/right_arrow.png></img><img class = ANT_img src = /static/experiments/attention_network_task/images/left_arrow.png></img><img class = ANT_img src = /static/experiments/attention_network_task/images/left_arrow.png></img></div></div>","89,71","1700","test","true","71","","right","incongruent","down","double","41",""
"-1","-1","poldrack-single-stim","170","241156","0.0-135.0","sub-11_2","","100","0","spatialcue","<div class = centerbox><div class = ANT_text>+</div></div><div class = centerbox><div class = ANT_down><div class = ANT_text>*</p></div></div>","none","100","test","","","","","","","","",""
"-1","-1","poldrack-single-stim","171","241570","0.0-136.0","sub-11_2","","400","0","fixation","<div class = centerbox><div class = ANT_text>+</div></div>","none","400","test","","","","","","","","",""
"420","71","poldrack-single-stim","172","243686","0.0-137.0","sub-11_2","","2100.544","0","stim","<div class = centerbox><div class = ANT_text>+</div></div><div class = ANT_down><img class = ""ANT_img first"" src = /static/experiments/attention_network_task/images/right_arrow.png></img><img class = ANT_img src = /static/experiments/attention_network_task/images/right_arrow.png></img><img class = ANT_img src = /static/experiments/attention_network_task/images/right_arrow.png></img><img class = ANT_img src = /static/experiments/attention_network_task/images/right_arrow.png></img><img class = ANT_img src = /static/experiments/attention_network_task/images/right_arrow.png></img></div></div>","89,71","1700","test","true","71","","right","congruent","down","spatial","42",""
"-1","-1","poldrack-single-stim","173","243794","0.0-138.0","sub-11_2","","100","0","spatialcue","<div class = centerbox><div class = ANT_text>+</div></div><div class = centerbox><div class = ANT_down><div class = ANT_text>*</p></div></div>","none","100","test","","","","","","","","",""
"-1","-1","poldrack-single-stim","174","244209","0.0-139.0","sub-11_2","","400","0","fixation","<div class = centerbox><div class = ANT_text>+</div></div>","none","400","test","","","","","","","","",""
"446","71","poldrack-single-stim","175","246321","0.0-140.0","sub-11_2","","2100.136","0","stim","<div class = centerbox><div class = ANT_text>+</div></div><div class = ANT_down><img class = ""ANT_img first"" src = /static/experiments/attention_network_task/images/right_arrow.png></img><img class = ANT_img src = /static/experiments/attention_network_task/images/right_arrow.png></img><img class = ANT_img src = /static/experiments/attention_network_task/images/right_arrow.png></img><img class = ANT_img src = /static/experiments/attention_network_task/images/right_arrow.png></img><img class = ANT_img src = /static/experiments/attention_network_task/images/right_arrow.png></img></div></div>","89,71","1700","test","true","71","","right","congruent","down","spatial","43",""
"-1","-1","poldrack-single-stim","176","246428","0.0-141.0","sub-11_2","","100","0","spatialcue","<div class = centerbox><div class = ANT_text>+</div></div><div class = centerbox><div class = ANT_up><div class = ANT_text>*</p></div></div>","none","100","test","","","","","","","","",""
"-1","-1","poldrack-single-stim","177","246845","0.0-142.0","sub-11_2","","400","0","fixation","<div class = centerbox><div class = ANT_text>+</div></div>","none","400","test","","","","","","","","",""
"888","89","poldrack-single-stim","178","248961","0.0-143.0","sub-11_2","","2100.136","0","stim","<div class = centerbox><div class = ANT_text>+</div></div><div class = ANT_up><img class = ""ANT_img first"" src = /static/experiments/attention_network_task/images/left_arrow.png></img><img class = ANT_img src = /static/experiments/attention_network_task/images/left_arrow.png></img><img class = ANT_img src = /static/experiments/attention_network_task/images/left_arrow.png></img><img class = ANT_img src = /static/experiments/attention_network_task/images/left_arrow.png></img><img class = ANT_img src = /static/experiments/attention_network_task/images/left_arrow.png></img></div></div>","89,71","1700","test","true","89","","left","congruent","up","spatial","44",""
"-1","-1","poldrack-single-stim","179","249069","0.0-144.0","sub-11_2","","100","0","spatialcue","<div class = centerbox><div class = ANT_text>+</div></div><div class = centerbox><div class = ANT_down><div class = ANT_text>*</p></div></div>","none","100","test","","","","","","","","",""
"-1","-1","poldrack-single-stim","180","249486","0.0-145.0","sub-11_2","","400","0","fixation","<div class = centerbox><div class = ANT_text>+</div></div>","none","400","test","","","","","","","","",""
"641","71","poldrack-single-stim","181","251597","0.0-146.0","sub-11_2","","2100","0","stim","<div class = centerbox><div class = ANT_text>+</div></div><div class = ANT_down><img class = ""ANT_img first"" src = /static/experiments/attention_network_task/images/left_arrow.png></img><img class = ANT_img src = /static/experiments/attention_network_task/images/left_arrow.png></img><img class = ANT_img src = /static/experiments/attention_network_task/images/right_arrow.png></img><img class = ANT_img src = /static/experiments/attention_network_task/images/left_arrow.png></img><img class = ANT_img src = /static/experiments/attention_network_task/images/left_arrow.png></img></div></div>","89,71","1700","test","true","71","","right","incongruent","down","spatial","45",""
"-1","-1","poldrack-single-stim","182","251704","0.0-147.0","sub-11_2","","100","0","doublecue","<div class = centerbox><div class = ANT_text>+</div></div><div class = ANT_down><div class = ANT_text>*</div></div><div class = ANT_up><div class = ANT_text>*</div><div></div>","none","100","test","","","","","","","","",""
"-1","-1","poldrack-single-stim","183","252120","0.0-148.0","sub-11_2","","400","0","fixation","<div class = centerbox><div class = ANT_text>+</div></div>","none","400","test","","","","","","","","",""
"589","89","poldrack-single-stim","184","254222","0.0-149.0","sub-11_2","","2100","0","stim","<div class = centerbox><div class = ANT_text>+</div></div><div class = ANT_down><img class = ""ANT_img first"" src = /static/experiments/attention_network_task/images/left_arrow.png></img><img class = ANT_img src = /static/experiments/attention_network_task/images/left_arrow.png></img><img class = ANT_img src = /static/experiments/attention_network_task/images/left_arrow.png></img><img class = ANT_img src = /static/experiments/attention_network_task/images/left_arrow.png></img><img class = ANT_img src = /static/experiments/attention_network_task/images/left_arrow.png></img></div></div>","89,71","1700","test","true","89","","left","congruent","down","double","46",""
"-1","-1","poldrack-single-stim","185","254335","0.0-150.0","sub-11_2","","100","0","doublecue","<div class = centerbox><div class = ANT_text>+</div></div><div class = ANT_down><div class = ANT_text>*</div></div><div class = ANT_up><div class = ANT_text>*</div><div></div>","none","100","test","","","","","","","","",""
"-1","-1","poldrack-single-stim","186","254751","0.0-151.0","sub-11_2","","400","0","fixation","<div class = centerbox><div class = ANT_text>+</div></div>","none","400","test","","","","","","","","",""
"482","89","poldrack-single-stim","187","256864","0.0-152.0","sub-11_2","","2100.136","0","stim","<div class = centerbox><div class = ANT_text>+</div></div><div class = ANT_down><img class = ""ANT_img first"" src = /static/experiments/attention_network_task/images/left_arrow.png></img><img class = ANT_img src = /static/experiments/attention_network_task/images/left_arrow.png></img><img class = ANT_img src = /static/experiments/attention_network_task/images/left_arrow.png></img><img class = ANT_img src = /static/experiments/attention_network_task/images/left_arrow.png></img><img class = ANT_img src = /static/experiments/attention_network_task/images/left_arrow.png></img></div></div>","89,71","1700","test","true","89","","left","congruent","down","double","47",""
"-1","-1","poldrack-single-stim","188","256972","0.0-153.0","sub-11_2","","100","0","doublecue","<div class = centerbox><div class = ANT_text>+</div></div><div class = ANT_down><div class = ANT_text>*</div></div><div class = ANT_up><div class = ANT_text>*</div><div></div>","none","100","test","","","","","","","","",""
"-1","-1","poldrack-single-stim","189","257387","0.0-154.0","sub-11_2","","400","0","fixation","<div class = centerbox><div class = ANT_text>+</div></div>","none","400","test","","","","","","","","",""
"631","71","poldrack-single-stim","190","259498","0.0-155.0","sub-11_2","","2100","0","stim","<div class = centerbox><div class = ANT_text>+</div></div><div class = ANT_down><img class = ""ANT_img first"" src = /static/experiments/attention_network_task/images/right_arrow.png></img><img class = ANT_img src = /static/experiments/attention_network_task/images/right_arrow.png></img><img class = ANT_img src = /static/experiments/attention_network_task/images/right_arrow.png></img><img class = ANT_img src = /static/experiments/attention_network_task/images/right_arrow.png></img><img class = ANT_img src = /static/experiments/attention_network_task/images/right_arrow.png></img></div></div>","89,71","1700","test","true","71","","right","congruent","down","double","48",""
"-1","-1","poldrack-single-stim","191","259606","0.0-156.0","sub-11_2","","100","0","doublecue","<div class = centerbox><div class = ANT_text>+</div></div><div class = ANT_down><div class = ANT_text>*</div></div><div class = ANT_up><div class = ANT_text>*</div><div></div>","none","100","test","","","","","","","","",""
"-1","-1","poldrack-single-stim","192","260021","0.0-157.0","sub-11_2","","400","0","fixation","<div class = centerbox><div class = ANT_text>+</div></div>","none","400","test","","","","","","","","",""
"532","89","poldrack-single-stim","193","262134","0.0-158.0","sub-11_2","","2100.136","0","stim","<div class = centerbox><div class = ANT_text>+</div></div><div class = ANT_up><img class = ""ANT_img first"" src = /static/experiments/attention_network_task/images/left_arrow.png></img><img class = ANT_img src = /static/experiments/attention_network_task/images/left_arrow.png></img><img class = ANT_img src = /static/experiments/attention_network_task/images/left_arrow.png></img><img class = ANT_img src = /static/experiments/attention_network_task/images/left_arrow.png></img><img class = ANT_img src = /static/experiments/attention_network_task/images/left_arrow.png></img></div></div>","89,71","1700","test","true","89","","left","congruent","up","double","49",""
"-1","-1","poldrack-single-stim","194","262241","0.0-159.0","sub-11_2","","100","0","doublecue","<div class = centerbox><div class = ANT_text>+</div></div><div class = ANT_down><div class = ANT_text>*</div></div><div class = ANT_up><div class = ANT_text>*</div><div></div>","none","100","test","","","","","","","","",""
"-1","-1","poldrack-single-stim","195","262657","0.0-160.0","sub-11_2","","400","0","fixation","<div class = centerbox><div class = ANT_text>+</div></div>","none","400","test","","","","","","","","",""
"523","89","poldrack-single-stim","196","264770","0.0-161.0","sub-11_2","","2100","0","stim","<div class = centerbox><div class = ANT_text>+</div></div><div class = ANT_up><img class = ""ANT_img first"" src = /static/experiments/attention_network_task/images/left_arrow.png></img><img class = ANT_img src = /static/experiments/attention_network_task/images/left_arrow.png></img><img class = ANT_img src = /static/experiments/attention_network_task/images/left_arrow.png></img><img class = ANT_img src = /static/experiments/attention_network_task/images/left_arrow.png></img><img class = ANT_img src = /static/experiments/attention_network_task/images/left_arrow.png></img></div></div>","89,71","1700","test","true","89","","left","congruent","up","double","50",""
"-1","-1","poldrack-single-stim","197","264878","0.0-162.0","sub-11_2","","100","0","spatialcue","<div class = centerbox><div class = ANT_text>+</div></div><div class = centerbox><div class = ANT_down><div class = ANT_text>*</p></div></div>","none","100","test","","","","","","","","",""
"-1","-1","poldrack-single-stim","198","265280","0.0-163.0","sub-11_2","","400","0","fixation","<div class = centerbox><div class = ANT_text>+</div></div>","none","400","test","","","","","","","","",""
"633","71","poldrack-single-stim","199","267393","0.0-164.0","sub-11_2","","2100.408","0","stim","<div class = centerbox><div class = ANT_text>+</div></div><div class = ANT_down><img class = ""ANT_img first"" src = /static/experiments/attention_network_task/images/right_arrow.png></img><img class = ANT_img src = /static/experiments/attention_network_task/images/right_arrow.png></img><img class = ANT_img src = /static/experiments/attention_network_task/images/right_arrow.png></img><img class = ANT_img src = /static/experiments/attention_network_task/images/right_arrow.png></img><img class = ANT_img src = /static/experiments/attention_network_task/images/right_arrow.png></img></div></div>","89,71","1700","test","true","71","","right","congruent","down","spatial","51",""
"-1","-1","poldrack-single-stim","200","267500","0.0-165.0","sub-11_2","","100","0","spatialcue","<div class = centerbox><div class = ANT_text>+</div></div><div class = centerbox><div class = ANT_down><div class = ANT_text>*</p></div></div>","none","100","test","","","","","","","","",""
"-1","-1","poldrack-single-stim","201","267917","0.0-166.0","sub-11_2","","400","0","fixation","<div class = centerbox><div class = ANT_text>+</div></div>","none","400","test","","","","","","","","",""
"491","71","poldrack-single-stim","202","270029","0.0-167.0","sub-11_2","","2100","0","stim","<div class = centerbox><div class = ANT_text>+</div></div><div class = ANT_down><img class = ""ANT_img first"" src = /static/experiments/attention_network_task/images/left_arrow.png></img><img class = ANT_img src = /static/experiments/attention_network_task/images/left_arrow.png></img><img class = ANT_img src = /static/experiments/attention_network_task/images/right_arrow.png></img><img class = ANT_img src = /static/experiments/attention_network_task/images/left_arrow.png></img><img class = ANT_img src = /static/experiments/attention_network_task/images/left_arrow.png></img></div></div>","89,71","1700","test","true","71","","right","incongruent","down","spatial","52",""
"-1","-1","poldrack-single-stim","203","270137","0.0-168.0","sub-11_2","","100","0","doublecue","<div class = centerbox><div class = ANT_text>+</div></div><div class = ANT_down><div class = ANT_text>*</div></div><div class = ANT_up><div class = ANT_text>*</div><div></div>","none","100","test","","","","","","","","",""
"-1","-1","poldrack-single-stim","204","270553","0.0-169.0","sub-11_2","","400","0","fixation","<div class = centerbox><div class = ANT_text>+</div></div>","none","400","test","","","","","","","","",""
"862","71","poldrack-single-stim","205","272655","0.0-170.0","sub-11_2","","2100.816","0","stim","<div class = centerbox><div class = ANT_text>+</div></div><div class = ANT_down><img class = ""ANT_img first"" src = /static/experiments/attention_network_task/images/left_arrow.png></img><img class = ANT_img src = /static/experiments/attention_network_task/images/left_arrow.png></img><img class = ANT_img src = /static/experiments/attention_network_task/images/right_arrow.png></img><img class = ANT_img src = /static/experiments/attention_network_task/images/left_arrow.png></img><img class = ANT_img src = /static/experiments/attention_network_task/images/left_arrow.png></img></div></div>","89,71","1700","test","true","71","","right","incongruent","down","double","53",""
"-1","-1","poldrack-single-stim","206","272763","0.0-171.0","sub-11_2","","100","0","spatialcue","<div class = centerbox><div class = ANT_text>+</div></div><div class = centerbox><div class = ANT_up><div class = ANT_text>*</p></div></div>","none","100","test","","","","","","","","",""
"-1","-1","poldrack-single-stim","207","273179","0.0-172.0","sub-11_2","","400","0","fixation","<div class = centerbox><div class = ANT_text>+</div></div>","none","400","test","","","","","","","","",""
"703","71","poldrack-single-stim","208","275287","0.0-173.0","sub-11_2","","2100.68","0","stim","<div class = centerbox><div class = ANT_text>+</div></div><div class = ANT_up><img class = ""ANT_img first"" src = /static/experiments/attention_network_task/images/right_arrow.png></img><img class = ANT_img src = /static/experiments/attention_network_task/images/right_arrow.png></img><img class = ANT_img src = /static/experiments/attention_network_task/images/right_arrow.png></img><img class = ANT_img src = /static/experiments/attention_network_task/images/right_arrow.png></img><img class = ANT_img src = /static/experiments/attention_network_task/images/right_arrow.png></img></div></div>","89,71","1700","test","true","71","","right","congruent","up","spatial","54",""
"-1","-1","poldrack-single-stim","209","275396","0.0-174.0","sub-11_2","","100","0","spatialcue","<div class = centerbox><div class = ANT_text>+</div></div><div class = centerbox><div class = ANT_up><div class = ANT_text>*</p></div></div>","none","100","test","","","","","","","","",""
"-1","-1","poldrack-single-stim","210","275797","0.0-175.0","sub-11_2","","400","0","fixation","<div class = centerbox><div class = ANT_text>+</div></div>","none","400","test","","","","","","","","",""
"478","89","poldrack-single-stim","211","277912","0.0-176.0","sub-11_2","","2100","0","stim","<div class = centerbox><div class = ANT_text>+</div></div><div class = ANT_up><img class = ""ANT_img first"" src = /static/experiments/attention_network_task/images/left_arrow.png></img><img class = ANT_img src = /static/experiments/attention_network_task/images/left_arrow.png></img><img class = ANT_img src = /static/experiments/attention_network_task/images/left_arrow.png></img><img class = ANT_img src = /static/experiments/attention_network_task/images/left_arrow.png></img><img class = ANT_img src = /static/experiments/attention_network_task/images/left_arrow.png></img></div></div>","89,71","1700","test","true","89","","left","congruent","up","spatial","55",""
"-1","-1","poldrack-single-stim","212","278020","0.0-177.0","sub-11_2","","100","0","spatialcue","<div class = centerbox><div class = ANT_text>+</div></div><div class = centerbox><div class = ANT_down><div class = ANT_text>*</p></div></div>","none","100","test","","","","","","","","",""
"-1","-1","poldrack-single-stim","213","278437","0.0-178.0","sub-11_2","","400","0","fixation","<div class = centerbox><div class = ANT_text>+</div></div>","none","400","test","","","","","","","","",""
"373","71","poldrack-single-stim","214","280544","0.0-179.0","sub-11_2","","2100.136","0","stim","<div class = centerbox><div class = ANT_text>+</div></div><div class = ANT_down><img class = ""ANT_img first"" src = /static/experiments/attention_network_task/images/right_arrow.png></img><img class = ANT_img src = /static/experiments/attention_network_task/images/right_arrow.png></img><img class = ANT_img src = /static/experiments/attention_network_task/images/right_arrow.png></img><img class = ANT_img src = /static/experiments/attention_network_task/images/right_arrow.png></img><img class = ANT_img src = /static/experiments/attention_network_task/images/right_arrow.png></img></div></div>","89,71","1700","test","true","71","","right","congruent","down","spatial","56",""
"-1","-1","poldrack-single-stim","215","280651","0.0-180.0","sub-11_2","","100","0","doublecue","<div class = centerbox><div class = ANT_text>+</div></div><div class = ANT_down><div class = ANT_text>*</div></div><div class = ANT_up><div class = ANT_text>*</div><div></div>","none","100","test","","","","","","","","",""
"-1","-1","poldrack-single-stim","216","281067","0.0-181.0","sub-11_2","","400","0","fixation","<div class = centerbox><div class = ANT_text>+</div></div>","none","400","test","","","","","","","","",""
"687","89","poldrack-single-stim","217","283180","0.0-182.0","sub-11_2","","2100.136","0","stim","<div class = centerbox><div class = ANT_text>+</div></div><div class = ANT_down><img class = ""ANT_img first"" src = /static/experiments/attention_network_task/images/right_arrow.png></img><img class = ANT_img src = /static/experiments/attention_network_task/images/right_arrow.png></img><img class = ANT_img src = /static/experiments/attention_network_task/images/left_arrow.png></img><img class = ANT_img src = /static/experiments/attention_network_task/images/right_arrow.png></img><img class = ANT_img src = /static/experiments/attention_network_task/images/right_arrow.png></img></div></div>","89,71","1700","test","true","89","","left","incongruent","down","double","57",""
"-1","-1","poldrack-single-stim","218","283287","0.0-183.0","sub-11_2","","100","0","doublecue","<div class = centerbox><div class = ANT_text>+</div></div><div class = ANT_down><div class = ANT_text>*</div></div><div class = ANT_up><div class = ANT_text>*</div><div></div>","none","100","test","","","","","","","","",""
"-1","-1","poldrack-single-stim","219","283703","0.0-184.0","sub-11_2","","400","0","fixation","<div class = centerbox><div class = ANT_text>+</div></div>","none","400","test","","","","","","","","",""
"556","71","poldrack-single-stim","220","285814","0.0-185.0","sub-11_2","","2100.136","0","stim","<div class = centerbox><div class = ANT_text>+</div></div><div class = ANT_up><img class = ""ANT_img first"" src = /static/experiments/attention_network_task/images/left_arrow.png></img><img class = ANT_img src = /static/experiments/attention_network_task/images/left_arrow.png></img><img class = ANT_img src = /static/experiments/attention_network_task/images/right_arrow.png></img><img class = ANT_img src = /static/experiments/attention_network_task/images/left_arrow.png></img><img class = ANT_img src = /static/experiments/attention_network_task/images/left_arrow.png></img></div></div>","89,71","1700","test","true","71","","right","incongruent","up","double","58",""
"-1","-1","poldrack-single-stim","221","285922","0.0-186.0","sub-11_2","","100","0","doublecue","<div class = centerbox><div class = ANT_text>+</div></div><div class = ANT_down><div class = ANT_text>*</div></div><div class = ANT_up><div class = ANT_text>*</div><div></div>","none","100","test","","","","","","","","",""
"-1","-1","poldrack-single-stim","222","286338","0.0-187.0","sub-11_2","","400","0","fixation","<div class = centerbox><div class = ANT_text>+</div></div>","none","400","test","","","","","","","","",""
"751","71","poldrack-single-stim","223","288447","0.0-188.0","sub-11_2","","2100","0","stim","<div class = centerbox><div class = ANT_text>+</div></div><div class = ANT_down><img class = ""ANT_img first"" src = /static/experiments/attention_network_task/images/left_arrow.png></img><img class = ANT_img src = /static/experiments/attention_network_task/images/left_arrow.png></img><img class = ANT_img src = /static/experiments/attention_network_task/images/right_arrow.png></img><img class = ANT_img src = /static/experiments/attention_network_task/images/left_arrow.png></img><img class = ANT_img src = /static/experiments/attention_network_task/images/left_arrow.png></img></div></div>","89,71","1700","test","true","71","","right","incongruent","down","double","59",""
"-1","-1","poldrack-single-stim","224","288555","0.0-189.0","sub-11_2","","100","0","spatialcue","<div class = centerbox><div class = ANT_text>+</div></div><div class = centerbox><div class = ANT_down><div class = ANT_text>*</p></div></div>","none","100","test","","","","","","","","",""
"-1","-1","poldrack-single-stim","225","288973","0.0-190.0","sub-11_2","","400","0","fixation","<div class = centerbox><div class = ANT_text>+</div></div>","none","400","test","","","","","","","","",""
"448","71","poldrack-single-stim","226","291084","0.0-191.0","sub-11_2","","2100.136","0","stim","<div class = centerbox><div class = ANT_text>+</div></div><div class = ANT_down><img class = ""ANT_img first"" src = /static/experiments/attention_network_task/images/left_arrow.png></img><img class = ANT_img src = /static/experiments/attention_network_task/images/left_arrow.png></img><img class = ANT_img src = /static/experiments/attention_network_task/images/right_arrow.png></img><img class = ANT_img src = /static/experiments/attention_network_task/images/left_arrow.png></img><img class = ANT_img src = /static/experiments/attention_network_task/images/left_arrow.png></img></div></div>","89,71","1700","test","true","71","","right","incongruent","down","spatial","60",""
"-1","-1","poldrack-single-stim","227","291191","0.0-192.0","sub-11_2","","100","0","spatialcue","<div class = centerbox><div class = ANT_text>+</div></div><div class = centerbox><div class = ANT_down><div class = ANT_text>*</p></div></div>","none","100","test","","","","","","","","",""
"-1","-1","poldrack-single-stim","228","291595","0.0-193.0","sub-11_2","","400","0","fixation","<div class = centerbox><div class = ANT_text>+</div></div>","none","400","test","","","","","","","","",""
"534","89","poldrack-single-stim","229","293706","0.0-194.0","sub-11_2","","2100.952","0","stim","<div class = centerbox><div class = ANT_text>+</div></div><div class = ANT_down><img class = ""ANT_img first"" src = /static/experiments/attention_network_task/images/right_arrow.png></img><img class = ANT_img src = /static/experiments/attention_network_task/images/right_arrow.png></img><img class = ANT_img src = /static/experiments/attention_network_task/images/left_arrow.png></img><img class = ANT_img src = /static/experiments/attention_network_task/images/right_arrow.png></img><img class = ANT_img src = /static/experiments/attention_network_task/images/right_arrow.png></img></div></div>","89,71","1700","test","true","89","","left","incongruent","down","spatial","61",""
"-1","-1","poldrack-single-stim","230","293813","0.0-195.0","sub-11_2","","100","0","doublecue","<div class = centerbox><div class = ANT_text>+</div></div><div class = ANT_down><div class = ANT_text>*</div></div><div class = ANT_up><div class = ANT_text>*</div><div></div>","none","100","test","","","","","","","","",""
"-1","-1","poldrack-single-stim","231","294228","0.0-196.0","sub-11_2","","400","0","fixation","<div class = centerbox><div class = ANT_text>+</div></div>","none","400","test","","","","","","","","",""
"747","71","poldrack-single-stim","232","296337","0.0-197.0","sub-11_2","","2100.136","0","stim","<div class = centerbox><div class = ANT_text>+</div></div><div class = ANT_up><img class = ""ANT_img first"" src = /static/experiments/attention_network_task/images/left_arrow.png></img><img class = ANT_img src = /static/experiments/attention_network_task/images/left_arrow.png></img><img class = ANT_img src = /static/experiments/attention_network_task/images/right_arrow.png></img><img class = ANT_img src = /static/experiments/attention_network_task/images/left_arrow.png></img><img class = ANT_img src = /static/experiments/attention_network_task/images/left_arrow.png></img></div></div>","89,71","1700","test","true","71","","right","incongruent","up","double","62",""
"-1","-1","poldrack-single-stim","233","296445","0.0-198.0","sub-11_2","","100","0","doublecue","<div class = centerbox><div class = ANT_text>+</div></div><div class = ANT_down><div class = ANT_text>*</div></div><div class = ANT_up><div class = ANT_text>*</div><div></div>","none","100","test","","","","","","","","",""
"-1","-1","poldrack-single-stim","234","296852","0.0-199.0","sub-11_2","","400","0","fixation","<div class = centerbox><div class = ANT_text>+</div></div>","none","400","test","","","","","","","","",""
"653","89","poldrack-single-stim","235","298963","0.0-200.0","sub-11_2","","2100.408","0","stim","<div class = centerbox><div class = ANT_text>+</div></div><div class = ANT_up><img class = ""ANT_img first"" src = /static/experiments/attention_network_task/images/right_arrow.png></img><img class = ANT_img src = /static/experiments/attention_network_task/images/right_arrow.png></img><img class = ANT_img src = /static/experiments/attention_network_task/images/left_arrow.png></img><img class = ANT_img src = /static/experiments/attention_network_task/images/right_arrow.png></img><img class = ANT_img src = /static/experiments/attention_network_task/images/right_arrow.png></img></div></div>","89,71","1700","test","true","89","","left","incongruent","up","double","63",""
"-1","-1","poldrack-single-stim","236","306467","0.0-201.0","sub-11_2","","7500","1000","rest_block","<div class = centerbox><div class = center-text>+</div></div>","none","7500","","","","","","","","","",""
"-1","-1","poldrack-single-stim","237","308981","0.0-202.0","sub-11_2","","1500","500","test_start_block","<div class = centerbox><div class = center-text>Preparez-vous!</div></div>","none","1500","","","","","","","","","",""
