"rt","key_press","trial_type","trial_index","time_elapsed","internal_node_id","subject","text","block_duration","timing_post_trial","trial_id","responses","stimulus","possible_responses","stim_duration","exp_stage","condition","trial_num","correct_response","correct","exp_id"
"5667","13","text","0","5671","0.0-0.0","sub-14_ses-03_1","","","","","","","","","","","","","",""
"3537","89","poldrack-text","1","10220","0.0-1.0","sub-14_ses-03_1","<div class = centerbox><div style = 'font-size: 50px' class = center-text>Veuillez appuyer avec votre index</p></div>","3537","500","fmri_response_test","","","","","","","","","",""
"352","71","poldrack-text","2","11084","0.0-2.0","sub-14_ses-03_1","<div class = centerbox><div style = 'font-size: 50px' class = center-text>Veuillez appuyer avec votre majeur</p></div>","352","500","fmri_response_test","","","","","","","","","",""
"5855","","survey-text","3","17463","0.0-3.0","sub-14_ses-03_1","","","","task_setup","{""Q0"":""2"",""Q1"":""6""}","","","","","","","","",""
"1762","32","poldrack-single-stim","4","20244","0.0-4.0","sub-14_ses-03_1","","1762","500","instructions","","<div class = centerbox><p style = ""font-size:40px"" class = center-block-text>Paire cible (appuyez sur l'index):</p><p class = center-block-text><img src = ""/static/experiments/dot_pattern_expectancy/images/cue2.png"" ></img>&nbsp&nbsp&nbsp...suivi par...&nbsp&nbsp&nbsp<img src = ""/static/experiments/dot_pattern_expectancy/images/probe6.png"" ></img><br></br></p><p style = ""font-size:40px"" class = center-block-text>Sinon appuyez sur le majeur</div>","32","1762","","","","","",""
"-1","-1","poldrack-single-stim","5","21273","0.0-5.0-0.0","sub-14_ses-03_1","","500","0","cue","","<div class = centerbox><div class = img-container><img src = ""/static/experiments/dot_pattern_expectancy/images/cue3.png""</img></div></div>","none","500","practice","BX","0","","",""
"-1","-1","poldrack-single-stim","6","23279","0.0-5.0-1.0","sub-14_ses-03_1","","2000","0","fixation","","<div class = centerbox><div class = fixation>+</div></div>","none","2000","practice","","","","",""
"453","71","poldrack-single-stim","7","24789","0.0-5.0-2.0","sub-14_ses-03_1","","1500","0","probe","","<div class = centerbox><div class = img-container><img src = ""/static/experiments/dot_pattern_expectancy/images/probe6.png""</img></div></div>","89,71","500","practice","BX","0","71","true",""
"-1","-1","poldrack-single-stim","8","25308","0.0-5.0-3.0","sub-14_ses-03_1","","500","0","feedback","","<div class = centerbox><div style=""color:#4FE829""; class = center-text>Correct!</div></div>","none","500","practice","","1","","",""
"-1","-1","poldrack-single-stim","9","25830","0.0-5.0-4.0","sub-14_ses-03_1","","500","0","cue","","<div class = centerbox><div class = img-container><img src = ""/static/experiments/dot_pattern_expectancy/images/cue2.png""</img></div></div>","none","500","practice","AX","1","","",""
"-1","-1","poldrack-single-stim","10","27848","0.0-5.0-5.0","sub-14_ses-03_1","","2000","0","fixation","","<div class = centerbox><div class = fixation>+</div></div>","none","2000","practice","","","","",""
"479","89","poldrack-single-stim","11","29357","0.0-5.0-6.0","sub-14_ses-03_1","","1500","0","probe","","<div class = centerbox><div class = img-container><img src = ""/static/experiments/dot_pattern_expectancy/images/probe6.png""</img></div></div>","89,71","500","practice","AX","1","89","true",""
"-1","-1","poldrack-single-stim","12","29879","0.0-5.0-7.0","sub-14_ses-03_1","","500","0","feedback","","<div class = centerbox><div style=""color:#4FE829""; class = center-text>Correct!</div></div>","none","500","practice","","2","","",""
"-1","-1","poldrack-single-stim","13","30399","0.0-5.0-8.0","sub-14_ses-03_1","","500","0","cue","","<div class = centerbox><div class = img-container><img src = ""/static/experiments/dot_pattern_expectancy/images/cue2.png""</img></div></div>","none","500","practice","AY","2","","",""
"-1","-1","poldrack-single-stim","14","32419","0.0-5.0-9.0","sub-14_ses-03_1","","2000","0","fixation","","<div class = centerbox><div class = fixation>+</div></div>","none","2000","practice","","","","",""
"592","71","poldrack-single-stim","15","34739","0.0-5.0-10.0","sub-14_ses-03_1","","2300","0","probe","","<div class = centerbox><div class = img-container><img src = ""/static/experiments/dot_pattern_expectancy/images/probe5.png""</img></div></div>","89,71","500","practice","AY","2","71","true",""
"-1","-1","poldrack-single-stim","16","35260","0.0-5.0-11.0","sub-14_ses-03_1","","500","0","feedback","","<div class = centerbox><div style=""color:#4FE829""; class = center-text>Correct!</div></div>","none","500","practice","","3","","",""
"-1","-1","poldrack-single-stim","17","35780","0.0-5.0-12.0","sub-14_ses-03_1","","500","0","cue","","<div class = centerbox><div class = img-container><img src = ""/static/experiments/dot_pattern_expectancy/images/cue4.png""</img></div></div>","none","500","practice","BY","3","","",""
"-1","-1","poldrack-single-stim","18","37789","0.0-5.0-13.0","sub-14_ses-03_1","","2000","0","fixation","","<div class = centerbox><div class = fixation>+</div></div>","none","2000","practice","","","","",""
"431","71","poldrack-single-stim","19","39299","0.0-5.0-14.0","sub-14_ses-03_1","","1500","0","probe","","<div class = centerbox><div class = img-container><img src = ""/static/experiments/dot_pattern_expectancy/images/probe1.png""</img></div></div>","89,71","500","practice","BY","3","71","true",""
"-1","-1","poldrack-single-stim","20","39819","0.0-5.0-15.0","sub-14_ses-03_1","","500","0","feedback","","<div class = centerbox><div style=""color:#4FE829""; class = center-text>Correct!</div></div>","none","500","practice","","4","","",""
"-1","-1","poldrack-single-stim","21","40339","0.0-5.0-16.0","sub-14_ses-03_1","","500","0","cue","","<div class = centerbox><div class = img-container><img src = ""/static/experiments/dot_pattern_expectancy/images/cue2.png""</img></div></div>","none","500","practice","AY","4","","",""
"-1","-1","poldrack-single-stim","22","42349","0.0-5.0-17.0","sub-14_ses-03_1","","2000","0","fixation","","<div class = centerbox><div class = fixation>+</div></div>","none","2000","practice","","","","",""
"1271","71","poldrack-single-stim","23","44069","0.0-5.0-18.0","sub-14_ses-03_1","","1700","0","probe","","<div class = centerbox><div class = img-container><img src = ""/static/experiments/dot_pattern_expectancy/images/probe3.png""</img></div></div>","89,71","500","practice","AY","4","71","true",""
"-1","-1","poldrack-single-stim","24","44589","0.0-5.0-19.0","sub-14_ses-03_1","","500","0","feedback","","<div class = centerbox><div style=""color:#4FE829""; class = center-text>Correct!</div></div>","none","500","practice","","5","","",""
"-1","-1","poldrack-single-stim","25","45109","0.0-5.0-20.0","sub-14_ses-03_1","","500","0","cue","","<div class = centerbox><div class = img-container><img src = ""/static/experiments/dot_pattern_expectancy/images/cue1.png""</img></div></div>","none","500","practice","BY","5","","",""
"-1","-1","poldrack-single-stim","26","47118","0.0-5.0-21.0","sub-14_ses-03_1","","2000","0","fixation","","<div class = centerbox><div class = fixation>+</div></div>","none","2000","practice","","","","",""
"519","71","poldrack-single-stim","27","49038","0.0-5.0-22.0","sub-14_ses-03_1","","1900","0","probe","","<div class = centerbox><div class = img-container><img src = ""/static/experiments/dot_pattern_expectancy/images/probe1.png""</img></div></div>","89,71","500","practice","BY","5","71","true",""
"-1","-1","poldrack-single-stim","28","49560","0.0-5.0-23.0","sub-14_ses-03_1","","500","0","feedback","","<div class = centerbox><div style=""color:#4FE829""; class = center-text>Correct!</div></div>","none","500","practice","","6","","",""
"-1","-1","poldrack-single-stim","29","50079","0.0-5.0-24.0","sub-14_ses-03_1","","500","0","cue","","<div class = centerbox><div class = img-container><img src = ""/static/experiments/dot_pattern_expectancy/images/cue2.png""</img></div></div>","none","500","practice","AX","6","","",""
"-1","-1","poldrack-single-stim","30","52089","0.0-5.0-25.0","sub-14_ses-03_1","","2000","0","fixation","","<div class = centerbox><div class = fixation>+</div></div>","none","2000","practice","","","","",""
"449","89","poldrack-single-stim","31","54609","0.0-5.0-26.0","sub-14_ses-03_1","","2500","0","probe","","<div class = centerbox><div class = img-container><img src = ""/static/experiments/dot_pattern_expectancy/images/probe6.png""</img></div></div>","89,71","500","practice","AX","6","89","true",""
"-1","-1","poldrack-single-stim","32","55129","0.0-5.0-27.0","sub-14_ses-03_1","","500","0","feedback","","<div class = centerbox><div style=""color:#4FE829""; class = center-text>Correct!</div></div>","none","500","practice","","7","","",""
"-1","-1","poldrack-single-stim","33","55648","0.0-5.0-28.0","sub-14_ses-03_1","","500","0","cue","","<div class = centerbox><div class = img-container><img src = ""/static/experiments/dot_pattern_expectancy/images/cue2.png""</img></div></div>","none","500","practice","AX","7","","",""
"-1","-1","poldrack-single-stim","34","57670","0.0-5.0-29.0","sub-14_ses-03_1","","2000","0","fixation","","<div class = centerbox><div class = fixation>+</div></div>","none","2000","practice","","","","",""
"429","89","poldrack-single-stim","35","59778","0.0-5.0-30.0","sub-14_ses-03_1","","2100","0","probe","","<div class = centerbox><div class = img-container><img src = ""/static/experiments/dot_pattern_expectancy/images/probe6.png""</img></div></div>","89,71","500","practice","AX","7","89","true",""
"-1","-1","poldrack-single-stim","36","60300","0.0-5.0-31.0","sub-14_ses-03_1","","500","0","feedback","","<div class = centerbox><div style=""color:#4FE829""; class = center-text>Correct!</div></div>","none","500","practice","","8","","",""
"-1","-1","poldrack-single-stim","37","60819","0.0-5.0-32.0","sub-14_ses-03_1","","500","0","cue","","<div class = centerbox><div class = img-container><img src = ""/static/experiments/dot_pattern_expectancy/images/cue2.png""</img></div></div>","none","500","practice","AX","8","","",""
"-1","-1","poldrack-single-stim","38","62840","0.0-5.0-33.0","sub-14_ses-03_1","","2000","0","fixation","","<div class = centerbox><div class = fixation>+</div></div>","none","2000","practice","","","","",""
"913","89","poldrack-single-stim","39","64358","0.0-5.0-34.0","sub-14_ses-03_1","","1500","0","probe","","<div class = centerbox><div class = img-container><img src = ""/static/experiments/dot_pattern_expectancy/images/probe6.png""</img></div></div>","89,71","500","practice","AX","8","89","true",""
"-1","-1","poldrack-single-stim","40","64879","0.0-5.0-35.0","sub-14_ses-03_1","","500","0","feedback","","<div class = centerbox><div style=""color:#4FE829""; class = center-text>Correct!</div></div>","none","500","practice","","9","","",""
"-1","-1","poldrack-single-stim","41","65399","0.0-5.0-36.0","sub-14_ses-03_1","","500","0","cue","","<div class = centerbox><div class = img-container><img src = ""/static/experiments/dot_pattern_expectancy/images/cue6.png""</img></div></div>","none","500","practice","BX","9","","",""
"-1","-1","poldrack-single-stim","42","67419","0.0-5.0-37.0","sub-14_ses-03_1","","2000","0","fixation","","<div class = centerbox><div class = fixation>+</div></div>","none","2000","practice","","","","",""
"518","71","poldrack-single-stim","43","68937","0.0-5.0-38.0","sub-14_ses-03_1","","1500","0","probe","","<div class = centerbox><div class = img-container><img src = ""/static/experiments/dot_pattern_expectancy/images/probe6.png""</img></div></div>","89,71","500","practice","BX","9","71","true",""
"-1","-1","poldrack-single-stim","44","69459","0.0-5.0-39.0","sub-14_ses-03_1","","500","0","feedback","","<div class = centerbox><div style=""color:#4FE829""; class = center-text>Correct!</div></div>","none","500","practice","","10","","",""
"1914","32","poldrack-text","45","71377","0.0-6.0","sub-14_ses-03_1","<div class = centerbox><div  class = center-text>Scanner Setup</div></div>","1914","0","fmri_scanner_wait","","","","","","","","","",""
"55995","84","poldrack-text","46","127376","0.0-7.0","sub-14_ses-03_1","<div class = centerbox><div style='color:red'; class = center-text>+</div></div>","55995","0","fmri_trigger_wait","","","","","","","","","",""
"-1","-1","poldrack-single-stim","47","128378","0.0-8.0","sub-14_ses-03_1","","1000","0","fmri_buffer","","","none","1000","","","","","",""
"-1","-1","poldrack-single-stim","48","129890","0.0-9.0","sub-14_ses-03_1","","1500","500","test_start_block","","<div class = centerbox><div class = center-text>Preparez-vous!</p></div>","none","1500","","","","","",""
"-1","-1","poldrack-single-stim","49","130927","0.0-10.0","sub-14_ses-03_1","","500","0","cue","","<div class = centerbox><div class = img-container><img src = ""/static/experiments/dot_pattern_expectancy/images/cue4.png""</img></div></div>","none","500","test","BY","0","","",""
"-1","-1","poldrack-single-stim","50","132948","0.0-11.0","sub-14_ses-03_1","","2000","0","fixation","","<div class = centerbox><div class = fixation>+</div></div>","none","2000","test","","","","",""
"1348","71","poldrack-single-stim","51","134588","0.0-12.0","sub-14_ses-03_1","","1636","0","probe","","<div class = centerbox><div class = img-container><img src = ""/static/experiments/dot_pattern_expectancy/images/probe2.png""</img></div></div>","89,71","500","test","BY","0","71","true",""
"-1","-1","poldrack-single-stim","52","135108","0.0-13.0","sub-14_ses-03_1","","500","0","cue","","<div class = centerbox><div class = img-container><img src = ""/static/experiments/dot_pattern_expectancy/images/cue2.png""</img></div></div>","none","500","test","AY","1","","",""
"-1","-1","poldrack-single-stim","53","137130","0.0-14.0","sub-14_ses-03_1","","2000","0","fixation","","<div class = centerbox><div class = fixation>+</div></div>","none","2000","test","","","","",""
"850","71","poldrack-single-stim","54","138647","0.0-15.0","sub-14_ses-03_1","","1500","0","probe","","<div class = centerbox><div class = img-container><img src = ""/static/experiments/dot_pattern_expectancy/images/probe1.png""</img></div></div>","89,71","500","test","AY","1","71","true",""
"-1","-1","poldrack-single-stim","55","139168","0.0-16.0","sub-14_ses-03_1","","500","0","cue","","<div class = centerbox><div class = img-container><img src = ""/static/experiments/dot_pattern_expectancy/images/cue2.png""</img></div></div>","none","500","test","AX","2","","",""
"-1","-1","poldrack-single-stim","56","141189","0.0-17.0","sub-14_ses-03_1","","2000","0","fixation","","<div class = centerbox><div class = fixation>+</div></div>","none","2000","test","","","","",""
"661","89","poldrack-single-stim","57","143248","0.0-18.0","sub-14_ses-03_1","","2044","0","probe","","<div class = centerbox><div class = img-container><img src = ""/static/experiments/dot_pattern_expectancy/images/probe6.png""</img></div></div>","89,71","500","test","AX","2","89","true",""
"-1","-1","poldrack-single-stim","58","143769","0.0-19.0","sub-14_ses-03_1","","500","0","cue","","<div class = centerbox><div class = img-container><img src = ""/static/experiments/dot_pattern_expectancy/images/cue6.png""</img></div></div>","none","500","test","BY","3","","",""
"-1","-1","poldrack-single-stim","59","145788","0.0-20.0","sub-14_ses-03_1","","2000","0","fixation","","<div class = centerbox><div class = fixation>+</div></div>","none","2000","test","","","","",""
"528","71","poldrack-single-stim","60","147579","0.0-21.0","sub-14_ses-03_1","","1772","0","probe","","<div class = centerbox><div class = img-container><img src = ""/static/experiments/dot_pattern_expectancy/images/probe4.png""</img></div></div>","89,71","500","test","BY","3","71","true",""
"-1","-1","poldrack-single-stim","61","148099","0.0-22.0","sub-14_ses-03_1","","500","0","cue","","<div class = centerbox><div class = img-container><img src = ""/static/experiments/dot_pattern_expectancy/images/cue4.png""</img></div></div>","none","500","test","BX","4","","",""
"-1","-1","poldrack-single-stim","62","150120","0.0-23.0","sub-14_ses-03_1","","2000","0","fixation","","<div class = centerbox><div class = fixation>+</div></div>","none","2000","test","","","","",""
"1604","71","poldrack-single-stim","63","151780","0.0-24.0","sub-14_ses-03_1","","1636","0","probe","","<div class = centerbox><div class = img-container><img src = ""/static/experiments/dot_pattern_expectancy/images/probe6.png""</img></div></div>","89,71","500","test","BX","4","71","true",""
"-1","-1","poldrack-single-stim","64","152299","0.0-25.0","sub-14_ses-03_1","","500","0","cue","","<div class = centerbox><div class = img-container><img src = ""/static/experiments/dot_pattern_expectancy/images/cue2.png""</img></div></div>","none","500","test","AX","5","","",""
"-1","-1","poldrack-single-stim","65","154311","0.0-26.0","sub-14_ses-03_1","","2000","0","fixation","","<div class = centerbox><div class = fixation>+</div></div>","none","2000","test","","","","",""
"510","89","poldrack-single-stim","66","155969","0.0-27.0","sub-14_ses-03_1","","1636","0","probe","","<div class = centerbox><div class = img-container><img src = ""/static/experiments/dot_pattern_expectancy/images/probe6.png""</img></div></div>","89,71","500","test","AX","5","89","true",""
"-1","-1","poldrack-single-stim","67","156489","0.0-28.0","sub-14_ses-03_1","","500","0","cue","","<div class = centerbox><div class = img-container><img src = ""/static/experiments/dot_pattern_expectancy/images/cue2.png""</img></div></div>","none","500","test","AX","6","","",""
"-1","-1","poldrack-single-stim","68","158500","0.0-29.0","sub-14_ses-03_1","","2000","0","fixation","","<div class = centerbox><div class = fixation>+</div></div>","none","2000","test","","","","",""
"454","89","poldrack-single-stim","69","160008","0.0-30.0","sub-14_ses-03_1","","1500","0","probe","","<div class = centerbox><div class = img-container><img src = ""/static/experiments/dot_pattern_expectancy/images/probe6.png""</img></div></div>","89,71","500","test","AX","6","89","true",""
"-1","-1","poldrack-single-stim","70","160529","0.0-31.0","sub-14_ses-03_1","","500","0","cue","","<div class = centerbox><div class = img-container><img src = ""/static/experiments/dot_pattern_expectancy/images/cue2.png""</img></div></div>","none","500","test","AX","7","","",""
"-1","-1","poldrack-single-stim","71","162548","0.0-32.0","sub-14_ses-03_1","","2000","0","fixation","","<div class = centerbox><div class = fixation>+</div></div>","none","2000","test","","","","",""
"448","89","poldrack-single-stim","72","164068","0.0-33.0","sub-14_ses-03_1","","1500","0","probe","","<div class = centerbox><div class = img-container><img src = ""/static/experiments/dot_pattern_expectancy/images/probe6.png""</img></div></div>","89,71","500","test","AX","7","89","true",""
"-1","-1","poldrack-single-stim","73","164590","0.0-34.0","sub-14_ses-03_1","","500","0","cue","","<div class = centerbox><div class = img-container><img src = ""/static/experiments/dot_pattern_expectancy/images/cue2.png""</img></div></div>","none","500","test","AY","8","","",""
"-1","-1","poldrack-single-stim","74","166610","0.0-35.0","sub-14_ses-03_1","","2000","0","fixation","","<div class = centerbox><div class = fixation>+</div></div>","none","2000","test","","","","",""
"531","71","poldrack-single-stim","75","168668","0.0-36.0","sub-14_ses-03_1","","2044","0","probe","","<div class = centerbox><div class = img-container><img src = ""/static/experiments/dot_pattern_expectancy/images/probe4.png""</img></div></div>","89,71","500","test","AY","8","71","true",""
"-1","-1","poldrack-single-stim","76","169189","0.0-37.0","sub-14_ses-03_1","","500","0","cue","","<div class = centerbox><div class = img-container><img src = ""/static/experiments/dot_pattern_expectancy/images/cue2.png""</img></div></div>","none","500","test","AX","9","","",""
"-1","-1","poldrack-single-stim","77","171209","0.0-38.0","sub-14_ses-03_1","","2000","0","fixation","","<div class = centerbox><div class = fixation>+</div></div>","none","2000","test","","","","",""
"1102","89","poldrack-single-stim","78","173668","0.0-39.0","sub-14_ses-03_1","","2452","0","probe","","<div class = centerbox><div class = img-container><img src = ""/static/experiments/dot_pattern_expectancy/images/probe6.png""</img></div></div>","89,71","500","test","AX","9","89","true",""
"-1","-1","poldrack-single-stim","79","174188","0.0-40.0","sub-14_ses-03_1","","500","0","cue","","<div class = centerbox><div class = img-container><img src = ""/static/experiments/dot_pattern_expectancy/images/cue2.png""</img></div></div>","none","500","test","AX","10","","",""
"-1","-1","poldrack-single-stim","80","176199","0.0-41.0","sub-14_ses-03_1","","2000","0","fixation","","<div class = centerbox><div class = fixation>+</div></div>","none","2000","test","","","","",""
"613","89","poldrack-single-stim","81","178118","0.0-42.0","sub-14_ses-03_1","","1908","0","probe","","<div class = centerbox><div class = img-container><img src = ""/static/experiments/dot_pattern_expectancy/images/probe6.png""</img></div></div>","89,71","500","test","AX","10","89","true",""
"-1","-1","poldrack-single-stim","82","178640","0.0-43.0","sub-14_ses-03_1","","500","0","cue","","<div class = centerbox><div class = img-container><img src = ""/static/experiments/dot_pattern_expectancy/images/cue2.png""</img></div></div>","none","500","test","AX","11","","",""
"-1","-1","poldrack-single-stim","83","180660","0.0-44.0","sub-14_ses-03_1","","2000","0","fixation","","<div class = centerbox><div class = fixation>+</div></div>","none","2000","test","","","","",""
"557","89","poldrack-single-stim","84","182178","0.0-45.0","sub-14_ses-03_1","","1500","0","probe","","<div class = centerbox><div class = img-container><img src = ""/static/experiments/dot_pattern_expectancy/images/probe6.png""</img></div></div>","89,71","500","test","AX","11","89","true",""
"-1","-1","poldrack-single-stim","85","182710","0.0-46.0","sub-14_ses-03_1","","500","0","cue","","<div class = centerbox><div class = img-container><img src = ""/static/experiments/dot_pattern_expectancy/images/cue2.png""</img></div></div>","none","500","test","AX","12","","",""
"-1","-1","poldrack-single-stim","86","184719","0.0-47.0","sub-14_ses-03_1","","2000","0","fixation","","<div class = centerbox><div class = fixation>+</div></div>","none","2000","test","","","","",""
"574","89","poldrack-single-stim","87","186638","0.0-48.0","sub-14_ses-03_1","","1908","0","probe","","<div class = centerbox><div class = img-container><img src = ""/static/experiments/dot_pattern_expectancy/images/probe6.png""</img></div></div>","89,71","500","test","AX","12","89","true",""
"-1","-1","poldrack-single-stim","88","187149","0.0-49.0","sub-14_ses-03_1","","500","0","cue","","<div class = centerbox><div class = img-container><img src = ""/static/experiments/dot_pattern_expectancy/images/cue6.png""</img></div></div>","none","500","test","BX","13","","",""
"-1","-1","poldrack-single-stim","89","189159","0.0-50.0","sub-14_ses-03_1","","2000","0","fixation","","<div class = centerbox><div class = fixation>+</div></div>","none","2000","test","","","","",""
"356","71","poldrack-single-stim","90","191358","0.0-51.0","sub-14_ses-03_1","","2180","0","probe","","<div class = centerbox><div class = img-container><img src = ""/static/experiments/dot_pattern_expectancy/images/probe6.png""</img></div></div>","89,71","500","test","BX","13","71","true",""
"-1","-1","poldrack-single-stim","91","191879","0.0-52.0","sub-14_ses-03_1","","500","0","cue","","<div class = centerbox><div class = img-container><img src = ""/static/experiments/dot_pattern_expectancy/images/cue2.png""</img></div></div>","none","500","test","AX","14","","",""
"-1","-1","poldrack-single-stim","92","193899","0.0-53.0","sub-14_ses-03_1","","2000","0","fixation","","<div class = centerbox><div class = fixation>+</div></div>","none","2000","test","","","","",""
"1405","89","poldrack-single-stim","93","195409","0.0-54.0","sub-14_ses-03_1","","1500","0","probe","","<div class = centerbox><div class = img-container><img src = ""/static/experiments/dot_pattern_expectancy/images/probe6.png""</img></div></div>","89,71","500","test","AX","14","89","true",""
"-1","-1","poldrack-single-stim","94","195928","0.0-55.0","sub-14_ses-03_1","","500","0","cue","","<div class = centerbox><div class = img-container><img src = ""/static/experiments/dot_pattern_expectancy/images/cue5.png""</img></div></div>","none","500","test","BY","15","","",""
"-1","-1","poldrack-single-stim","95","197949","0.0-56.0","sub-14_ses-03_1","","2000","0","fixation","","<div class = centerbox><div class = fixation>+</div></div>","none","2000","test","","","","",""
"529","71","poldrack-single-stim","96","199868","0.0-57.0","sub-14_ses-03_1","","1908","0","probe","","<div class = centerbox><div class = img-container><img src = ""/static/experiments/dot_pattern_expectancy/images/probe5.png""</img></div></div>","89,71","500","test","BY","15","71","true",""
"-1","-1","poldrack-single-stim","97","200390","0.0-58.0","sub-14_ses-03_1","","500","0","cue","","<div class = centerbox><div class = img-container><img src = ""/static/experiments/dot_pattern_expectancy/images/cue1.png""</img></div></div>","none","500","test","BX","16","","",""
"-1","-1","poldrack-single-stim","98","202400","0.0-59.0","sub-14_ses-03_1","","2000","0","fixation","","<div class = centerbox><div class = fixation>+</div></div>","none","2000","test","","","","",""
"731","71","poldrack-single-stim","99","204738","0.0-60.0","sub-14_ses-03_1","","2316","0","probe","","<div class = centerbox><div class = img-container><img src = ""/static/experiments/dot_pattern_expectancy/images/probe6.png""</img></div></div>","89,71","500","test","BX","16","71","true",""
"-1","-1","poldrack-single-stim","100","205259","0.0-61.0","sub-14_ses-03_1","","500","0","cue","","<div class = centerbox><div class = img-container><img src = ""/static/experiments/dot_pattern_expectancy/images/cue2.png""</img></div></div>","none","500","test","AY","17","","",""
"-1","-1","poldrack-single-stim","101","207269","0.0-62.0","sub-14_ses-03_1","","2000","0","fixation","","<div class = centerbox><div class = fixation>+</div></div>","none","2000","test","","","","",""
"951","71","poldrack-single-stim","102","209599","0.0-63.0","sub-14_ses-03_1","","2316","0","probe","","<div class = centerbox><div class = img-container><img src = ""/static/experiments/dot_pattern_expectancy/images/probe2.png""</img></div></div>","89,71","500","test","AY","17","71","true",""
"-1","-1","poldrack-single-stim","103","210118","0.0-64.0","sub-14_ses-03_1","","500","0","cue","","<div class = centerbox><div class = img-container><img src = ""/static/experiments/dot_pattern_expectancy/images/cue3.png""</img></div></div>","none","500","test","BX","18","","",""
"-1","-1","poldrack-single-stim","104","212129","0.0-65.0","sub-14_ses-03_1","","2000","0","fixation","","<div class = centerbox><div class = fixation>+</div></div>","none","2000","test","","","","",""
"356","71","poldrack-single-stim","105","213768","0.0-66.0","sub-14_ses-03_1","","1636","0","probe","","<div class = centerbox><div class = img-container><img src = ""/static/experiments/dot_pattern_expectancy/images/probe6.png""</img></div></div>","89,71","500","test","BX","18","71","true",""
"-1","-1","poldrack-single-stim","106","214289","0.0-67.0","sub-14_ses-03_1","","500","0","cue","","<div class = centerbox><div class = img-container><img src = ""/static/experiments/dot_pattern_expectancy/images/cue2.png""</img></div></div>","none","500","test","AY","19","","",""
"-1","-1","poldrack-single-stim","107","216308","0.0-68.0","sub-14_ses-03_1","","2000","0","fixation","","<div class = centerbox><div class = fixation>+</div></div>","none","2000","test","","","","",""
"920","71","poldrack-single-stim","108","217828","0.0-69.0","sub-14_ses-03_1","","1500","0","probe","","<div class = centerbox><div class = img-container><img src = ""/static/experiments/dot_pattern_expectancy/images/probe3.png""</img></div></div>","89,71","500","test","AY","19","71","true",""
"-1","-1","poldrack-single-stim","109","218349","0.0-70.0","sub-14_ses-03_1","","500","0","cue","","<div class = centerbox><div class = img-container><img src = ""/static/experiments/dot_pattern_expectancy/images/cue4.png""</img></div></div>","none","500","test","BY","20","","",""
"-1","-1","poldrack-single-stim","110","220369","0.0-71.0","sub-14_ses-03_1","","2000","0","fixation","","<div class = centerbox><div class = fixation>+</div></div>","none","2000","test","","","","",""
"673","71","poldrack-single-stim","111","222289","0.0-72.0","sub-14_ses-03_1","","1908","0","probe","","<div class = centerbox><div class = img-container><img src = ""/static/experiments/dot_pattern_expectancy/images/probe4.png""</img></div></div>","89,71","500","test","BY","20","71","true",""
"-1","-1","poldrack-single-stim","112","222810","0.0-73.0","sub-14_ses-03_1","","500","0","cue","","<div class = centerbox><div class = img-container><img src = ""/static/experiments/dot_pattern_expectancy/images/cue2.png""</img></div></div>","none","500","test","AX","21","","",""
"-1","-1","poldrack-single-stim","113","224830","0.0-74.0","sub-14_ses-03_1","","2000","0","fixation","","<div class = centerbox><div class = fixation>+</div></div>","none","2000","test","","","","",""
"732","89","poldrack-single-stim","114","226348","0.0-75.0","sub-14_ses-03_1","","1500","0","probe","","<div class = centerbox><div class = img-container><img src = ""/static/experiments/dot_pattern_expectancy/images/probe6.png""</img></div></div>","89,71","500","test","AX","21","89","true",""
"-1","-1","poldrack-single-stim","115","226870","0.0-76.0","sub-14_ses-03_1","","500","0","cue","","<div class = centerbox><div class = img-container><img src = ""/static/experiments/dot_pattern_expectancy/images/cue2.png""</img></div></div>","none","500","test","AY","22","","",""
"-1","-1","poldrack-single-stim","116","228889","0.0-77.0","sub-14_ses-03_1","","2000","0","fixation","","<div class = centerbox><div class = fixation>+</div></div>","none","2000","test","","","","",""
"566","71","poldrack-single-stim","117","231228","0.0-78.0","sub-14_ses-03_1","","2316","0","probe","","<div class = centerbox><div class = img-container><img src = ""/static/experiments/dot_pattern_expectancy/images/probe3.png""</img></div></div>","89,71","500","test","AY","22","71","true",""
"-1","-1","poldrack-single-stim","118","231749","0.0-79.0","sub-14_ses-03_1","","500","0","cue","","<div class = centerbox><div class = img-container><img src = ""/static/experiments/dot_pattern_expectancy/images/cue2.png""</img></div></div>","none","500","test","AX","23","","",""
"-1","-1","poldrack-single-stim","119","233767","0.0-80.0","sub-14_ses-03_1","","2000","0","fixation","","<div class = centerbox><div class = fixation>+</div></div>","none","2000","test","","","","",""
"807","89","poldrack-single-stim","120","235280","0.0-81.0","sub-14_ses-03_1","","1500","0","probe","","<div class = centerbox><div class = img-container><img src = ""/static/experiments/dot_pattern_expectancy/images/probe6.png""</img></div></div>","89,71","500","test","AX","23","89","true",""
"-1","-1","poldrack-single-stim","121","235812","0.0-82.0","sub-14_ses-03_1","","500","0","cue","","<div class = centerbox><div class = img-container><img src = ""/static/experiments/dot_pattern_expectancy/images/cue2.png""</img></div></div>","none","500","test","AY","24","","",""
"-1","-1","poldrack-single-stim","122","237832","0.0-83.0","sub-14_ses-03_1","","2000","0","fixation","","<div class = centerbox><div class = fixation>+</div></div>","none","2000","test","","","","",""
"928","71","poldrack-single-stim","123","240568","0.0-84.0","sub-14_ses-03_1","","2724","0","probe","","<div class = centerbox><div class = img-container><img src = ""/static/experiments/dot_pattern_expectancy/images/probe1.png""</img></div></div>","89,71","500","test","AY","24","71","true",""
"-1","-1","poldrack-single-stim","124","241089","0.0-85.0","sub-14_ses-03_1","","500","0","cue","","<div class = centerbox><div class = img-container><img src = ""/static/experiments/dot_pattern_expectancy/images/cue2.png""</img></div></div>","none","500","test","AX","25","","",""
"-1","-1","poldrack-single-stim","125","243107","0.0-86.0","sub-14_ses-03_1","","2000","0","fixation","","<div class = centerbox><div class = fixation>+</div></div>","none","2000","test","","","","",""
"554","89","poldrack-single-stim","126","244628","0.0-87.0","sub-14_ses-03_1","","1500","0","probe","","<div class = centerbox><div class = img-container><img src = ""/static/experiments/dot_pattern_expectancy/images/probe6.png""</img></div></div>","89,71","500","test","AX","25","89","true",""
"-1","-1","poldrack-single-stim","127","245149","0.0-88.0","sub-14_ses-03_1","","500","0","cue","","<div class = centerbox><div class = img-container><img src = ""/static/experiments/dot_pattern_expectancy/images/cue2.png""</img></div></div>","none","500","test","AX","26","","",""
"-1","-1","poldrack-single-stim","128","247169","0.0-89.0","sub-14_ses-03_1","","2000","0","fixation","","<div class = centerbox><div class = fixation>+</div></div>","none","2000","test","","","","",""
"449","89","poldrack-single-stim","129","248809","0.0-90.0","sub-14_ses-03_1","","1636","0","probe","","<div class = centerbox><div class = img-container><img src = ""/static/experiments/dot_pattern_expectancy/images/probe6.png""</img></div></div>","89,71","500","test","AX","26","89","true",""
"-1","-1","poldrack-single-stim","130","249328","0.0-91.0","sub-14_ses-03_1","","500","0","cue","","<div class = centerbox><div class = img-container><img src = ""/static/experiments/dot_pattern_expectancy/images/cue2.png""</img></div></div>","none","500","test","AX","27","","",""
"-1","-1","poldrack-single-stim","131","251349","0.0-92.0","sub-14_ses-03_1","","2000","0","fixation","","<div class = centerbox><div class = fixation>+</div></div>","none","2000","test","","","","",""
"731","89","poldrack-single-stim","132","252988","0.0-93.0","sub-14_ses-03_1","","1636","0","probe","","<div class = centerbox><div class = img-container><img src = ""/static/experiments/dot_pattern_expectancy/images/probe6.png""</img></div></div>","89,71","500","test","AX","27","89","true",""
"-1","-1","poldrack-single-stim","133","253509","0.0-94.0","sub-14_ses-03_1","","500","0","cue","","<div class = centerbox><div class = img-container><img src = ""/static/experiments/dot_pattern_expectancy/images/cue2.png""</img></div></div>","none","500","test","AX","28","","",""
"-1","-1","poldrack-single-stim","134","255530","0.0-95.0","sub-14_ses-03_1","","2000","0","fixation","","<div class = centerbox><div class = fixation>+</div></div>","none","2000","test","","","","",""
"1108","71","poldrack-single-stim","135","257319","0.0-96.0","sub-14_ses-03_1","","1772","0","probe","","<div class = centerbox><div class = img-container><img src = ""/static/experiments/dot_pattern_expectancy/images/probe6.png""</img></div></div>","89,71","500","test","AX","28","89","false",""
"-1","-1","poldrack-single-stim","136","257839","0.0-97.0","sub-14_ses-03_1","","500","0","cue","","<div class = centerbox><div class = img-container><img src = ""/static/experiments/dot_pattern_expectancy/images/cue5.png""</img></div></div>","none","500","test","BY","29","","",""
"-1","-1","poldrack-single-stim","137","259859","0.0-98.0","sub-14_ses-03_1","","2000","0","fixation","","<div class = centerbox><div class = fixation>+</div></div>","none","2000","test","","","","",""
"1189","71","poldrack-single-stim","138","261638","0.0-99.0","sub-14_ses-03_1","","1772","0","probe","","<div class = centerbox><div class = img-container><img src = ""/static/experiments/dot_pattern_expectancy/images/probe5.png""</img></div></div>","89,71","500","test","BY","29","71","true",""
"-1","-1","poldrack-single-stim","139","262159","0.0-100.0","sub-14_ses-03_1","","500","0","cue","","<div class = centerbox><div class = img-container><img src = ""/static/experiments/dot_pattern_expectancy/images/cue2.png""</img></div></div>","none","500","test","AX","30","","",""
"-1","-1","poldrack-single-stim","140","264180","0.0-101.0","sub-14_ses-03_1","","2000","0","fixation","","<div class = centerbox><div class = fixation>+</div></div>","none","2000","test","","","","",""
"1298","89","poldrack-single-stim","141","265699","0.0-102.0","sub-14_ses-03_1","","1500","0","probe","","<div class = centerbox><div class = img-container><img src = ""/static/experiments/dot_pattern_expectancy/images/probe6.png""</img></div></div>","89,71","500","test","AX","30","89","true",""
"-1","-1","poldrack-single-stim","142","266219","0.0-103.0","sub-14_ses-03_1","","500","0","cue","","<div class = centerbox><div class = img-container><img src = ""/static/experiments/dot_pattern_expectancy/images/cue1.png""</img></div></div>","none","500","test","BY","31","","",""
"-1","-1","poldrack-single-stim","143","268238","0.0-104.0","sub-14_ses-03_1","","2000","0","fixation","","<div class = centerbox><div class = fixation>+</div></div>","none","2000","test","","","","",""
"611","71","poldrack-single-stim","144","270710","0.0-105.0","sub-14_ses-03_1","","2452","0","probe","","<div class = centerbox><div class = img-container><img src = ""/static/experiments/dot_pattern_expectancy/images/probe5.png""</img></div></div>","89,71","500","test","BY","31","71","true",""
"-1","-1","poldrack-single-stim","145","271229","0.0-106.0","sub-14_ses-03_1","","500","0","cue","","<div class = centerbox><div class = img-container><img src = ""/static/experiments/dot_pattern_expectancy/images/cue2.png""</img></div></div>","none","500","test","AX","32","","",""
"-1","-1","poldrack-single-stim","146","273249","0.0-107.0","sub-14_ses-03_1","","2000","0","fixation","","<div class = centerbox><div class = fixation>+</div></div>","none","2000","test","","","","",""
"661","89","poldrack-single-stim","147","274889","0.0-108.0","sub-14_ses-03_1","","1636","0","probe","","<div class = centerbox><div class = img-container><img src = ""/static/experiments/dot_pattern_expectancy/images/probe6.png""</img></div></div>","89,71","500","test","AX","32","89","true",""
"-1","-1","poldrack-single-stim","148","275409","0.0-109.0","sub-14_ses-03_1","","500","0","cue","","<div class = centerbox><div class = img-container><img src = ""/static/experiments/dot_pattern_expectancy/images/cue2.png""</img></div></div>","none","500","test","AX","33","","",""
"-1","-1","poldrack-single-stim","149","277429","0.0-110.0","sub-14_ses-03_1","","2000","0","fixation","","<div class = centerbox><div class = fixation>+</div></div>","none","2000","test","","","","",""
"-1","-1","poldrack-single-stim","150","279089","0.0-111.0","sub-14_ses-03_1","","1636","0","probe","","<div class = centerbox><div class = img-container><img src = ""/static/experiments/dot_pattern_expectancy/images/probe6.png""</img></div></div>","89,71","500","test","AX","33","89","false",""
"-1","-1","poldrack-single-stim","151","279609","0.0-112.0","sub-14_ses-03_1","","500","0","cue","","<div class = centerbox><div class = img-container><img src = ""/static/experiments/dot_pattern_expectancy/images/cue4.png""</img></div></div>","none","500","test","BX","34","","",""
"-1","-1","poldrack-single-stim","152","281629","0.0-113.0","sub-14_ses-03_1","","2000","0","fixation","","<div class = centerbox><div class = fixation>+</div></div>","none","2000","test","","","","",""
"522","71","poldrack-single-stim","153","283149","0.0-114.0","sub-14_ses-03_1","","1500","0","probe","","<div class = centerbox><div class = img-container><img src = ""/static/experiments/dot_pattern_expectancy/images/probe6.png""</img></div></div>","89,71","500","test","BX","34","71","true",""
"-1","-1","poldrack-single-stim","154","283669","0.0-115.0","sub-14_ses-03_1","","500","0","cue","","<div class = centerbox><div class = img-container><img src = ""/static/experiments/dot_pattern_expectancy/images/cue6.png""</img></div></div>","none","500","test","BX","35","","",""
"-1","-1","poldrack-single-stim","155","285688","0.0-116.0","sub-14_ses-03_1","","2000","0","fixation","","<div class = centerbox><div class = fixation>+</div></div>","none","2000","test","","","","",""
"677","71","poldrack-single-stim","156","287208","0.0-117.0","sub-14_ses-03_1","","1500","0","probe","","<div class = centerbox><div class = img-container><img src = ""/static/experiments/dot_pattern_expectancy/images/probe6.png""</img></div></div>","89,71","500","test","BX","35","71","true",""
"-1","-1","poldrack-single-stim","157","287729","0.0-118.0","sub-14_ses-03_1","","500","0","cue","","<div class = centerbox><div class = img-container><img src = ""/static/experiments/dot_pattern_expectancy/images/cue2.png""</img></div></div>","none","500","test","AX","36","","",""
"-1","-1","poldrack-single-stim","158","289749","0.0-119.0","sub-14_ses-03_1","","2000","0","fixation","","<div class = centerbox><div class = fixation>+</div></div>","none","2000","test","","","","",""
"389","89","poldrack-single-stim","159","292088","0.0-120.0","sub-14_ses-03_1","","2316","0","probe","","<div class = centerbox><div class = img-container><img src = ""/static/experiments/dot_pattern_expectancy/images/probe6.png""</img></div></div>","89,71","500","test","AX","36","89","true",""
"-1","-1","poldrack-single-stim","160","292609","0.0-121.0","sub-14_ses-03_1","","500","0","cue","","<div class = centerbox><div class = img-container><img src = ""/static/experiments/dot_pattern_expectancy/images/cue2.png""</img></div></div>","none","500","test","AY","37","","",""
"-1","-1","poldrack-single-stim","161","294629","0.0-122.0","sub-14_ses-03_1","","2000","0","fixation","","<div class = centerbox><div class = fixation>+</div></div>","none","2000","test","","","","",""
"1101","71","poldrack-single-stim","162","296688","0.0-123.0","sub-14_ses-03_1","","2044","0","probe","","<div class = centerbox><div class = img-container><img src = ""/static/experiments/dot_pattern_expectancy/images/probe3.png""</img></div></div>","89,71","500","test","AY","37","71","true",""
"-1","-1","poldrack-single-stim","163","297209","0.0-124.0","sub-14_ses-03_1","","500","0","cue","","<div class = centerbox><div class = img-container><img src = ""/static/experiments/dot_pattern_expectancy/images/cue2.png""</img></div></div>","none","500","test","AX","38","","",""
"-1","-1","poldrack-single-stim","164","299229","0.0-125.0","sub-14_ses-03_1","","2000","0","fixation","","<div class = centerbox><div class = fixation>+</div></div>","none","2000","test","","","","",""
"1456","89","poldrack-single-stim","165","303191","0.0-126.0","sub-14_ses-03_1","","3948","0","probe","","<div class = centerbox><div class = img-container><img src = ""/static/experiments/dot_pattern_expectancy/images/probe6.png""</img></div></div>","89,71","500","test","AX","38","89","true",""
"-1","-1","poldrack-single-stim","166","303710","0.0-127.0","sub-14_ses-03_1","","500","0","cue","","<div class = centerbox><div class = img-container><img src = ""/static/experiments/dot_pattern_expectancy/images/cue2.png""</img></div></div>","none","500","test","AX","39","","",""
"-1","-1","poldrack-single-stim","167","305728","0.0-128.0","sub-14_ses-03_1","","2000","0","fixation","","<div class = centerbox><div class = fixation>+</div></div>","none","2000","test","","","","",""
"464","89","poldrack-single-stim","168","307369","0.0-129.0","sub-14_ses-03_1","","1636","0","probe","","<div class = centerbox><div class = img-container><img src = ""/static/experiments/dot_pattern_expectancy/images/probe6.png""</img></div></div>","89,71","500","test","AX","39","89","true",""
"-1","-1","poldrack-single-stim","169","314889","0.0-130.0","sub-14_ses-03_1","","7500","1000","rest_block","","<div class = centerbox><div class = center-text>+</div></div>","none","7500","","","","","",""
"-1","-1","poldrack-single-stim","170","317429","0.0-131.0","sub-14_ses-03_1","","1500","500","test_start_block","","<div class = centerbox><div class = center-text>Preparez-vous!</p></div>","none","1500","","","","","",""
"-1","-1","poldrack-single-stim","171","318469","0.0-132.0","sub-14_ses-03_1","","500","0","cue","","<div class = centerbox><div class = img-container><img src = ""/static/experiments/dot_pattern_expectancy/images/cue2.png""</img></div></div>","none","500","test","AY","0","","",""
"-1","-1","poldrack-single-stim","172","320490","0.0-133.0","sub-14_ses-03_1","","2000","0","fixation","","<div class = centerbox><div class = fixation>+</div></div>","none","2000","test","","","","",""
"1174","71","poldrack-single-stim","173","322138","0.0-134.0","sub-14_ses-03_1","","1636","0","probe","","<div class = centerbox><div class = img-container><img src = ""/static/experiments/dot_pattern_expectancy/images/probe3.png""</img></div></div>","89,71","500","test","AY","0","71","true",""
"-1","-1","poldrack-single-stim","174","322657","0.0-135.0","sub-14_ses-03_1","","500","0","cue","","<div class = centerbox><div class = img-container><img src = ""/static/experiments/dot_pattern_expectancy/images/cue2.png""</img></div></div>","none","500","test","AX","1","","",""
"-1","-1","poldrack-single-stim","175","324678","0.0-136.0","sub-14_ses-03_1","","2000","0","fixation","","<div class = centerbox><div class = fixation>+</div></div>","none","2000","test","","","","",""
"458","89","poldrack-single-stim","176","326318","0.0-137.0","sub-14_ses-03_1","","1636","0","probe","","<div class = centerbox><div class = img-container><img src = ""/static/experiments/dot_pattern_expectancy/images/probe6.png""</img></div></div>","89,71","500","test","AX","1","89","true",""
"-1","-1","poldrack-single-stim","177","326838","0.0-138.0","sub-14_ses-03_1","","500","0","cue","","<div class = centerbox><div class = img-container><img src = ""/static/experiments/dot_pattern_expectancy/images/cue2.png""</img></div></div>","none","500","test","AX","2","","",""
"-1","-1","poldrack-single-stim","178","328859","0.0-139.0","sub-14_ses-03_1","","2000","0","fixation","","<div class = centerbox><div class = fixation>+</div></div>","none","2000","test","","","","",""
"1193","89","poldrack-single-stim","179","330368","0.0-140.0","sub-14_ses-03_1","","1500","0","probe","","<div class = centerbox><div class = img-container><img src = ""/static/experiments/dot_pattern_expectancy/images/probe6.png""</img></div></div>","89,71","500","test","AX","2","89","true",""
"-1","-1","poldrack-single-stim","180","330890","0.0-141.0","sub-14_ses-03_1","","500","0","cue","","<div class = centerbox><div class = img-container><img src = ""/static/experiments/dot_pattern_expectancy/images/cue2.png""</img></div></div>","none","500","test","AX","3","","",""
"-1","-1","poldrack-single-stim","181","332908","0.0-142.0","sub-14_ses-03_1","","2000","0","fixation","","<div class = centerbox><div class = fixation>+</div></div>","none","2000","test","","","","",""
"485","89","poldrack-single-stim","182","334418","0.0-143.0","sub-14_ses-03_1","","1500","0","probe","","<div class = centerbox><div class = img-container><img src = ""/static/experiments/dot_pattern_expectancy/images/probe6.png""</img></div></div>","89,71","500","test","AX","3","89","true",""
"-1","-1","poldrack-single-stim","183","334940","0.0-144.0","sub-14_ses-03_1","","500","0","cue","","<div class = centerbox><div class = img-container><img src = ""/static/experiments/dot_pattern_expectancy/images/cue2.png""</img></div></div>","none","500","test","AX","4","","",""
"-1","-1","poldrack-single-stim","184","336947","0.0-145.0","sub-14_ses-03_1","","2000","0","fixation","","<div class = centerbox><div class = fixation>+</div></div>","none","2000","test","","","","",""
"887","71","poldrack-single-stim","185","338878","0.0-146.0","sub-14_ses-03_1","","1908","0","probe","","<div class = centerbox><div class = img-container><img src = ""/static/experiments/dot_pattern_expectancy/images/probe6.png""</img></div></div>","89,71","500","test","AX","4","89","false",""
"-1","-1","poldrack-single-stim","186","339399","0.0-147.0","sub-14_ses-03_1","","500","0","cue","","<div class = centerbox><div class = img-container><img src = ""/static/experiments/dot_pattern_expectancy/images/cue6.png""</img></div></div>","none","500","test","BX","5","","",""
"-1","-1","poldrack-single-stim","187","341419","0.0-148.0","sub-14_ses-03_1","","2000","0","fixation","","<div class = centerbox><div class = fixation>+</div></div>","none","2000","test","","","","",""
"429","71","poldrack-single-stim","188","343066","0.0-149.0","sub-14_ses-03_1","","1636","0","probe","","<div class = centerbox><div class = img-container><img src = ""/static/experiments/dot_pattern_expectancy/images/probe6.png""</img></div></div>","89,71","500","test","BX","5","71","true",""
"-1","-1","poldrack-single-stim","189","343589","0.0-150.0","sub-14_ses-03_1","","500","0","cue","","<div class = centerbox><div class = img-container><img src = ""/static/experiments/dot_pattern_expectancy/images/cue2.png""</img></div></div>","none","500","test","AX","6","","",""
"-1","-1","poldrack-single-stim","190","345609","0.0-151.0","sub-14_ses-03_1","","2000","0","fixation","","<div class = centerbox><div class = fixation>+</div></div>","none","2000","test","","","","",""
"391","89","poldrack-single-stim","191","347658","0.0-152.0","sub-14_ses-03_1","","2044","0","probe","","<div class = centerbox><div class = img-container><img src = ""/static/experiments/dot_pattern_expectancy/images/probe6.png""</img></div></div>","89,71","500","test","AX","6","89","true",""
"-1","-1","poldrack-single-stim","192","348169","0.0-153.0","sub-14_ses-03_1","","500","0","cue","","<div class = centerbox><div class = img-container><img src = ""/static/experiments/dot_pattern_expectancy/images/cue2.png""</img></div></div>","none","500","test","AX","7","","",""
"-1","-1","poldrack-single-stim","193","350177","0.0-154.0","sub-14_ses-03_1","","2000","0","fixation","","<div class = centerbox><div class = fixation>+</div></div>","none","2000","test","","","","",""
"668","89","poldrack-single-stim","194","351958","0.0-155.0","sub-14_ses-03_1","","1772","0","probe","","<div class = centerbox><div class = img-container><img src = ""/static/experiments/dot_pattern_expectancy/images/probe6.png""</img></div></div>","89,71","500","test","AX","7","89","true",""
"-1","-1","poldrack-single-stim","195","352479","0.0-156.0","sub-14_ses-03_1","","500","0","cue","","<div class = centerbox><div class = img-container><img src = ""/static/experiments/dot_pattern_expectancy/images/cue2.png""</img></div></div>","none","500","test","AX","8","","",""
"-1","-1","poldrack-single-stim","196","354499","0.0-157.0","sub-14_ses-03_1","","2000","0","fixation","","<div class = centerbox><div class = fixation>+</div></div>","none","2000","test","","","","",""
"930","89","poldrack-single-stim","197","356018","0.0-158.0","sub-14_ses-03_1","","1500","0","probe","","<div class = centerbox><div class = img-container><img src = ""/static/experiments/dot_pattern_expectancy/images/probe6.png""</img></div></div>","89,71","500","test","AX","8","89","true",""
"-1","-1","poldrack-single-stim","198","356528","0.0-159.0","sub-14_ses-03_1","","500","0","cue","","<div class = centerbox><div class = img-container><img src = ""/static/experiments/dot_pattern_expectancy/images/cue2.png""</img></div></div>","none","500","test","AX","9","","",""
"-1","-1","poldrack-single-stim","199","358548","0.0-160.0","sub-14_ses-03_1","","2000","0","fixation","","<div class = centerbox><div class = fixation>+</div></div>","none","2000","test","","","","",""
"625","89","poldrack-single-stim","200","360748","0.0-161.0","sub-14_ses-03_1","","2180","0","probe","","<div class = centerbox><div class = img-container><img src = ""/static/experiments/dot_pattern_expectancy/images/probe6.png""</img></div></div>","89,71","500","test","AX","9","89","true",""
"-1","-1","poldrack-single-stim","201","361268","0.0-162.0","sub-14_ses-03_1","","500","0","cue","","<div class = centerbox><div class = img-container><img src = ""/static/experiments/dot_pattern_expectancy/images/cue2.png""</img></div></div>","none","500","test","AX","10","","",""
"-1","-1","poldrack-single-stim","202","363279","0.0-163.0","sub-14_ses-03_1","","2000","0","fixation","","<div class = centerbox><div class = fixation>+</div></div>","none","2000","test","","","","",""
"485","89","poldrack-single-stim","203","364798","0.0-164.0","sub-14_ses-03_1","","1500","0","probe","","<div class = centerbox><div class = img-container><img src = ""/static/experiments/dot_pattern_expectancy/images/probe6.png""</img></div></div>","89,71","500","test","AX","10","89","true",""
"-1","-1","poldrack-single-stim","204","365320","0.0-165.0","sub-14_ses-03_1","","500","0","cue","","<div class = centerbox><div class = img-container><img src = ""/static/experiments/dot_pattern_expectancy/images/cue5.png""</img></div></div>","none","500","test","BX","11","","",""
"-1","-1","poldrack-single-stim","205","367339","0.0-166.0","sub-14_ses-03_1","","2000","0","fixation","","<div class = centerbox><div class = fixation>+</div></div>","none","2000","test","","","","",""
"496","71","poldrack-single-stim","206","371019","0.0-167.0","sub-14_ses-03_1","","3676","0","probe","","<div class = centerbox><div class = img-container><img src = ""/static/experiments/dot_pattern_expectancy/images/probe6.png""</img></div></div>","89,71","500","test","BX","11","71","true",""
"-1","-1","poldrack-single-stim","207","371539","0.0-168.0","sub-14_ses-03_1","","500","0","cue","","<div class = centerbox><div class = img-container><img src = ""/static/experiments/dot_pattern_expectancy/images/cue6.png""</img></div></div>","none","500","test","BY","12","","",""
"-1","-1","poldrack-single-stim","208","373558","0.0-169.0","sub-14_ses-03_1","","2000","0","fixation","","<div class = centerbox><div class = fixation>+</div></div>","none","2000","test","","","","",""
"-1","-1","poldrack-single-stim","209","375198","0.0-170.0","sub-14_ses-03_1","","1636","0","probe","","<div class = centerbox><div class = img-container><img src = ""/static/experiments/dot_pattern_expectancy/images/probe2.png""</img></div></div>","89,71","500","test","BY","12","71","false",""
"-1","-1","poldrack-single-stim","210","375719","0.0-171.0","sub-14_ses-03_1","","500","0","cue","","<div class = centerbox><div class = img-container><img src = ""/static/experiments/dot_pattern_expectancy/images/cue1.png""</img></div></div>","none","500","test","BY","13","","",""
"-1","-1","poldrack-single-stim","211","377739","0.0-172.0","sub-14_ses-03_1","","2000","0","fixation","","<div class = centerbox><div class = fixation>+</div></div>","none","2000","test","","","","",""
"44","71","poldrack-single-stim","212","379398","0.0-173.0","sub-14_ses-03_1","","1636","0","probe","","<div class = centerbox><div class = img-container><img src = ""/static/experiments/dot_pattern_expectancy/images/probe2.png""</img></div></div>","89,71","500","test","BY","13","71","true",""
"-1","-1","poldrack-single-stim","213","379919","0.0-174.0","sub-14_ses-03_1","","500","0","cue","","<div class = centerbox><div class = img-container><img src = ""/static/experiments/dot_pattern_expectancy/images/cue3.png""</img></div></div>","none","500","test","BX","14","","",""
"-1","-1","poldrack-single-stim","214","381940","0.0-175.0","sub-14_ses-03_1","","2000","0","fixation","","<div class = centerbox><div class = fixation>+</div></div>","none","2000","test","","","","",""
"315","71","poldrack-single-stim","215","383459","0.0-176.0","sub-14_ses-03_1","","1500","0","probe","","<div class = centerbox><div class = img-container><img src = ""/static/experiments/dot_pattern_expectancy/images/probe6.png""</img></div></div>","89,71","500","test","BX","14","71","true",""
"-1","-1","poldrack-single-stim","216","383978","0.0-177.0","sub-14_ses-03_1","","500","0","cue","","<div class = centerbox><div class = img-container><img src = ""/static/experiments/dot_pattern_expectancy/images/cue2.png""</img></div></div>","none","500","test","AX","15","","",""
"-1","-1","poldrack-single-stim","217","385999","0.0-178.0","sub-14_ses-03_1","","2000","0","fixation","","<div class = centerbox><div class = fixation>+</div></div>","none","2000","test","","","","",""
"577","89","poldrack-single-stim","218","387918","0.0-179.0","sub-14_ses-03_1","","1908","0","probe","","<div class = centerbox><div class = img-container><img src = ""/static/experiments/dot_pattern_expectancy/images/probe6.png""</img></div></div>","89,71","500","test","AX","15","89","true",""
"-1","-1","poldrack-single-stim","219","388440","0.0-180.0","sub-14_ses-03_1","","500","0","cue","","<div class = centerbox><div class = img-container><img src = ""/static/experiments/dot_pattern_expectancy/images/cue2.png""</img></div></div>","none","500","test","AX","16","","",""
"-1","-1","poldrack-single-stim","220","390460","0.0-181.0","sub-14_ses-03_1","","2000","0","fixation","","<div class = centerbox><div class = fixation>+</div></div>","none","2000","test","","","","",""
"471","89","poldrack-single-stim","221","392097","0.0-182.0","sub-14_ses-03_1","","1636","0","probe","","<div class = centerbox><div class = img-container><img src = ""/static/experiments/dot_pattern_expectancy/images/probe6.png""</img></div></div>","89,71","500","test","AX","16","89","true",""
"-1","-1","poldrack-single-stim","222","392619","0.0-183.0","sub-14_ses-03_1","","500","0","cue","","<div class = centerbox><div class = img-container><img src = ""/static/experiments/dot_pattern_expectancy/images/cue5.png""</img></div></div>","none","500","test","BX","17","","",""
"-1","-1","poldrack-single-stim","223","394629","0.0-184.0","sub-14_ses-03_1","","2000","0","fixation","","<div class = centerbox><div class = fixation>+</div></div>","none","2000","test","","","","",""
"1024","71","poldrack-single-stim","224","396148","0.0-185.0","sub-14_ses-03_1","","1500","0","probe","","<div class = centerbox><div class = img-container><img src = ""/static/experiments/dot_pattern_expectancy/images/probe6.png""</img></div></div>","89,71","500","test","BX","17","71","true",""
"-1","-1","poldrack-single-stim","225","396669","0.0-186.0","sub-14_ses-03_1","","500","0","cue","","<div class = centerbox><div class = img-container><img src = ""/static/experiments/dot_pattern_expectancy/images/cue2.png""</img></div></div>","none","500","test","AX","18","","",""
"-1","-1","poldrack-single-stim","226","398679","0.0-187.0","sub-14_ses-03_1","","2000","0","fixation","","<div class = centerbox><div class = fixation>+</div></div>","none","2000","test","","","","",""
"488","89","poldrack-single-stim","227","400598","0.0-188.0","sub-14_ses-03_1","","1908","0","probe","","<div class = centerbox><div class = img-container><img src = ""/static/experiments/dot_pattern_expectancy/images/probe6.png""</img></div></div>","89,71","500","test","AX","18","89","true",""
"-1","-1","poldrack-single-stim","228","401109","0.0-189.0","sub-14_ses-03_1","","500","0","cue","","<div class = centerbox><div class = img-container><img src = ""/static/experiments/dot_pattern_expectancy/images/cue5.png""</img></div></div>","none","500","test","BY","19","","",""
"-1","-1","poldrack-single-stim","229","403128","0.0-190.0","sub-14_ses-03_1","","2000","0","fixation","","<div class = centerbox><div class = fixation>+</div></div>","none","2000","test","","","","",""
"670","71","poldrack-single-stim","230","405328","0.0-191.0","sub-14_ses-03_1","","2180","0","probe","","<div class = centerbox><div class = img-container><img src = ""/static/experiments/dot_pattern_expectancy/images/probe4.png""</img></div></div>","89,71","500","test","BY","19","71","true",""
"-1","-1","poldrack-single-stim","231","405848","0.0-192.0","sub-14_ses-03_1","","500","0","cue","","<div class = centerbox><div class = img-container><img src = ""/static/experiments/dot_pattern_expectancy/images/cue2.png""</img></div></div>","none","500","test","AX","20","","",""
"-1","-1","poldrack-single-stim","232","407869","0.0-193.0","sub-14_ses-03_1","","2000","0","fixation","","<div class = centerbox><div class = fixation>+</div></div>","none","2000","test","","","","",""
"915","89","poldrack-single-stim","233","409648","0.0-194.0","sub-14_ses-03_1","","1772","0","probe","","<div class = centerbox><div class = img-container><img src = ""/static/experiments/dot_pattern_expectancy/images/probe6.png""</img></div></div>","89,71","500","test","AX","20","89","true",""
"-1","-1","poldrack-single-stim","234","410169","0.0-195.0","sub-14_ses-03_1","","500","0","cue","","<div class = centerbox><div class = img-container><img src = ""/static/experiments/dot_pattern_expectancy/images/cue2.png""</img></div></div>","none","500","test","AX","21","","",""
"-1","-1","poldrack-single-stim","235","412178","0.0-196.0","sub-14_ses-03_1","","2000","0","fixation","","<div class = centerbox><div class = fixation>+</div></div>","none","2000","test","","","","",""
"945","89","poldrack-single-stim","236","413699","0.0-197.0","sub-14_ses-03_1","","1500","0","probe","","<div class = centerbox><div class = img-container><img src = ""/static/experiments/dot_pattern_expectancy/images/probe6.png""</img></div></div>","89,71","500","test","AX","21","89","true",""
"-1","-1","poldrack-single-stim","237","414218","0.0-198.0","sub-14_ses-03_1","","500","0","cue","","<div class = centerbox><div class = img-container><img src = ""/static/experiments/dot_pattern_expectancy/images/cue2.png""</img></div></div>","none","500","test","AX","22","","",""
"-1","-1","poldrack-single-stim","238","416239","0.0-199.0","sub-14_ses-03_1","","2000","0","fixation","","<div class = centerbox><div class = fixation>+</div></div>","none","2000","test","","","","",""
"606","89","poldrack-single-stim","239","417757","0.0-200.0","sub-14_ses-03_1","","1500","0","probe","","<div class = centerbox><div class = img-container><img src = ""/static/experiments/dot_pattern_expectancy/images/probe6.png""</img></div></div>","89,71","500","test","AX","22","89","true",""
"-1","-1","poldrack-single-stim","240","418279","0.0-201.0","sub-14_ses-03_1","","500","0","cue","","<div class = centerbox><div class = img-container><img src = ""/static/experiments/dot_pattern_expectancy/images/cue2.png""</img></div></div>","none","500","test","AX","23","","",""
"-1","-1","poldrack-single-stim","241","420299","0.0-202.0","sub-14_ses-03_1","","2000","0","fixation","","<div class = centerbox><div class = fixation>+</div></div>","none","2000","test","","","","",""
"834","89","poldrack-single-stim","242","422349","0.0-203.0","sub-14_ses-03_1","","2044","0","probe","","<div class = centerbox><div class = img-container><img src = ""/static/experiments/dot_pattern_expectancy/images/probe6.png""</img></div></div>","89,71","500","test","AX","23","89","true",""
"-1","-1","poldrack-single-stim","243","422876","0.0-204.0","sub-14_ses-03_1","","500","0","cue","","<div class = centerbox><div class = img-container><img src = ""/static/experiments/dot_pattern_expectancy/images/cue2.png""</img></div></div>","none","500","test","AX","24","","",""
"-1","-1","poldrack-single-stim","244","424882","0.0-205.0","sub-14_ses-03_1","","2000","0","fixation","","<div class = centerbox><div class = fixation>+</div></div>","none","2000","test","","","","",""
"945","89","poldrack-single-stim","245","427758","0.0-206.0","sub-14_ses-03_1","","2860","0","probe","","<div class = centerbox><div class = img-container><img src = ""/static/experiments/dot_pattern_expectancy/images/probe6.png""</img></div></div>","89,71","500","test","AX","24","89","true",""
"-1","-1","poldrack-single-stim","246","428278","0.0-207.0","sub-14_ses-03_1","","500","0","cue","","<div class = centerbox><div class = img-container><img src = ""/static/experiments/dot_pattern_expectancy/images/cue4.png""</img></div></div>","none","500","test","BX","25","","",""
"-1","-1","poldrack-single-stim","247","430288","0.0-208.0","sub-14_ses-03_1","","2000","0","fixation","","<div class = centerbox><div class = fixation>+</div></div>","none","2000","test","","","","",""
"1143","71","poldrack-single-stim","248","431808","0.0-209.0","sub-14_ses-03_1","","1500","0","probe","","<div class = centerbox><div class = img-container><img src = ""/static/experiments/dot_pattern_expectancy/images/probe6.png""</img></div></div>","89,71","500","test","BX","25","71","true",""
"-1","-1","poldrack-single-stim","249","432329","0.0-210.0","sub-14_ses-03_1","","500","0","cue","","<div class = centerbox><div class = img-container><img src = ""/static/experiments/dot_pattern_expectancy/images/cue6.png""</img></div></div>","none","500","test","BY","26","","",""
"-1","-1","poldrack-single-stim","250","434348","0.0-211.0","sub-14_ses-03_1","","2000","0","fixation","","<div class = centerbox><div class = fixation>+</div></div>","none","2000","test","","","","",""
"425","71","poldrack-single-stim","251","436129","0.0-212.0","sub-14_ses-03_1","","1772","0","probe","","<div class = centerbox><div class = img-container><img src = ""/static/experiments/dot_pattern_expectancy/images/probe3.png""</img></div></div>","89,71","500","test","BY","26","71","true",""
"-1","-1","poldrack-single-stim","252","436648","0.0-213.0","sub-14_ses-03_1","","500","0","cue","","<div class = centerbox><div class = img-container><img src = ""/static/experiments/dot_pattern_expectancy/images/cue2.png""</img></div></div>","none","500","test","AX","27","","",""
"-1","-1","poldrack-single-stim","253","438675","0.0-214.0","sub-14_ses-03_1","","2000","0","fixation","","<div class = centerbox><div class = fixation>+</div></div>","none","2000","test","","","","",""
"633","89","poldrack-single-stim","254","440468","0.0-215.0","sub-14_ses-03_1","","1772","0","probe","","<div class = centerbox><div class = img-container><img src = ""/static/experiments/dot_pattern_expectancy/images/probe6.png""</img></div></div>","89,71","500","test","AX","27","89","true",""
"-1","-1","poldrack-single-stim","255","440990","0.0-216.0","sub-14_ses-03_1","","500","0","cue","","<div class = centerbox><div class = img-container><img src = ""/static/experiments/dot_pattern_expectancy/images/cue2.png""</img></div></div>","none","500","test","AX","28","","",""
"-1","-1","poldrack-single-stim","256","443009","0.0-217.0","sub-14_ses-03_1","","2000","0","fixation","","<div class = centerbox><div class = fixation>+</div></div>","none","2000","test","","","","",""
"716","89","poldrack-single-stim","257","445883","0.0-218.0","sub-14_ses-03_1","","2860","0","probe","","<div class = centerbox><div class = img-container><img src = ""/static/experiments/dot_pattern_expectancy/images/probe6.png""</img></div></div>","89,71","500","test","AX","28","89","true",""
"-1","-1","poldrack-single-stim","258","446401","0.0-219.0","sub-14_ses-03_1","","500","0","cue","","<div class = centerbox><div class = img-container><img src = ""/static/experiments/dot_pattern_expectancy/images/cue2.png""</img></div></div>","none","500","test","AX","29","","",""
"-1","-1","poldrack-single-stim","259","448418","0.0-220.0","sub-14_ses-03_1","","2000","0","fixation","","<div class = centerbox><div class = fixation>+</div></div>","none","2000","test","","","","",""
"-1","-1","poldrack-single-stim","260","450199","0.0-221.0","sub-14_ses-03_1","","1772","0","probe","","<div class = centerbox><div class = img-container><img src = ""/static/experiments/dot_pattern_expectancy/images/probe6.png""</img></div></div>","89,71","500","test","AX","29","89","false",""
"-1","-1","poldrack-single-stim","261","450720","0.0-222.0","sub-14_ses-03_1","","500","0","cue","","<div class = centerbox><div class = img-container><img src = ""/static/experiments/dot_pattern_expectancy/images/cue4.png""</img></div></div>","none","500","test","BX","30","","",""
"-1","-1","poldrack-single-stim","262","452739","0.0-223.0","sub-14_ses-03_1","","2000","0","fixation","","<div class = centerbox><div class = fixation>+</div></div>","none","2000","test","","","","",""
"-1","-1","poldrack-single-stim","263","454379","0.0-224.0","sub-14_ses-03_1","","1636","0","probe","","<div class = centerbox><div class = img-container><img src = ""/static/experiments/dot_pattern_expectancy/images/probe6.png""</img></div></div>","89,71","500","test","BX","30","71","false",""
"-1","-1","poldrack-single-stim","264","454900","0.0-225.0","sub-14_ses-03_1","","500","0","cue","","<div class = centerbox><div class = img-container><img src = ""/static/experiments/dot_pattern_expectancy/images/cue5.png""</img></div></div>","none","500","test","BX","31","","",""
"-1","-1","poldrack-single-stim","265","456909","0.0-226.0","sub-14_ses-03_1","","2000","0","fixation","","<div class = centerbox><div class = fixation>+</div></div>","none","2000","test","","","","",""
"493","71","poldrack-single-stim","266","459377","0.0-227.0","sub-14_ses-03_1","","2452","0","probe","","<div class = centerbox><div class = img-container><img src = ""/static/experiments/dot_pattern_expectancy/images/probe6.png""</img></div></div>","89,71","500","test","BX","31","71","true",""
"-1","-1","poldrack-single-stim","267","459902","0.0-228.0","sub-14_ses-03_1","","500","0","cue","","<div class = centerbox><div class = img-container><img src = ""/static/experiments/dot_pattern_expectancy/images/cue2.png""</img></div></div>","none","500","test","AX","32","","",""
"-1","-1","poldrack-single-stim","268","461917","0.0-229.0","sub-14_ses-03_1","","2000","0","fixation","","<div class = centerbox><div class = fixation>+</div></div>","none","2000","test","","","","",""
"1493","89","poldrack-single-stim","269","463559","0.0-230.0","sub-14_ses-03_1","","1636","0","probe","","<div class = centerbox><div class = img-container><img src = ""/static/experiments/dot_pattern_expectancy/images/probe6.png""</img></div></div>","89,71","500","test","AX","32","89","true",""
"-1","-1","poldrack-single-stim","270","464079","0.0-231.0","sub-14_ses-03_1","","500","0","cue","","<div class = centerbox><div class = img-container><img src = ""/static/experiments/dot_pattern_expectancy/images/cue1.png""</img></div></div>","none","500","test","BX","33","","",""
"-1","-1","poldrack-single-stim","271","466099","0.0-232.0","sub-14_ses-03_1","","2000","0","fixation","","<div class = centerbox><div class = fixation>+</div></div>","none","2000","test","","","","",""
"1351","71","poldrack-single-stim","272","467618","0.0-233.0","sub-14_ses-03_1","","1500","0","probe","","<div class = centerbox><div class = img-container><img src = ""/static/experiments/dot_pattern_expectancy/images/probe6.png""</img></div></div>","89,71","500","test","BX","33","71","true",""
"-1","-1","poldrack-single-stim","273","468140","0.0-234.0","sub-14_ses-03_1","","500","0","cue","","<div class = centerbox><div class = img-container><img src = ""/static/experiments/dot_pattern_expectancy/images/cue2.png""</img></div></div>","none","500","test","AX","34","","",""
"-1","-1","poldrack-single-stim","274","470159","0.0-235.0","sub-14_ses-03_1","","2000","0","fixation","","<div class = centerbox><div class = fixation>+</div></div>","none","2000","test","","","","",""
"960","71","poldrack-single-stim","275","471798","0.0-236.0","sub-14_ses-03_1","","1636","0","probe","","<div class = centerbox><div class = img-container><img src = ""/static/experiments/dot_pattern_expectancy/images/probe6.png""</img></div></div>","89,71","500","test","AX","34","89","false",""
"-1","-1","poldrack-single-stim","276","472319","0.0-237.0","sub-14_ses-03_1","","500","0","cue","","<div class = centerbox><div class = img-container><img src = ""/static/experiments/dot_pattern_expectancy/images/cue2.png""</img></div></div>","none","500","test","AX","35","","",""
"-1","-1","poldrack-single-stim","277","474329","0.0-238.0","sub-14_ses-03_1","","2000","0","fixation","","<div class = centerbox><div class = fixation>+</div></div>","none","2000","test","","","","",""
"-1","-1","poldrack-single-stim","278","475989","0.0-239.0","sub-14_ses-03_1","","1636","0","probe","","<div class = centerbox><div class = img-container><img src = ""/static/experiments/dot_pattern_expectancy/images/probe6.png""</img></div></div>","89,71","500","test","AX","35","89","false",""
"-1","-1","poldrack-single-stim","279","476499","0.0-240.0","sub-14_ses-03_1","","500","0","cue","","<div class = centerbox><div class = img-container><img src = ""/static/experiments/dot_pattern_expectancy/images/cue5.png""</img></div></div>","none","500","test","BY","36","","",""
"-1","-1","poldrack-single-stim","280","478519","0.0-241.0","sub-14_ses-03_1","","2000","0","fixation","","<div class = centerbox><div class = fixation>+</div></div>","none","2000","test","","","","",""
"446","71","poldrack-single-stim","281","480718","0.0-242.0","sub-14_ses-03_1","","2180","0","probe","","<div class = centerbox><div class = img-container><img src = ""/static/experiments/dot_pattern_expectancy/images/probe2.png""</img></div></div>","89,71","500","test","BY","36","71","true",""
"-1","-1","poldrack-single-stim","282","481240","0.0-243.0","sub-14_ses-03_1","","500","0","cue","","<div class = centerbox><div class = img-container><img src = ""/static/experiments/dot_pattern_expectancy/images/cue2.png""</img></div></div>","none","500","test","AX","37","","",""
"-1","-1","poldrack-single-stim","283","483258","0.0-244.0","sub-14_ses-03_1","","2000","0","fixation","","<div class = centerbox><div class = fixation>+</div></div>","none","2000","test","","","","",""
"1508","89","poldrack-single-stim","284","484778","0.0-245.0","sub-14_ses-03_1","","1500","0","probe","","<div class = centerbox><div class = img-container><img src = ""/static/experiments/dot_pattern_expectancy/images/probe6.png""</img></div></div>","89,71","500","test","AX","37","89","true",""
"-1","-1","poldrack-single-stim","285","485289","0.0-246.0","sub-14_ses-03_1","","500","0","cue","","<div class = centerbox><div class = img-container><img src = ""/static/experiments/dot_pattern_expectancy/images/cue2.png""</img></div></div>","none","500","test","AY","38","","",""
"-1","-1","poldrack-single-stim","286","487309","0.0-247.0","sub-14_ses-03_1","","2000","0","fixation","","<div class = centerbox><div class = fixation>+</div></div>","none","2000","test","","","","",""
"-1","-1","poldrack-single-stim","287","488948","0.0-248.0","sub-14_ses-03_1","","1636","0","probe","","<div class = centerbox><div class = img-container><img src = ""/static/experiments/dot_pattern_expectancy/images/probe2.png""</img></div></div>","89,71","500","test","AY","38","71","false",""
"-1","-1","poldrack-single-stim","288","489469","0.0-249.0","sub-14_ses-03_1","","500","0","cue","","<div class = centerbox><div class = img-container><img src = ""/static/experiments/dot_pattern_expectancy/images/cue2.png""</img></div></div>","none","500","test","AX","39","","",""
"-1","-1","poldrack-single-stim","289","491488","0.0-250.0","sub-14_ses-03_1","","2000","0","fixation","","<div class = centerbox><div class = fixation>+</div></div>","none","2000","test","","","","",""
"1553","89","poldrack-single-stim","290","493128","0.0-251.0","sub-14_ses-03_1","","1636","0","probe","","<div class = centerbox><div class = img-container><img src = ""/static/experiments/dot_pattern_expectancy/images/probe6.png""</img></div></div>","89,71","500","test","AX","39","89","true",""
"-1","-1","poldrack-single-stim","291","500638","0.0-252.0","sub-14_ses-03_1","","7500","1000","rest_block","","<div class = centerbox><div class = center-text>+</div></div>","none","7500","","","","","",""
"-1","-1","poldrack-single-stim","292","503179","0.0-253.0","sub-14_ses-03_1","","1500","500","test_start_block","","<div class = centerbox><div class = center-text>Preparez-vous!</p></div>","none","1500","","","","","",""
"-1","-1","poldrack-single-stim","293","504219","0.0-254.0","sub-14_ses-03_1","","500","0","cue","","<div class = centerbox><div class = img-container><img src = ""/static/experiments/dot_pattern_expectancy/images/cue2.png""</img></div></div>","none","500","test","AX","0","","",""
"-1","-1","poldrack-single-stim","294","506238","0.0-255.0","sub-14_ses-03_1","","2000","0","fixation","","<div class = centerbox><div class = fixation>+</div></div>","none","2000","test","","","","",""
"610","89","poldrack-single-stim","295","508438","0.0-256.0","sub-14_ses-03_1","","2180","0","probe","","<div class = centerbox><div class = img-container><img src = ""/static/experiments/dot_pattern_expectancy/images/probe6.png""</img></div></div>","89,71","500","test","AX","0","89","true",""
"-1","-1","poldrack-single-stim","296","508948","0.0-257.0","sub-14_ses-03_1","","500","0","cue","","<div class = centerbox><div class = img-container><img src = ""/static/experiments/dot_pattern_expectancy/images/cue2.png""</img></div></div>","none","500","test","AY","1","","",""
"-1","-1","poldrack-single-stim","297","510959","0.0-258.0","sub-14_ses-03_1","","2000","0","fixation","","<div class = centerbox><div class = fixation>+</div></div>","none","2000","test","","","","",""
"1278","71","poldrack-single-stim","298","513279","0.0-259.0","sub-14_ses-03_1","","2316","0","probe","","<div class = centerbox><div class = img-container><img src = ""/static/experiments/dot_pattern_expectancy/images/probe5.png""</img></div></div>","89,71","500","test","AY","1","71","true",""
"-1","-1","poldrack-single-stim","299","513798","0.0-260.0","sub-14_ses-03_1","","500","0","cue","","<div class = centerbox><div class = img-container><img src = ""/static/experiments/dot_pattern_expectancy/images/cue2.png""</img></div></div>","none","500","test","AY","2","","",""
"-1","-1","poldrack-single-stim","300","515819","0.0-261.0","sub-14_ses-03_1","","2000","0","fixation","","<div class = centerbox><div class = fixation>+</div></div>","none","2000","test","","","","",""
"856","71","poldrack-single-stim","301","517459","0.0-262.0","sub-14_ses-03_1","","1636","0","probe","","<div class = centerbox><div class = img-container><img src = ""/static/experiments/dot_pattern_expectancy/images/probe2.png""</img></div></div>","89,71","500","test","AY","2","71","true",""
"-1","-1","poldrack-single-stim","302","517978","0.0-263.0","sub-14_ses-03_1","","500","0","cue","","<div class = centerbox><div class = img-container><img src = ""/static/experiments/dot_pattern_expectancy/images/cue4.png""</img></div></div>","none","500","test","BX","3","","",""
"-1","-1","poldrack-single-stim","303","519999","0.0-264.0","sub-14_ses-03_1","","2000","0","fixation","","<div class = centerbox><div class = fixation>+</div></div>","none","2000","test","","","","",""
"-1","-1","poldrack-single-stim","304","521928","0.0-265.0","sub-14_ses-03_1","","1908","0","probe","","<div class = centerbox><div class = img-container><img src = ""/static/experiments/dot_pattern_expectancy/images/probe6.png""</img></div></div>","89,71","500","test","BX","3","71","false",""
"-1","-1","poldrack-single-stim","305","522446","0.0-266.0","sub-14_ses-03_1","","500","0","cue","","<div class = centerbox><div class = img-container><img src = ""/static/experiments/dot_pattern_expectancy/images/cue2.png""</img></div></div>","none","500","test","AX","4","","",""
"-1","-1","poldrack-single-stim","306","524469","0.0-267.0","sub-14_ses-03_1","","2000","0","fixation","","<div class = centerbox><div class = fixation>+</div></div>","none","2000","test","","","","",""
"-1","-1","poldrack-single-stim","307","528018","0.0-268.0","sub-14_ses-03_1","","3540","0","probe","","<div class = centerbox><div class = img-container><img src = ""/static/experiments/dot_pattern_expectancy/images/probe6.png""</img></div></div>","89,71","500","test","AX","4","89","false",""
"-1","-1","poldrack-single-stim","308","528538","0.0-269.0","sub-14_ses-03_1","","500","0","cue","","<div class = centerbox><div class = img-container><img src = ""/static/experiments/dot_pattern_expectancy/images/cue5.png""</img></div></div>","none","500","test","BX","5","","",""
"-1","-1","poldrack-single-stim","309","530549","0.0-270.0","sub-14_ses-03_1","","2000","0","fixation","","<div class = centerbox><div class = fixation>+</div></div>","none","2000","test","","","","",""
"568","71","poldrack-single-stim","310","532189","0.0-271.0","sub-14_ses-03_1","","1636","0","probe","","<div class = centerbox><div class = img-container><img src = ""/static/experiments/dot_pattern_expectancy/images/probe6.png""</img></div></div>","89,71","500","test","BX","5","71","true",""
"-1","-1","poldrack-single-stim","311","532708","0.0-272.0","sub-14_ses-03_1","","500","0","cue","","<div class = centerbox><div class = img-container><img src = ""/static/experiments/dot_pattern_expectancy/images/cue1.png""</img></div></div>","none","500","test","BY","6","","",""
"-1","-1","poldrack-single-stim","312","534718","0.0-273.0","sub-14_ses-03_1","","2000","0","fixation","","<div class = centerbox><div class = fixation>+</div></div>","none","2000","test","","","","",""
"681","71","poldrack-single-stim","313","536237","0.0-274.0","sub-14_ses-03_1","","1500","0","probe","","<div class = centerbox><div class = img-container><img src = ""/static/experiments/dot_pattern_expectancy/images/probe2.png""</img></div></div>","89,71","500","test","BY","6","71","true",""
"-1","-1","poldrack-single-stim","314","536758","0.0-275.0","sub-14_ses-03_1","","500","0","cue","","<div class = centerbox><div class = img-container><img src = ""/static/experiments/dot_pattern_expectancy/images/cue2.png""</img></div></div>","none","500","test","AX","7","","",""
"-1","-1","poldrack-single-stim","315","538778","0.0-276.0","sub-14_ses-03_1","","2000","0","fixation","","<div class = centerbox><div class = fixation>+</div></div>","none","2000","test","","","","",""
"422","89","poldrack-single-stim","316","540298","0.0-277.0","sub-14_ses-03_1","","1500","0","probe","","<div class = centerbox><div class = img-container><img src = ""/static/experiments/dot_pattern_expectancy/images/probe6.png""</img></div></div>","89,71","500","test","AX","7","89","true",""
"-1","-1","poldrack-single-stim","317","540817","0.0-278.0","sub-14_ses-03_1","","500","0","cue","","<div class = centerbox><div class = img-container><img src = ""/static/experiments/dot_pattern_expectancy/images/cue2.png""</img></div></div>","none","500","test","AX","8","","",""
"-1","-1","poldrack-single-stim","318","542837","0.0-279.0","sub-14_ses-03_1","","2000","0","fixation","","<div class = centerbox><div class = fixation>+</div></div>","none","2000","test","","","","",""
"-1","-1","poldrack-single-stim","319","544619","0.0-280.0","sub-14_ses-03_1","","1772","0","probe","","<div class = centerbox><div class = img-container><img src = ""/static/experiments/dot_pattern_expectancy/images/probe6.png""</img></div></div>","89,71","500","test","AX","8","89","false",""
"-1","-1","poldrack-single-stim","320","545137","0.0-281.0","sub-14_ses-03_1","","500","0","cue","","<div class = centerbox><div class = img-container><img src = ""/static/experiments/dot_pattern_expectancy/images/cue6.png""</img></div></div>","none","500","test","BY","9","","",""
"-1","-1","poldrack-single-stim","321","547159","0.0-282.0","sub-14_ses-03_1","","2000","0","fixation","","<div class = centerbox><div class = fixation>+</div></div>","none","2000","test","","","","",""
"1274","71","poldrack-single-stim","322","549618","0.0-283.0","sub-14_ses-03_1","","2452","0","probe","","<div class = centerbox><div class = img-container><img src = ""/static/experiments/dot_pattern_expectancy/images/probe5.png""</img></div></div>","89,71","500","test","BY","9","71","true",""
"-1","-1","poldrack-single-stim","323","550139","0.0-284.0","sub-14_ses-03_1","","500","0","cue","","<div class = centerbox><div class = img-container><img src = ""/static/experiments/dot_pattern_expectancy/images/cue2.png""</img></div></div>","none","500","test","AX","10","","",""
"-1","-1","poldrack-single-stim","324","552158","0.0-285.0","sub-14_ses-03_1","","2000","0","fixation","","<div class = centerbox><div class = fixation>+</div></div>","none","2000","test","","","","",""
"1242","89","poldrack-single-stim","325","554089","0.0-286.0","sub-14_ses-03_1","","1908","0","probe","","<div class = centerbox><div class = img-container><img src = ""/static/experiments/dot_pattern_expectancy/images/probe6.png""</img></div></div>","89,71","500","test","AX","10","89","true",""
"-1","-1","poldrack-single-stim","326","554609","0.0-287.0","sub-14_ses-03_1","","500","0","cue","","<div class = centerbox><div class = img-container><img src = ""/static/experiments/dot_pattern_expectancy/images/cue4.png""</img></div></div>","none","500","test","BX","11","","",""
"-1","-1","poldrack-single-stim","327","556629","0.0-288.0","sub-14_ses-03_1","","2000","0","fixation","","<div class = centerbox><div class = fixation>+</div></div>","none","2000","test","","","","",""
"-1","-1","poldrack-single-stim","328","558268","0.0-289.0","sub-14_ses-03_1","","1636","0","probe","","<div class = centerbox><div class = img-container><img src = ""/static/experiments/dot_pattern_expectancy/images/probe6.png""</img></div></div>","89,71","500","test","BX","11","71","false",""
"-1","-1","poldrack-single-stim","329","558789","0.0-290.0","sub-14_ses-03_1","","500","0","cue","","<div class = centerbox><div class = img-container><img src = ""/static/experiments/dot_pattern_expectancy/images/cue2.png""</img></div></div>","none","500","test","AX","12","","",""
"-1","-1","poldrack-single-stim","330","560809","0.0-291.0","sub-14_ses-03_1","","2000","0","fixation","","<div class = centerbox><div class = fixation>+</div></div>","none","2000","test","","","","",""
"525","89","poldrack-single-stim","331","562329","0.0-292.0","sub-14_ses-03_1","","1500","0","probe","","<div class = centerbox><div class = img-container><img src = ""/static/experiments/dot_pattern_expectancy/images/probe6.png""</img></div></div>","89,71","500","test","AX","12","89","true",""
"-1","-1","poldrack-single-stim","332","562848","0.0-293.0","sub-14_ses-03_1","","500","0","cue","","<div class = centerbox><div class = img-container><img src = ""/static/experiments/dot_pattern_expectancy/images/cue2.png""</img></div></div>","none","500","test","AX","13","","",""
"-1","-1","poldrack-single-stim","333","564869","0.0-294.0","sub-14_ses-03_1","","2000","0","fixation","","<div class = centerbox><div class = fixation>+</div></div>","none","2000","test","","","","",""
"733","89","poldrack-single-stim","334","566506","0.0-295.0","sub-14_ses-03_1","","1636","0","probe","","<div class = centerbox><div class = img-container><img src = ""/static/experiments/dot_pattern_expectancy/images/probe6.png""</img></div></div>","89,71","500","test","AX","13","89","true",""
"-1","-1","poldrack-single-stim","335","567028","0.0-296.0","sub-14_ses-03_1","","500","0","cue","","<div class = centerbox><div class = img-container><img src = ""/static/experiments/dot_pattern_expectancy/images/cue2.png""</img></div></div>","none","500","test","AX","14","","",""
"-1","-1","poldrack-single-stim","336","569053","0.0-297.0","sub-14_ses-03_1","","2000","0","fixation","","<div class = centerbox><div class = fixation>+</div></div>","none","2000","test","","","","",""
"489","89","poldrack-single-stim","337","570707","0.0-298.0","sub-14_ses-03_1","","1636","0","probe","","<div class = centerbox><div class = img-container><img src = ""/static/experiments/dot_pattern_expectancy/images/probe6.png""</img></div></div>","89,71","500","test","AX","14","89","true",""
"-1","-1","poldrack-single-stim","338","571228","0.0-299.0","sub-14_ses-03_1","","500","0","cue","","<div class = centerbox><div class = img-container><img src = ""/static/experiments/dot_pattern_expectancy/images/cue6.png""</img></div></div>","none","500","test","BY","15","","",""
"-1","-1","poldrack-single-stim","339","573239","0.0-300.0","sub-14_ses-03_1","","2000","0","fixation","","<div class = centerbox><div class = fixation>+</div></div>","none","2000","test","","","","",""
"467","71","poldrack-single-stim","340","575698","0.0-301.0","sub-14_ses-03_1","","2452","0","probe","","<div class = centerbox><div class = img-container><img src = ""/static/experiments/dot_pattern_expectancy/images/probe5.png""</img></div></div>","89,71","500","test","BY","15","71","true",""
"-1","-1","poldrack-single-stim","341","576219","0.0-302.0","sub-14_ses-03_1","","500","0","cue","","<div class = centerbox><div class = img-container><img src = ""/static/experiments/dot_pattern_expectancy/images/cue2.png""</img></div></div>","none","500","test","AX","16","","",""
"-1","-1","poldrack-single-stim","342","578239","0.0-303.0","sub-14_ses-03_1","","2000","0","fixation","","<div class = centerbox><div class = fixation>+</div></div>","none","2000","test","","","","",""
"654","89","poldrack-single-stim","343","579757","0.0-304.0","sub-14_ses-03_1","","1500","0","probe","","<div class = centerbox><div class = img-container><img src = ""/static/experiments/dot_pattern_expectancy/images/probe6.png""</img></div></div>","89,71","500","test","AX","16","89","true",""
"-1","-1","poldrack-single-stim","344","580279","0.0-305.0","sub-14_ses-03_1","","500","0","cue","","<div class = centerbox><div class = img-container><img src = ""/static/experiments/dot_pattern_expectancy/images/cue6.png""</img></div></div>","none","500","test","BY","17","","",""
"-1","-1","poldrack-single-stim","345","582299","0.0-306.0","sub-14_ses-03_1","","2000","0","fixation","","<div class = centerbox><div class = fixation>+</div></div>","none","2000","test","","","","",""
"570","71","poldrack-single-stim","346","583819","0.0-307.0","sub-14_ses-03_1","","1500","0","probe","","<div class = centerbox><div class = img-container><img src = ""/static/experiments/dot_pattern_expectancy/images/probe4.png""</img></div></div>","89,71","500","test","BY","17","71","true",""
"-1","-1","poldrack-single-stim","347","584340","0.0-308.0","sub-14_ses-03_1","","500","0","cue","","<div class = centerbox><div class = img-container><img src = ""/static/experiments/dot_pattern_expectancy/images/cue2.png""</img></div></div>","none","500","test","AX","18","","",""
"-1","-1","poldrack-single-stim","348","586348","0.0-309.0","sub-14_ses-03_1","","2000","0","fixation","","<div class = centerbox><div class = fixation>+</div></div>","none","2000","test","","","","",""
"514","89","poldrack-single-stim","349","587988","0.0-310.0","sub-14_ses-03_1","","1636","0","probe","","<div class = centerbox><div class = img-container><img src = ""/static/experiments/dot_pattern_expectancy/images/probe6.png""</img></div></div>","89,71","500","test","AX","18","89","true",""
"-1","-1","poldrack-single-stim","350","588509","0.0-311.0","sub-14_ses-03_1","","500","0","cue","","<div class = centerbox><div class = img-container><img src = ""/static/experiments/dot_pattern_expectancy/images/cue2.png""</img></div></div>","none","500","test","AX","19","","",""
"-1","-1","poldrack-single-stim","351","590517","0.0-312.0","sub-14_ses-03_1","","2000","0","fixation","","<div class = centerbox><div class = fixation>+</div></div>","none","2000","test","","","","",""
"455","89","poldrack-single-stim","352","592158","0.0-313.0","sub-14_ses-03_1","","1636","0","probe","","<div class = centerbox><div class = img-container><img src = ""/static/experiments/dot_pattern_expectancy/images/probe6.png""</img></div></div>","89,71","500","test","AX","19","89","true",""
"-1","-1","poldrack-single-stim","353","592680","0.0-314.0","sub-14_ses-03_1","","500","0","cue","","<div class = centerbox><div class = img-container><img src = ""/static/experiments/dot_pattern_expectancy/images/cue2.png""</img></div></div>","none","500","test","AY","20","","",""
"-1","-1","poldrack-single-stim","354","594699","0.0-315.0","sub-14_ses-03_1","","2000","0","fixation","","<div class = centerbox><div class = fixation>+</div></div>","none","2000","test","","","","",""
"795","71","poldrack-single-stim","355","596359","0.0-316.0","sub-14_ses-03_1","","1636","0","probe","","<div class = centerbox><div class = img-container><img src = ""/static/experiments/dot_pattern_expectancy/images/probe1.png""</img></div></div>","89,71","500","test","AY","20","71","true",""
"-1","-1","poldrack-single-stim","356","596879","0.0-317.0","sub-14_ses-03_1","","500","0","cue","","<div class = centerbox><div class = img-container><img src = ""/static/experiments/dot_pattern_expectancy/images/cue2.png""</img></div></div>","none","500","test","AX","21","","",""
"-1","-1","poldrack-single-stim","357","598899","0.0-318.0","sub-14_ses-03_1","","2000","0","fixation","","<div class = centerbox><div class = fixation>+</div></div>","none","2000","test","","","","",""
"1126","89","poldrack-single-stim","358","600418","0.0-319.0","sub-14_ses-03_1","","1500","0","probe","","<div class = centerbox><div class = img-container><img src = ""/static/experiments/dot_pattern_expectancy/images/probe6.png""</img></div></div>","89,71","500","test","AX","21","89","true",""
"-1","-1","poldrack-single-stim","359","600921","0.0-320.0","sub-14_ses-03_1","","500","0","cue","","<div class = centerbox><div class = img-container><img src = ""/static/experiments/dot_pattern_expectancy/images/cue2.png""</img></div></div>","none","500","test","AX","22","","",""
"-1","-1","poldrack-single-stim","360","602938","0.0-321.0","sub-14_ses-03_1","","2000","0","fixation","","<div class = centerbox><div class = fixation>+</div></div>","none","2000","test","","","","",""
"-1","-1","poldrack-single-stim","361","604458","0.0-322.0","sub-14_ses-03_1","","1500","0","probe","","<div class = centerbox><div class = img-container><img src = ""/static/experiments/dot_pattern_expectancy/images/probe6.png""</img></div></div>","89,71","500","test","AX","22","89","false",""
"-1","-1","poldrack-single-stim","362","604978","0.0-323.0","sub-14_ses-03_1","","500","0","cue","","<div class = centerbox><div class = img-container><img src = ""/static/experiments/dot_pattern_expectancy/images/cue2.png""</img></div></div>","none","500","test","AX","23","","",""
"-1","-1","poldrack-single-stim","363","606999","0.0-324.0","sub-14_ses-03_1","","2000","0","fixation","","<div class = centerbox><div class = fixation>+</div></div>","none","2000","test","","","","",""
"812","89","poldrack-single-stim","364","608789","0.0-325.0","sub-14_ses-03_1","","1772","0","probe","","<div class = centerbox><div class = img-container><img src = ""/static/experiments/dot_pattern_expectancy/images/probe6.png""</img></div></div>","89,71","500","test","AX","23","89","true",""
"-1","-1","poldrack-single-stim","365","609309","0.0-326.0","sub-14_ses-03_1","","500","0","cue","","<div class = centerbox><div class = img-container><img src = ""/static/experiments/dot_pattern_expectancy/images/cue2.png""</img></div></div>","none","500","test","AX","24","","",""
"-1","-1","poldrack-single-stim","366","611330","0.0-327.0","sub-14_ses-03_1","","2000","0","fixation","","<div class = centerbox><div class = fixation>+</div></div>","none","2000","test","","","","",""
"777","89","poldrack-single-stim","367","613528","0.0-328.0","sub-14_ses-03_1","","2180","0","probe","","<div class = centerbox><div class = img-container><img src = ""/static/experiments/dot_pattern_expectancy/images/probe6.png""</img></div></div>","89,71","500","test","AX","24","89","true",""
"-1","-1","poldrack-single-stim","368","614049","0.0-329.0","sub-14_ses-03_1","","500","0","cue","","<div class = centerbox><div class = img-container><img src = ""/static/experiments/dot_pattern_expectancy/images/cue4.png""</img></div></div>","none","500","test","BX","25","","",""
"-1","-1","poldrack-single-stim","369","616070","0.0-330.0","sub-14_ses-03_1","","2000","0","fixation","","<div class = centerbox><div class = fixation>+</div></div>","none","2000","test","","","","",""
"686","71","poldrack-single-stim","370","617848","0.0-331.0","sub-14_ses-03_1","","1772","0","probe","","<div class = centerbox><div class = img-container><img src = ""/static/experiments/dot_pattern_expectancy/images/probe6.png""</img></div></div>","89,71","500","test","BX","25","71","true",""
"-1","-1","poldrack-single-stim","371","618369","0.0-332.0","sub-14_ses-03_1","","500","0","cue","","<div class = centerbox><div class = img-container><img src = ""/static/experiments/dot_pattern_expectancy/images/cue4.png""</img></div></div>","none","500","test","BY","26","","",""
"-1","-1","poldrack-single-stim","372","620388","0.0-333.0","sub-14_ses-03_1","","2000","0","fixation","","<div class = centerbox><div class = fixation>+</div></div>","none","2000","test","","","","",""
"-1","-1","poldrack-single-stim","373","621909","0.0-334.0","sub-14_ses-03_1","","1500","0","probe","","<div class = centerbox><div class = img-container><img src = ""/static/experiments/dot_pattern_expectancy/images/probe5.png""</img></div></div>","89,71","500","test","BY","26","71","false",""
"-1","-1","poldrack-single-stim","374","622427","0.0-335.0","sub-14_ses-03_1","","500","0","cue","","<div class = centerbox><div class = img-container><img src = ""/static/experiments/dot_pattern_expectancy/images/cue2.png""</img></div></div>","none","500","test","AX","27","","",""
"-1","-1","poldrack-single-stim","375","624440","0.0-336.0","sub-14_ses-03_1","","2000","0","fixation","","<div class = centerbox><div class = fixation>+</div></div>","none","2000","test","","","","",""
"-1","-1","poldrack-single-stim","376","625958","0.0-337.0","sub-14_ses-03_1","","1500","0","probe","","<div class = centerbox><div class = img-container><img src = ""/static/experiments/dot_pattern_expectancy/images/probe6.png""</img></div></div>","89,71","500","test","AX","27","89","false",""
"-1","-1","poldrack-single-stim","377","626479","0.0-338.0","sub-14_ses-03_1","","500","0","cue","","<div class = centerbox><div class = img-container><img src = ""/static/experiments/dot_pattern_expectancy/images/cue2.png""</img></div></div>","none","500","test","AX","28","","",""
"-1","-1","poldrack-single-stim","378","628499","0.0-339.0","sub-14_ses-03_1","","2000","0","fixation","","<div class = centerbox><div class = fixation>+</div></div>","none","2000","test","","","","",""
"863","89","poldrack-single-stim","379","630148","0.0-340.0","sub-14_ses-03_1","","1636","0","probe","","<div class = centerbox><div class = img-container><img src = ""/static/experiments/dot_pattern_expectancy/images/probe6.png""</img></div></div>","89,71","500","test","AX","28","89","true",""
"-1","-1","poldrack-single-stim","380","630670","0.0-341.0","sub-14_ses-03_1","","500","0","cue","","<div class = centerbox><div class = img-container><img src = ""/static/experiments/dot_pattern_expectancy/images/cue2.png""</img></div></div>","none","500","test","AY","29","","",""
"-1","-1","poldrack-single-stim","381","632679","0.0-342.0","sub-14_ses-03_1","","2000","0","fixation","","<div class = centerbox><div class = fixation>+</div></div>","none","2000","test","","","","",""
"-1","-1","poldrack-single-stim","382","634879","0.0-343.0","sub-14_ses-03_1","","2180","0","probe","","<div class = centerbox><div class = img-container><img src = ""/static/experiments/dot_pattern_expectancy/images/probe3.png""</img></div></div>","89,71","500","test","AY","29","71","false",""
"-1","-1","poldrack-single-stim","383","635399","0.0-344.0","sub-14_ses-03_1","","500","0","cue","","<div class = centerbox><div class = img-container><img src = ""/static/experiments/dot_pattern_expectancy/images/cue2.png""</img></div></div>","none","500","test","AY","30","","",""
"-1","-1","poldrack-single-stim","384","637419","0.0-345.0","sub-14_ses-03_1","","2000","0","fixation","","<div class = centerbox><div class = fixation>+</div></div>","none","2000","test","","","","",""
