"rt","key_press","trial_type","trial_index","time_elapsed","internal_node_id","subject","text","block_duration","timing_post_trial","trial_id","responses","stimulus","possible_responses","stim_duration","exp_stage","cue","stim_color","stim_number","task","task_switch","cue_switch","trial_num","correct","correct_response","feedback_duration","exp_id"
"4427","13","text","0","4432","0.0-0.0","sub-12_ses-01_2","","","","","","","","","","","","","","","","","","","",""
"985","89","poldrack-text","1","6431","0.0-1.0","sub-12_ses-01_2","<div class = centerbox><div style = 'font-size: 50px' class = center-text>Veuillez appuyer avec votre index</p></div>","985","500","fmri_response_test","","","","","","","","","","","","","","","",""
"680","71","poldrack-text","2","7620","0.0-2.0","sub-12_ses-01_2","<div class = centerbox><div style = 'font-size: 50px' class = center-text>Veuillez appuyer avec votre majeur</p></div>","680","500","fmri_response_test","","","","","","","","","","","","","","","",""
"1401","","survey-text","3","9543","0.0-3.0","sub-12_ses-01_2","","","","task_setup","{""Q0"":"""",""Q1"":""""}","","","","","","","","","","","","","","",""
"7540","32","poldrack-single-stim","4","18093","0.0-4.0","sub-12_ses-01_2","","7540","0","instructions","","<div class = centerbox><div class = center-text style=""font-size:40px""><strong>Couleur</strong> or <strong>Orange-Bleu</strong>: Index si orange et Majeur si bleu.<br><br><strong>Amplitude</strong> ou <strong>Haut-Bas</strong>: Index si >5 et Majeur si <5.</div></div>","32","7540","","","","","","","","","","","",""
"","","call-function","5","18094","0.0-5.0-0.0","sub-12_ses-01_2","","","","set_stims","","","","","","","","","","","","","","","",""
"-1","-1","poldrack-single-stim","6","18610","0.0-5.0-1.0","sub-12_ses-01_2","","500","0","fixation","","<div class = upperbox><div class = fixation>+</div></div><div class = lowerbox><div class = fixation>+</div></div>","none","500","practice","","","","","","","","","","",""
"-1","-1","poldrack-single-stim","7","18719","0.0-5.0-2.0","sub-12_ses-01_2","","100","0","cue","","<div class = upperbox><div class = ""center-text"" >Amplitude</div></div><div class = lowerbox><div class = fixation>+</div></div>","none","100","practice","Amplitude","#1F45FC","6","magnitude","switch","stay","0","","","",""
"-1","-1","poldrack-categorize","8","21233","0.0-5.0-3.0","sub-12_ses-01_2","","2000","0","stim","","<div class = upperbox><div class = ""center-text"" >Amplitude</div></div><div class = lowerbox><div class = ""stim-text"" style=color:#1F45FC;>6</div>","89,71","1000","practice","Amplitude","#1F45FC","6","magnitude","switch","stay","0","false","89","500",""
"-1","-1","poldrack-single-stim","9","21743","0.0-5.0-4.0","sub-12_ses-01_2","","500","0","gap",""," ","none","500","practice","","","","","","","","","","",""
"","","call-function","10","21744","0.0-5.0-5.0","sub-12_ses-01_2","","","","set_stims","","","","","","","","","","","","","","","",""
"-1","-1","poldrack-single-stim","11","22254","0.0-5.0-6.0","sub-12_ses-01_2","","500","0","fixation","","<div class = upperbox><div class = fixation>+</div></div><div class = lowerbox><div class = fixation>+</div></div>","none","500","practice","","","","","","","","","","",""
"-1","-1","poldrack-single-stim","12","22362","0.0-5.0-7.0","sub-12_ses-01_2","","100","0","cue","","<div class = upperbox><div class = ""center-text"" >Haut-Bas</div></div><div class = lowerbox><div class = fixation>+</div></div>","none","100","practice","Haut-Bas","orange","9","magnitude","stay","switch","1","","","",""
"710","89","poldrack-categorize","13","24875","0.0-5.0-8.0","sub-12_ses-01_2","","2000","0","stim","","<div class = upperbox><div class = ""center-text"" >Haut-Bas</div></div><div class = lowerbox><div class = ""stim-text"" style=color:orange;>9</div>","89,71","1000","practice","Haut-Bas","orange","9","magnitude","stay","switch","1","true","89","500",""
"-1","-1","poldrack-single-stim","14","25384","0.0-5.0-9.0","sub-12_ses-01_2","","500","0","gap",""," ","none","500","practice","","","","","","","","","","",""
"","","call-function","15","25385","0.0-5.0-10.0","sub-12_ses-01_2","","","","set_stims","","","","","","","","","","","","","","","",""
"-1","-1","poldrack-single-stim","16","25892","0.0-5.0-11.0","sub-12_ses-01_2","","500","0","fixation","","<div class = upperbox><div class = fixation>+</div></div><div class = lowerbox><div class = fixation>+</div></div>","none","500","practice","","","","","","","","","","",""
"-1","-1","poldrack-single-stim","17","25999","0.0-5.0-12.0","sub-12_ses-01_2","","100","0","cue","","<div class = upperbox><div class = ""center-text"" >Couleur</div></div><div class = lowerbox><div class = fixation>+</div></div>","none","100","practice","Couleur","orange","8","color","switch","stay","2","","","",""
"820","89","poldrack-categorize","18","28521","0.0-5.0-13.0","sub-12_ses-01_2","","2000","0","stim","","<div class = upperbox><div class = ""center-text"" >Couleur</div></div><div class = lowerbox><div class = ""stim-text"" style=color:orange;>8</div>","89,71","1000","practice","Couleur","orange","8","color","switch","stay","2","true","89","500",""
"-1","-1","poldrack-single-stim","19","29030","0.0-5.0-14.0","sub-12_ses-01_2","","500","0","gap",""," ","none","500","practice","","","","","","","","","","",""
"","","call-function","20","29030","0.0-5.0-15.0","sub-12_ses-01_2","","","","set_stims","","","","","","","","","","","","","","","",""
"-1","-1","poldrack-single-stim","21","29537","0.0-5.0-16.0","sub-12_ses-01_2","","500","0","fixation","","<div class = upperbox><div class = fixation>+</div></div><div class = lowerbox><div class = fixation>+</div></div>","none","500","practice","","","","","","","","","","",""
"-1","-1","poldrack-single-stim","22","29646","0.0-5.0-17.0","sub-12_ses-01_2","","100","0","cue","","<div class = upperbox><div class = ""center-text"" >Haut-Bas</div></div><div class = lowerbox><div class = fixation>+</div></div>","none","100","practice","Haut-Bas","orange","7","magnitude","switch","switch","3","","","",""
"612","89","poldrack-categorize","23","32171","0.0-5.0-18.0","sub-12_ses-01_2","","2000","0","stim","","<div class = upperbox><div class = ""center-text"" >Haut-Bas</div></div><div class = lowerbox><div class = ""stim-text"" style=color:orange;>7</div>","89,71","1000","practice","Haut-Bas","orange","7","magnitude","switch","switch","3","true","89","500",""
"-1","-1","poldrack-single-stim","24","32680","0.0-5.0-19.0","sub-12_ses-01_2","","500","0","gap",""," ","none","500","practice","","","","","","","","","","",""
"","","call-function","25","32680","0.0-5.0-20.0","sub-12_ses-01_2","","","","set_stims","","","","","","","","","","","","","","","",""
"-1","-1","poldrack-single-stim","26","33187","0.0-5.0-21.0","sub-12_ses-01_2","","500","0","fixation","","<div class = upperbox><div class = fixation>+</div></div><div class = lowerbox><div class = fixation>+</div></div>","none","500","practice","","","","","","","","","","",""
"-1","-1","poldrack-single-stim","27","34100","0.0-5.0-22.0","sub-12_ses-01_2","","900","0","cue","","<div class = upperbox><div class = ""center-text"" >Haut-Bas</div></div><div class = lowerbox><div class = fixation>+</div></div>","none","900","practice","Haut-Bas","orange","3","magnitude","stay","stay","4","","","",""
"425","71","poldrack-categorize","28","36628","0.0-5.0-23.0","sub-12_ses-01_2","","2000","0","stim","","<div class = upperbox><div class = ""center-text"" >Haut-Bas</div></div><div class = lowerbox><div class = ""stim-text"" style=color:orange;>3</div>","89,71","1000","practice","Haut-Bas","orange","3","magnitude","stay","stay","4","true","71","500",""
"-1","-1","poldrack-single-stim","29","37137","0.0-5.0-24.0","sub-12_ses-01_2","","500","0","gap",""," ","none","500","practice","","","","","","","","","","",""
"","","call-function","30","37138","0.0-5.0-25.0","sub-12_ses-01_2","","","","set_stims","","","","","","","","","","","","","","","",""
"-1","-1","poldrack-single-stim","31","37643","0.0-5.0-26.0","sub-12_ses-01_2","","500","0","fixation","","<div class = upperbox><div class = fixation>+</div></div><div class = lowerbox><div class = fixation>+</div></div>","none","500","practice","","","","","","","","","","",""
"-1","-1","poldrack-single-stim","32","38556","0.0-5.0-27.0","sub-12_ses-01_2","","900","0","cue","","<div class = upperbox><div class = ""center-text"" >Amplitude</div></div><div class = lowerbox><div class = fixation>+</div></div>","none","900","practice","Amplitude","#1F45FC","3","magnitude","stay","switch","5","","","",""
"530","71","poldrack-categorize","33","41084","0.0-5.0-28.0","sub-12_ses-01_2","","2000","0","stim","","<div class = upperbox><div class = ""center-text"" >Amplitude</div></div><div class = lowerbox><div class = ""stim-text"" style=color:#1F45FC;>3</div>","89,71","1000","practice","Amplitude","#1F45FC","3","magnitude","stay","switch","5","true","71","500",""
"-1","-1","poldrack-single-stim","34","41592","0.0-5.0-29.0","sub-12_ses-01_2","","500","0","gap",""," ","none","500","practice","","","","","","","","","","",""
"","","call-function","35","41592","0.0-5.0-30.0","sub-12_ses-01_2","","","","set_stims","","","","","","","","","","","","","","","",""
"-1","-1","poldrack-single-stim","36","42101","0.0-5.0-31.0","sub-12_ses-01_2","","500","0","fixation","","<div class = upperbox><div class = fixation>+</div></div><div class = lowerbox><div class = fixation>+</div></div>","none","500","practice","","","","","","","","","","",""
"-1","-1","poldrack-single-stim","37","42210","0.0-5.0-32.0","sub-12_ses-01_2","","100","0","cue","","<div class = upperbox><div class = ""center-text"" >Haut-Bas</div></div><div class = lowerbox><div class = fixation>+</div></div>","none","100","practice","Haut-Bas","orange","9","magnitude","stay","switch","6","","","",""
"615","89","poldrack-categorize","38","44735","0.0-5.0-33.0","sub-12_ses-01_2","","2000","0","stim","","<div class = upperbox><div class = ""center-text"" >Haut-Bas</div></div><div class = lowerbox><div class = ""stim-text"" style=color:orange;>9</div>","89,71","1000","practice","Haut-Bas","orange","9","magnitude","stay","switch","6","true","89","500",""
"-1","-1","poldrack-single-stim","39","45245","0.0-5.0-34.0","sub-12_ses-01_2","","500","0","gap",""," ","none","500","practice","","","","","","","","","","",""
"","","call-function","40","45246","0.0-5.0-35.0","sub-12_ses-01_2","","","","set_stims","","","","","","","","","","","","","","","",""
"-1","-1","poldrack-single-stim","41","45754","0.0-5.0-36.0","sub-12_ses-01_2","","500","0","fixation","","<div class = upperbox><div class = fixation>+</div></div><div class = lowerbox><div class = fixation>+</div></div>","none","500","practice","","","","","","","","","","",""
"-1","-1","poldrack-single-stim","42","46669","0.0-5.0-37.0","sub-12_ses-01_2","","900","0","cue","","<div class = upperbox><div class = ""center-text"" >Couleur</div></div><div class = lowerbox><div class = fixation>+</div></div>","none","900","practice","Couleur","orange","2","color","switch","stay","7","","","",""
"505","89","poldrack-categorize","43","49198","0.0-5.0-38.0","sub-12_ses-01_2","","2000","0","stim","","<div class = upperbox><div class = ""center-text"" >Couleur</div></div><div class = lowerbox><div class = ""stim-text"" style=color:orange;>2</div>","89,71","1000","practice","Couleur","orange","2","color","switch","stay","7","true","89","500",""
"-1","-1","poldrack-single-stim","44","49706","0.0-5.0-39.0","sub-12_ses-01_2","","500","0","gap",""," ","none","500","practice","","","","","","","","","","",""
"","","call-function","45","49707","0.0-5.0-40.0","sub-12_ses-01_2","","","","set_stims","","","","","","","","","","","","","","","",""
"-1","-1","poldrack-single-stim","46","50214","0.0-5.0-41.0","sub-12_ses-01_2","","500","0","fixation","","<div class = upperbox><div class = fixation>+</div></div><div class = lowerbox><div class = fixation>+</div></div>","none","500","practice","","","","","","","","","","",""
"-1","-1","poldrack-single-stim","47","50322","0.0-5.0-42.0","sub-12_ses-01_2","","100","0","cue","","<div class = upperbox><div class = ""center-text"" >Couleur</div></div><div class = lowerbox><div class = fixation>+</div></div>","none","100","practice","Couleur","#1F45FC","1","color","stay","stay","8","","","",""
"524","71","poldrack-categorize","48","52855","0.0-5.0-43.0","sub-12_ses-01_2","","2000","0","stim","","<div class = upperbox><div class = ""center-text"" >Couleur</div></div><div class = lowerbox><div class = ""stim-text"" style=color:#1F45FC;>1</div>","89,71","1000","practice","Couleur","#1F45FC","1","color","stay","stay","8","true","71","500",""
"-1","-1","poldrack-single-stim","49","53362","0.0-5.0-44.0","sub-12_ses-01_2","","500","0","gap",""," ","none","500","practice","","","","","","","","","","",""
"","","call-function","50","53363","0.0-5.0-45.0","sub-12_ses-01_2","","","","set_stims","","","","","","","","","","","","","","","",""
"-1","-1","poldrack-single-stim","51","53869","0.0-5.0-46.0","sub-12_ses-01_2","","500","0","fixation","","<div class = upperbox><div class = fixation>+</div></div><div class = lowerbox><div class = fixation>+</div></div>","none","500","practice","","","","","","","","","","",""
"-1","-1","poldrack-single-stim","52","53978","0.0-5.0-47.0","sub-12_ses-01_2","","100","0","cue","","<div class = upperbox><div class = ""center-text"" >Couleur</div></div><div class = lowerbox><div class = fixation>+</div></div>","none","100","practice","Couleur","orange","4","color","stay","stay","9","","","",""
"816","89","poldrack-categorize","53","56492","0.0-5.0-48.0","sub-12_ses-01_2","","2000","0","stim","","<div class = upperbox><div class = ""center-text"" >Couleur</div></div><div class = lowerbox><div class = ""stim-text"" style=color:orange;>4</div>","89,71","1000","practice","Couleur","orange","4","color","stay","stay","9","true","89","500",""
"-1","-1","poldrack-single-stim","54","57000","0.0-5.0-49.0","sub-12_ses-01_2","","500","0","gap",""," ","none","500","practice","","","","","","","","","","",""
"","","call-function","55","57000","0.0-5.0-50.0","sub-12_ses-01_2","","","","set_stims","","","","","","","","","","","","","","","",""
"-1","-1","poldrack-single-stim","56","57510","0.0-5.0-51.0","sub-12_ses-01_2","","500","0","fixation","","<div class = upperbox><div class = fixation>+</div></div><div class = lowerbox><div class = fixation>+</div></div>","none","500","practice","","","","","","","","","","",""
"-1","-1","poldrack-single-stim","57","58423","0.0-5.0-52.0","sub-12_ses-01_2","","900","0","cue","","<div class = upperbox><div class = ""center-text"" >Amplitude</div></div><div class = lowerbox><div class = fixation>+</div></div>","none","900","practice","Amplitude","#1F45FC","9","magnitude","switch","switch","10","","","",""
"483","89","poldrack-categorize","58","60941","0.0-5.0-53.0","sub-12_ses-01_2","","2000","0","stim","","<div class = upperbox><div class = ""center-text"" >Amplitude</div></div><div class = lowerbox><div class = ""stim-text"" style=color:#1F45FC;>9</div>","89,71","1000","practice","Amplitude","#1F45FC","9","magnitude","switch","switch","10","true","89","500",""
"-1","-1","poldrack-single-stim","59","61451","0.0-5.0-54.0","sub-12_ses-01_2","","500","0","gap",""," ","none","500","practice","","","","","","","","","","",""
"","","call-function","60","61451","0.0-5.0-55.0","sub-12_ses-01_2","","","","set_stims","","","","","","","","","","","","","","","",""
"-1","-1","poldrack-single-stim","61","61959","0.0-5.0-56.0","sub-12_ses-01_2","","500","0","fixation","","<div class = upperbox><div class = fixation>+</div></div><div class = lowerbox><div class = fixation>+</div></div>","none","500","practice","","","","","","","","","","",""
"-1","-1","poldrack-single-stim","62","62868","0.0-5.0-57.0","sub-12_ses-01_2","","900","0","cue","","<div class = upperbox><div class = ""center-text"" >Amplitude</div></div><div class = lowerbox><div class = fixation>+</div></div>","none","900","practice","Amplitude","#1F45FC","6","magnitude","stay","stay","11","","","",""
"580","89","poldrack-categorize","63","65398","0.0-5.0-58.0","sub-12_ses-01_2","","2000","0","stim","","<div class = upperbox><div class = ""center-text"" >Amplitude</div></div><div class = lowerbox><div class = ""stim-text"" style=color:#1F45FC;>6</div>","89,71","1000","practice","Amplitude","#1F45FC","6","magnitude","stay","stay","11","true","89","500",""
"-1","-1","poldrack-single-stim","64","65954","0.0-5.0-59.0","sub-12_ses-01_2","","500","0","gap",""," ","none","500","practice","","","","","","","","","","",""
"","","call-function","65","65955","0.0-5.0-60.0","sub-12_ses-01_2","","","","set_stims","","","","","","","","","","","","","","","",""
"-1","-1","poldrack-single-stim","66","66462","0.0-5.0-61.0","sub-12_ses-01_2","","500","0","fixation","","<div class = upperbox><div class = fixation>+</div></div><div class = lowerbox><div class = fixation>+</div></div>","none","500","practice","","","","","","","","","","",""
"-1","-1","poldrack-single-stim","67","66570","0.0-5.0-62.0","sub-12_ses-01_2","","100","0","cue","","<div class = upperbox><div class = ""center-text"" >Couleur</div></div><div class = lowerbox><div class = fixation>+</div></div>","none","100","practice","Couleur","orange","9","color","switch","switch","12","","","",""
"614","89","poldrack-categorize","68","69080","0.0-5.0-63.0","sub-12_ses-01_2","","2000","0","stim","","<div class = upperbox><div class = ""center-text"" >Couleur</div></div><div class = lowerbox><div class = ""stim-text"" style=color:orange;>9</div>","89,71","1000","practice","Couleur","orange","9","color","switch","switch","12","true","89","500",""
"-1","-1","poldrack-single-stim","69","69587","0.0-5.0-64.0","sub-12_ses-01_2","","500","0","gap",""," ","none","500","practice","","","","","","","","","","",""
"","","call-function","70","69587","0.0-5.0-65.0","sub-12_ses-01_2","","","","set_stims","","","","","","","","","","","","","","","",""
"-1","-1","poldrack-single-stim","71","70097","0.0-5.0-66.0","sub-12_ses-01_2","","500","0","fixation","","<div class = upperbox><div class = fixation>+</div></div><div class = lowerbox><div class = fixation>+</div></div>","none","500","practice","","","","","","","","","","",""
"-1","-1","poldrack-single-stim","72","71013","0.0-5.0-67.0","sub-12_ses-01_2","","900","0","cue","","<div class = upperbox><div class = ""center-text"" >Amplitude</div></div><div class = lowerbox><div class = fixation>+</div></div>","none","900","practice","Amplitude","orange","4","magnitude","switch","stay","13","","","",""
"502","71","poldrack-categorize","73","73536","0.0-5.0-68.0","sub-12_ses-01_2","","2000","0","stim","","<div class = upperbox><div class = ""center-text"" >Amplitude</div></div><div class = lowerbox><div class = ""stim-text"" style=color:orange;>4</div>","89,71","1000","practice","Amplitude","orange","4","magnitude","switch","stay","13","true","71","500",""
"-1","-1","poldrack-single-stim","74","74046","0.0-5.0-69.0","sub-12_ses-01_2","","500","0","gap",""," ","none","500","practice","","","","","","","","","","",""
"","","call-function","75","74047","0.0-5.0-70.0","sub-12_ses-01_2","","","","set_stims","","","","","","","","","","","","","","","",""
"-1","-1","poldrack-single-stim","76","74553","0.0-5.0-71.0","sub-12_ses-01_2","","500","0","fixation","","<div class = upperbox><div class = fixation>+</div></div><div class = lowerbox><div class = fixation>+</div></div>","none","500","practice","","","","","","","","","","",""
"-1","-1","poldrack-single-stim","77","75462","0.0-5.0-72.0","sub-12_ses-01_2","","900","0","cue","","<div class = upperbox><div class = ""center-text"" >Orange-Bleu</div></div><div class = lowerbox><div class = fixation>+</div></div>","none","900","practice","Orange-Bleu","#1F45FC","1","color","switch","switch","14","","","",""
"747","71","poldrack-categorize","78","77981","0.0-5.0-73.0","sub-12_ses-01_2","","2000","0","stim","","<div class = upperbox><div class = ""center-text"" >Orange-Bleu</div></div><div class = lowerbox><div class = ""stim-text"" style=color:#1F45FC;>1</div>","89,71","1000","practice","Orange-Bleu","#1F45FC","1","color","switch","switch","14","true","71","500",""
"-1","-1","poldrack-single-stim","79","78496","0.0-5.0-74.0","sub-12_ses-01_2","","500","0","gap",""," ","none","500","practice","","","","","","","","","","",""
"","","call-function","80","78497","0.0-5.0-75.0","sub-12_ses-01_2","","","","set_stims","","","","","","","","","","","","","","","",""
"-1","-1","poldrack-single-stim","81","79004","0.0-5.0-76.0","sub-12_ses-01_2","","500","0","fixation","","<div class = upperbox><div class = fixation>+</div></div><div class = lowerbox><div class = fixation>+</div></div>","none","500","practice","","","","","","","","","","",""
"-1","-1","poldrack-single-stim","82","79916","0.0-5.0-77.0","sub-12_ses-01_2","","900","0","cue","","<div class = upperbox><div class = ""center-text"" >Couleur</div></div><div class = lowerbox><div class = fixation>+</div></div>","none","900","practice","Couleur","orange","9","color","stay","switch","15","","","",""
"509","89","poldrack-categorize","83","82431","0.0-5.0-78.0","sub-12_ses-01_2","","2000","0","stim","","<div class = upperbox><div class = ""center-text"" >Couleur</div></div><div class = lowerbox><div class = ""stim-text"" style=color:orange;>9</div>","89,71","1000","practice","Couleur","orange","9","color","stay","switch","15","true","89","500",""
"-1","-1","poldrack-single-stim","84","82942","0.0-5.0-79.0","sub-12_ses-01_2","","500","0","gap",""," ","none","500","practice","","","","","","","","","","",""
"2472","32","poldrack-text","85","85427","0.0-6.0","sub-12_ses-01_2","<div class = centerbox><div  class = center-text>Scanner Setup</div></div>","2472","0","fmri_scanner_wait","","","","","","","","","","","","","","","",""
"54382","84","poldrack-text","86","139812","0.0-7.0","sub-12_ses-01_2","<div class = centerbox><div style='color:red'; class = center-text>+</div></div>","54382","0","fmri_trigger_wait","","","","","","","","","","","","","","","",""
"-1","-1","poldrack-single-stim","87","140829","0.0-8.0","sub-12_ses-01_2","","1000","0","fmri_buffer","","","none","1000","","","","","","","","","","","",""
"-1","-1","poldrack-single-stim","88","142343","0.0-9.0","sub-12_ses-01_2","","1500","500","test_start_block","","<div class = centerbox><div class = center-text>Preparez-vous!</p></div>","none","1500","","","","","","","","","","","",""
"-1","-1","poldrack-single-stim","89","143363","0.0-10.0","sub-12_ses-01_2","","500","0","fixation","","<div class = upperbox><div class = fixation>+</div></div><div class = lowerbox><div class = fixation>+</div></div>","none","500","test","","","","","","","","","","",""
"","","call-function","90","143363","0.0-11.0","sub-12_ses-01_2","","","","set_stims","","","","","","","","","","","","","","","",""
"-1","-1","poldrack-single-stim","91","143471","0.0-12.0","sub-12_ses-01_2","","100","0","cue","","<div class = upperbox><div class = ""center-text"" >Couleur</div></div><div class = lowerbox><div class = fixation>+</div></div>","none","100","test","Couleur","#1F45FC","6","color","stay","stay","0","","","",""
"1094","71","poldrack-single-stim","92","146705","0.0-13.0","sub-12_ses-01_2","","3224","0","stim","","<div class = upperbox><div class = ""center-text"" >Couleur</div></div><div class = lowerbox><div class = ""stim-text"" style=color:#1F45FC;>6</div>","89,71","1000","test","Couleur","#1F45FC","6","color","stay","stay","0","true","71","",""
"","","call-function","93","146706","0.0-14.0","sub-12_ses-01_2","","","","set_stims","","","","","","","","","","","","","","","",""
"-1","-1","poldrack-single-stim","94","146813","0.0-15.0","sub-12_ses-01_2","","100","0","cue","","<div class = upperbox><div class = ""center-text"" >Amplitude</div></div><div class = lowerbox><div class = fixation>+</div></div>","none","100","test","Amplitude","orange","9","magnitude","switch","stay","1","","","",""
"670","89","poldrack-single-stim","95","149231","0.0-16.0","sub-12_ses-01_2","","2408","0","stim","","<div class = upperbox><div class = ""center-text"" >Amplitude</div></div><div class = lowerbox><div class = ""stim-text"" style=color:orange;>9</div>","89,71","1000","test","Amplitude","orange","9","magnitude","switch","stay","1","true","89","",""
"","","call-function","96","149232","0.0-17.0","sub-12_ses-01_2","","","","set_stims","","","","","","","","","","","","","","","",""
"-1","-1","poldrack-single-stim","97","150145","0.0-18.0","sub-12_ses-01_2","","900","0","cue","","<div class = upperbox><div class = ""center-text"" >Couleur</div></div><div class = lowerbox><div class = fixation>+</div></div>","none","900","test","Couleur","orange","8","color","switch","stay","2","","","",""
"530","89","poldrack-single-stim","98","152975","0.0-19.0","sub-12_ses-01_2","","2816","0","stim","","<div class = upperbox><div class = ""center-text"" >Couleur</div></div><div class = lowerbox><div class = ""stim-text"" style=color:orange;>8</div>","89,71","1000","test","Couleur","orange","8","color","switch","stay","2","true","89","",""
"","","call-function","99","152976","0.0-20.0","sub-12_ses-01_2","","","","set_stims","","","","","","","","","","","","","","","",""
"-1","-1","poldrack-single-stim","100","153892","0.0-21.0","sub-12_ses-01_2","","900","0","cue","","<div class = upperbox><div class = ""center-text"" >Haut-Bas</div></div><div class = lowerbox><div class = fixation>+</div></div>","none","900","test","Haut-Bas","orange","7","magnitude","switch","stay","3","","","",""
"536","89","poldrack-single-stim","101","156309","0.0-22.0","sub-12_ses-01_2","","2408","0","stim","","<div class = upperbox><div class = ""center-text"" >Haut-Bas</div></div><div class = lowerbox><div class = ""stim-text"" style=color:orange;>7</div>","89,71","1000","test","Haut-Bas","orange","7","magnitude","switch","stay","3","true","89","",""
"","","call-function","102","156311","0.0-23.0","sub-12_ses-01_2","","","","set_stims","","","","","","","","","","","","","","","",""
"-1","-1","poldrack-single-stim","103","157224","0.0-24.0","sub-12_ses-01_2","","900","0","cue","","<div class = upperbox><div class = ""center-text"" >Couleur</div></div><div class = lowerbox><div class = fixation>+</div></div>","none","900","test","Couleur","orange","3","color","switch","stay","4","","","",""
"690","89","poldrack-single-stim","104","159367","0.0-25.0","sub-12_ses-01_2","","2136","0","stim","","<div class = upperbox><div class = ""center-text"" >Couleur</div></div><div class = lowerbox><div class = ""stim-text"" style=color:orange;>3</div>","89,71","1000","test","Couleur","orange","3","color","switch","stay","4","true","89","",""
"","","call-function","105","159368","0.0-26.0","sub-12_ses-01_2","","","","set_stims","","","","","","","","","","","","","","","",""
"-1","-1","poldrack-single-stim","106","160291","0.0-27.0","sub-12_ses-01_2","","900","0","cue","","<div class = upperbox><div class = ""center-text"" >Couleur</div></div><div class = lowerbox><div class = fixation>+</div></div>","none","900","test","Couleur","#1F45FC","3","color","stay","stay","5","","","",""
"412","71","poldrack-single-stim","107","162446","0.0-28.0","sub-12_ses-01_2","","2136","0","stim","","<div class = upperbox><div class = ""center-text"" >Couleur</div></div><div class = lowerbox><div class = ""stim-text"" style=color:#1F45FC;>3</div>","89,71","1000","test","Couleur","#1F45FC","3","color","stay","stay","5","true","71","",""
"","","call-function","108","162447","0.0-29.0","sub-12_ses-01_2","","","","set_stims","","","","","","","","","","","","","","","",""
"-1","-1","poldrack-single-stim","109","162555","0.0-30.0","sub-12_ses-01_2","","100","0","cue","","<div class = upperbox><div class = ""center-text"" >Orange-Bleu</div></div><div class = lowerbox><div class = fixation>+</div></div>","none","100","test","Orange-Bleu","orange","9","color","stay","switch","6","","","",""
"1019","89","poldrack-single-stim","110","164562","0.0-31.0","sub-12_ses-01_2","","2000","0","stim","","<div class = upperbox><div class = ""center-text"" >Orange-Bleu</div></div><div class = lowerbox><div class = ""stim-text"" style=color:orange;>9</div>","89,71","1000","test","Orange-Bleu","orange","9","color","stay","switch","6","true","89","",""
"","","call-function","111","164563","0.0-32.0","sub-12_ses-01_2","","","","set_stims","","","","","","","","","","","","","","","",""
"-1","-1","poldrack-single-stim","112","165471","0.0-33.0","sub-12_ses-01_2","","900","0","cue","","<div class = upperbox><div class = ""center-text"" >Couleur</div></div><div class = lowerbox><div class = fixation>+</div></div>","none","900","test","Couleur","orange","2","color","stay","switch","7","","","",""
"577","89","poldrack-single-stim","113","167488","0.0-34.0","sub-12_ses-01_2","","2000","0","stim","","<div class = upperbox><div class = ""center-text"" >Couleur</div></div><div class = lowerbox><div class = ""stim-text"" style=color:orange;>2</div>","89,71","1000","test","Couleur","orange","2","color","stay","switch","7","true","89","",""
"","","call-function","114","167489","0.0-35.0","sub-12_ses-01_2","","","","set_stims","","","","","","","","","","","","","","","",""
"-1","-1","poldrack-single-stim","115","168397","0.0-36.0","sub-12_ses-01_2","","900","0","cue","","<div class = upperbox><div class = ""center-text"" >Amplitude</div></div><div class = lowerbox><div class = fixation>+</div></div>","none","900","test","Amplitude","#1F45FC","1","magnitude","switch","switch","8","","","",""
"557","71","poldrack-single-stim","116","170676","0.0-37.0","sub-12_ses-01_2","","2272","0","stim","","<div class = upperbox><div class = ""center-text"" >Amplitude</div></div><div class = lowerbox><div class = ""stim-text"" style=color:#1F45FC;>1</div>","89,71","1000","test","Amplitude","#1F45FC","1","magnitude","switch","switch","8","true","71","",""
"","","call-function","117","170676","0.0-38.0","sub-12_ses-01_2","","","","set_stims","","","","","","","","","","","","","","","",""
"-1","-1","poldrack-single-stim","118","170784","0.0-39.0","sub-12_ses-01_2","","100","0","cue","","<div class = upperbox><div class = ""center-text"" >Couleur</div></div><div class = lowerbox><div class = fixation>+</div></div>","none","100","test","Couleur","orange","4","color","switch","stay","9","","","",""
"738","89","poldrack-single-stim","119","173202","0.0-40.0","sub-12_ses-01_2","","2408","0","stim","","<div class = upperbox><div class = ""center-text"" >Couleur</div></div><div class = lowerbox><div class = ""stim-text"" style=color:orange;>4</div>","89,71","1000","test","Couleur","orange","4","color","switch","stay","9","true","89","",""
"","","call-function","120","173203","0.0-41.0","sub-12_ses-01_2","","","","set_stims","","","","","","","","","","","","","","","",""
"-1","-1","poldrack-single-stim","121","174112","0.0-42.0","sub-12_ses-01_2","","900","0","cue","","<div class = upperbox><div class = ""center-text"" >Haut-Bas</div></div><div class = lowerbox><div class = fixation>+</div></div>","none","900","test","Haut-Bas","#1F45FC","9","magnitude","switch","stay","10","","","",""
"454","89","poldrack-single-stim","122","176117","0.0-43.0","sub-12_ses-01_2","","2000","0","stim","","<div class = upperbox><div class = ""center-text"" >Haut-Bas</div></div><div class = lowerbox><div class = ""stim-text"" style=color:#1F45FC;>9</div>","89,71","1000","test","Haut-Bas","#1F45FC","9","magnitude","switch","stay","10","true","89","",""
"","","call-function","123","176118","0.0-44.0","sub-12_ses-01_2","","","","set_stims","","","","","","","","","","","","","","","",""
"-1","-1","poldrack-single-stim","124","176225","0.0-45.0","sub-12_ses-01_2","","100","0","cue","","<div class = upperbox><div class = ""center-text"" >Amplitude</div></div><div class = lowerbox><div class = fixation>+</div></div>","none","100","test","Amplitude","#1F45FC","6","magnitude","stay","switch","11","","","",""
"784","89","poldrack-single-stim","125","178366","0.0-46.0","sub-12_ses-01_2","","2136","0","stim","","<div class = upperbox><div class = ""center-text"" >Amplitude</div></div><div class = lowerbox><div class = ""stim-text"" style=color:#1F45FC;>6</div>","89,71","1000","test","Amplitude","#1F45FC","6","magnitude","stay","switch","11","true","89","",""
"","","call-function","126","178367","0.0-47.0","sub-12_ses-01_2","","","","set_stims","","","","","","","","","","","","","","","",""
"-1","-1","poldrack-single-stim","127","179274","0.0-48.0","sub-12_ses-01_2","","900","0","cue","","<div class = upperbox><div class = ""center-text"" >Orange-Bleu</div></div><div class = lowerbox><div class = fixation>+</div></div>","none","900","test","Orange-Bleu","orange","9","color","switch","stay","12","","","",""
"497","89","poldrack-single-stim","128","181280","0.0-49.0","sub-12_ses-01_2","","2000","0","stim","","<div class = upperbox><div class = ""center-text"" >Orange-Bleu</div></div><div class = lowerbox><div class = ""stim-text"" style=color:orange;>9</div>","89,71","1000","test","Orange-Bleu","orange","9","color","switch","stay","12","true","89","",""
"","","call-function","129","181281","0.0-50.0","sub-12_ses-01_2","","","","set_stims","","","","","","","","","","","","","","","",""
"-1","-1","poldrack-single-stim","130","182191","0.0-51.0","sub-12_ses-01_2","","900","0","cue","","<div class = upperbox><div class = ""center-text"" >Haut-Bas</div></div><div class = lowerbox><div class = fixation>+</div></div>","none","900","test","Haut-Bas","orange","4","magnitude","switch","switch","13","","","",""
"458","71","poldrack-single-stim","131","184602","0.0-52.0","sub-12_ses-01_2","","2408","0","stim","","<div class = upperbox><div class = ""center-text"" >Haut-Bas</div></div><div class = lowerbox><div class = ""stim-text"" style=color:orange;>4</div>","89,71","1000","test","Haut-Bas","orange","4","magnitude","switch","switch","13","true","71","",""
"","","call-function","132","184603","0.0-53.0","sub-12_ses-01_2","","","","set_stims","","","","","","","","","","","","","","","",""
"-1","-1","poldrack-single-stim","133","184716","0.0-54.0","sub-12_ses-01_2","","100","0","cue","","<div class = upperbox><div class = ""center-text"" >Amplitude</div></div><div class = lowerbox><div class = fixation>+</div></div>","none","100","test","Amplitude","#1F45FC","1","magnitude","stay","switch","14","","","",""
"1112","71","poldrack-single-stim","134","186998","0.0-55.0","sub-12_ses-01_2","","2272","0","stim","","<div class = upperbox><div class = ""center-text"" >Amplitude</div></div><div class = lowerbox><div class = ""stim-text"" style=color:#1F45FC;>1</div>","89,71","1000","test","Amplitude","#1F45FC","1","magnitude","stay","switch","14","true","71","",""
"","","call-function","135","186999","0.0-56.0","sub-12_ses-01_2","","","","set_stims","","","","","","","","","","","","","","","",""
"-1","-1","poldrack-single-stim","136","187908","0.0-57.0","sub-12_ses-01_2","","900","0","cue","","<div class = upperbox><div class = ""center-text"" >Couleur</div></div><div class = lowerbox><div class = fixation>+</div></div>","none","900","test","Couleur","orange","9","color","switch","switch","15","","","",""
"547","89","poldrack-single-stim","137","189916","0.0-58.0","sub-12_ses-01_2","","2000","0","stim","","<div class = upperbox><div class = ""center-text"" >Couleur</div></div><div class = lowerbox><div class = ""stim-text"" style=color:orange;>9</div>","89,71","1000","test","Couleur","orange","9","color","switch","switch","15","true","89","",""
"","","call-function","138","189917","0.0-59.0","sub-12_ses-01_2","","","","set_stims","","","","","","","","","","","","","","","",""
"-1","-1","poldrack-single-stim","139","190025","0.0-60.0","sub-12_ses-01_2","","100","0","cue","","<div class = upperbox><div class = ""center-text"" >Orange-Bleu</div></div><div class = lowerbox><div class = fixation>+</div></div>","none","100","test","Orange-Bleu","#1F45FC","2","color","stay","switch","16","","","",""
"816","71","poldrack-single-stim","140","192307","0.0-61.0","sub-12_ses-01_2","","2272","0","stim","","<div class = upperbox><div class = ""center-text"" >Orange-Bleu</div></div><div class = lowerbox><div class = ""stim-text"" style=color:#1F45FC;>2</div>","89,71","1000","test","Orange-Bleu","#1F45FC","2","color","stay","switch","16","true","71","",""
"","","call-function","141","192308","0.0-62.0","sub-12_ses-01_2","","","","set_stims","","","","","","","","","","","","","","","",""
"-1","-1","poldrack-single-stim","142","192414","0.0-63.0","sub-12_ses-01_2","","100","0","cue","","<div class = upperbox><div class = ""center-text"" >Haut-Bas</div></div><div class = lowerbox><div class = fixation>+</div></div>","none","100","test","Haut-Bas","orange","2","magnitude","switch","switch","17","","","",""
"982","71","poldrack-single-stim","143","194417","0.0-64.0","sub-12_ses-01_2","","2000","0","stim","","<div class = upperbox><div class = ""center-text"" >Haut-Bas</div></div><div class = lowerbox><div class = ""stim-text"" style=color:orange;>2</div>","89,71","1000","test","Haut-Bas","orange","2","magnitude","switch","switch","17","true","71","",""
"","","call-function","144","194418","0.0-65.0","sub-12_ses-01_2","","","","set_stims","","","","","","","","","","","","","","","",""
"-1","-1","poldrack-single-stim","145","194525","0.0-66.0","sub-12_ses-01_2","","100","0","cue","","<div class = upperbox><div class = ""center-text"" >Couleur</div></div><div class = lowerbox><div class = fixation>+</div></div>","none","100","test","Couleur","orange","6","color","switch","switch","18","","","",""
"1015","89","poldrack-single-stim","146","196527","0.0-67.0","sub-12_ses-01_2","","2000","0","stim","","<div class = upperbox><div class = ""center-text"" >Couleur</div></div><div class = lowerbox><div class = ""stim-text"" style=color:orange;>6</div>","89,71","1000","test","Couleur","orange","6","color","switch","switch","18","true","89","",""
"","","call-function","147","196528","0.0-68.0","sub-12_ses-01_2","","","","set_stims","","","","","","","","","","","","","","","",""
"-1","-1","poldrack-single-stim","148","197443","0.0-69.0","sub-12_ses-01_2","","900","0","cue","","<div class = upperbox><div class = ""center-text"" >Couleur</div></div><div class = lowerbox><div class = fixation>+</div></div>","none","900","test","Couleur","#1F45FC","8","color","stay","stay","19","","","",""
"636","71","poldrack-single-stim","149","199730","0.0-70.0","sub-12_ses-01_2","","2272","0","stim","","<div class = upperbox><div class = ""center-text"" >Couleur</div></div><div class = lowerbox><div class = ""stim-text"" style=color:#1F45FC;>8</div>","89,71","1000","test","Couleur","#1F45FC","8","color","stay","stay","19","true","71","",""
"","","call-function","150","199730","0.0-71.0","sub-12_ses-01_2","","","","set_stims","","","","","","","","","","","","","","","",""
"-1","-1","poldrack-single-stim","151","200640","0.0-72.0","sub-12_ses-01_2","","900","0","cue","","<div class = upperbox><div class = ""center-text"" >Amplitude</div></div><div class = lowerbox><div class = fixation>+</div></div>","none","900","test","Amplitude","#1F45FC","4","magnitude","switch","stay","20","","","",""
"496","71","poldrack-single-stim","152","202781","0.0-73.0","sub-12_ses-01_2","","2136","0","stim","","<div class = upperbox><div class = ""center-text"" >Amplitude</div></div><div class = lowerbox><div class = ""stim-text"" style=color:#1F45FC;>4</div>","89,71","1000","test","Amplitude","#1F45FC","4","magnitude","switch","stay","20","true","71","",""
"","","call-function","153","202782","0.0-74.0","sub-12_ses-01_2","","","","set_stims","","","","","","","","","","","","","","","",""
"-1","-1","poldrack-single-stim","154","203690","0.0-75.0","sub-12_ses-01_2","","900","0","cue","","<div class = upperbox><div class = ""center-text"" >Orange-Bleu</div></div><div class = lowerbox><div class = fixation>+</div></div>","none","900","test","Orange-Bleu","orange","9","color","switch","stay","21","","","",""
"479","89","poldrack-single-stim","155","205693","0.0-76.0","sub-12_ses-01_2","","2000","0","stim","","<div class = upperbox><div class = ""center-text"" >Orange-Bleu</div></div><div class = lowerbox><div class = ""stim-text"" style=color:orange;>9</div>","89,71","1000","test","Orange-Bleu","orange","9","color","switch","stay","21","true","89","",""
"","","call-function","156","205693","0.0-77.0","sub-12_ses-01_2","","","","set_stims","","","","","","","","","","","","","","","",""
"-1","-1","poldrack-single-stim","157","206602","0.0-78.0","sub-12_ses-01_2","","900","0","cue","","<div class = upperbox><div class = ""center-text"" >Orange-Bleu</div></div><div class = lowerbox><div class = fixation>+</div></div>","none","900","test","Orange-Bleu","orange","3","color","stay","stay","22","","","",""
"520","89","poldrack-single-stim","158","208608","0.0-79.0","sub-12_ses-01_2","","2000","0","stim","","<div class = upperbox><div class = ""center-text"" >Orange-Bleu</div></div><div class = lowerbox><div class = ""stim-text"" style=color:orange;>3</div>","89,71","1000","test","Orange-Bleu","orange","3","color","stay","stay","22","true","89","",""
"","","call-function","159","208608","0.0-80.0","sub-12_ses-01_2","","","","set_stims","","","","","","","","","","","","","","","",""
"-1","-1","poldrack-single-stim","160","209520","0.0-81.0","sub-12_ses-01_2","","900","0","cue","","<div class = upperbox><div class = ""center-text"" >Haut-Bas</div></div><div class = lowerbox><div class = fixation>+</div></div>","none","900","test","Haut-Bas","#1F45FC","4","magnitude","switch","switch","23","","","",""
"692","71","poldrack-single-stim","161","211579","0.0-82.0","sub-12_ses-01_2","","2000","0","stim","","<div class = upperbox><div class = ""center-text"" >Haut-Bas</div></div><div class = lowerbox><div class = ""stim-text"" style=color:#1F45FC;>4</div>","89,71","1000","test","Haut-Bas","#1F45FC","4","magnitude","switch","switch","23","true","71","",""
"","","call-function","162","211580","0.0-83.0","sub-12_ses-01_2","","","","set_stims","","","","","","","","","","","","","","","",""
"-1","-1","poldrack-single-stim","163","212489","0.0-84.0","sub-12_ses-01_2","","900","0","cue","","<div class = upperbox><div class = ""center-text"" >Amplitude</div></div><div class = lowerbox><div class = fixation>+</div></div>","none","900","test","Amplitude","#1F45FC","8","magnitude","stay","switch","24","","","",""
"428","89","poldrack-single-stim","164","214511","0.0-85.0","sub-12_ses-01_2","","2000","0","stim","","<div class = upperbox><div class = ""center-text"" >Amplitude</div></div><div class = lowerbox><div class = ""stim-text"" style=color:#1F45FC;>8</div>","89,71","1000","test","Amplitude","#1F45FC","8","magnitude","stay","switch","24","true","89","",""
"","","call-function","165","214511","0.0-86.0","sub-12_ses-01_2","","","","set_stims","","","","","","","","","","","","","","","",""
"-1","-1","poldrack-single-stim","166","215424","0.0-87.0","sub-12_ses-01_2","","900","0","cue","","<div class = upperbox><div class = ""center-text"" >Amplitude</div></div><div class = lowerbox><div class = fixation>+</div></div>","none","900","test","Amplitude","#1F45FC","3","magnitude","stay","stay","25","","","",""
"444","71","poldrack-single-stim","167","217429","0.0-88.0","sub-12_ses-01_2","","2000","0","stim","","<div class = upperbox><div class = ""center-text"" >Amplitude</div></div><div class = lowerbox><div class = ""stim-text"" style=color:#1F45FC;>3</div>","89,71","1000","test","Amplitude","#1F45FC","3","magnitude","stay","stay","25","true","71","",""
"","","call-function","168","217429","0.0-89.0","sub-12_ses-01_2","","","","set_stims","","","","","","","","","","","","","","","",""
"-1","-1","poldrack-single-stim","169","218332","0.0-90.0","sub-12_ses-01_2","","900","0","cue","","<div class = upperbox><div class = ""center-text"" >Couleur</div></div><div class = lowerbox><div class = fixation>+</div></div>","none","900","test","Couleur","#1F45FC","1","color","switch","switch","26","","","",""
"420","71","poldrack-single-stim","170","220471","0.0-91.0","sub-12_ses-01_2","","2136","0","stim","","<div class = upperbox><div class = ""center-text"" >Couleur</div></div><div class = lowerbox><div class = ""stim-text"" style=color:#1F45FC;>1</div>","89,71","1000","test","Couleur","#1F45FC","1","color","switch","switch","26","true","71","",""
"","","call-function","171","220472","0.0-92.0","sub-12_ses-01_2","","","","set_stims","","","","","","","","","","","","","","","",""
"-1","-1","poldrack-single-stim","172","221380","0.0-93.0","sub-12_ses-01_2","","900","0","cue","","<div class = upperbox><div class = ""center-text"" >Couleur</div></div><div class = lowerbox><div class = fixation>+</div></div>","none","900","test","Couleur","#1F45FC","8","color","stay","stay","27","","","",""
"482","71","poldrack-single-stim","173","223384","0.0-94.0","sub-12_ses-01_2","","2000","0","stim","","<div class = upperbox><div class = ""center-text"" >Couleur</div></div><div class = lowerbox><div class = ""stim-text"" style=color:#1F45FC;>8</div>","89,71","1000","test","Couleur","#1F45FC","8","color","stay","stay","27","true","71","",""
"","","call-function","174","223385","0.0-95.0","sub-12_ses-01_2","","","","set_stims","","","","","","","","","","","","","","","",""
"-1","-1","poldrack-single-stim","175","224297","0.0-96.0","sub-12_ses-01_2","","900","0","cue","","<div class = upperbox><div class = ""center-text"" >Haut-Bas</div></div><div class = lowerbox><div class = fixation>+</div></div>","none","900","test","Haut-Bas","#1F45FC","9","magnitude","switch","switch","28","","","",""
"493","89","poldrack-single-stim","176","226312","0.0-97.0","sub-12_ses-01_2","","2000","0","stim","","<div class = upperbox><div class = ""center-text"" >Haut-Bas</div></div><div class = lowerbox><div class = ""stim-text"" style=color:#1F45FC;>9</div>","89,71","1000","test","Haut-Bas","#1F45FC","9","magnitude","switch","switch","28","true","89","",""
"","","call-function","177","226312","0.0-98.0","sub-12_ses-01_2","","","","set_stims","","","","","","","","","","","","","","","",""
"-1","-1","poldrack-single-stim","178","226421","0.0-99.0","sub-12_ses-01_2","","100","0","cue","","<div class = upperbox><div class = ""center-text"" >Amplitude</div></div><div class = lowerbox><div class = fixation>+</div></div>","none","100","test","Amplitude","orange","9","magnitude","stay","switch","29","","","",""
"728","89","poldrack-single-stim","179","228571","0.0-100.0","sub-12_ses-01_2","","2136","0","stim","","<div class = upperbox><div class = ""center-text"" >Amplitude</div></div><div class = lowerbox><div class = ""stim-text"" style=color:orange;>9</div>","89,71","1000","test","Amplitude","orange","9","magnitude","stay","switch","29","true","89","",""
"","","call-function","180","228572","0.0-101.0","sub-12_ses-01_2","","","","set_stims","","","","","","","","","","","","","","","",""
"-1","-1","poldrack-single-stim","181","229482","0.0-102.0","sub-12_ses-01_2","","900","0","cue","","<div class = upperbox><div class = ""center-text"" >Haut-Bas</div></div><div class = lowerbox><div class = fixation>+</div></div>","none","900","test","Haut-Bas","orange","4","magnitude","stay","switch","30","","","",""
"776","71","poldrack-single-stim","182","231490","0.0-103.0","sub-12_ses-01_2","","2000","0","stim","","<div class = upperbox><div class = ""center-text"" >Haut-Bas</div></div><div class = lowerbox><div class = ""stim-text"" style=color:orange;>4</div>","89,71","1000","test","Haut-Bas","orange","4","magnitude","stay","switch","30","true","71","",""
"","","call-function","183","231491","0.0-104.0","sub-12_ses-01_2","","","","set_stims","","","","","","","","","","","","","","","",""
"-1","-1","poldrack-single-stim","184","231598","0.0-105.0","sub-12_ses-01_2","","100","0","cue","","<div class = upperbox><div class = ""center-text"" >Orange-Bleu</div></div><div class = lowerbox><div class = fixation>+</div></div>","none","100","test","Orange-Bleu","orange","3","color","switch","stay","31","","","",""
"850","89","poldrack-single-stim","185","233740","0.0-106.0","sub-12_ses-01_2","","2136","0","stim","","<div class = upperbox><div class = ""center-text"" >Orange-Bleu</div></div><div class = lowerbox><div class = ""stim-text"" style=color:orange;>3</div>","89,71","1000","test","Orange-Bleu","orange","3","color","switch","stay","31","true","89","",""
"","","call-function","186","233740","0.0-107.0","sub-12_ses-01_2","","","","set_stims","","","","","","","","","","","","","","","",""
"-1","-1","poldrack-single-stim","187","233847","0.0-108.0","sub-12_ses-01_2","","100","0","cue","","<div class = upperbox><div class = ""center-text"" >Haut-Bas</div></div><div class = lowerbox><div class = fixation>+</div></div>","none","100","test","Haut-Bas","#1F45FC","3","magnitude","switch","stay","32","","","",""
"831","71","poldrack-single-stim","188","236535","0.0-109.0","sub-12_ses-01_2","","2680","0","stim","","<div class = upperbox><div class = ""center-text"" >Haut-Bas</div></div><div class = lowerbox><div class = ""stim-text"" style=color:#1F45FC;>3</div>","89,71","1000","test","Haut-Bas","#1F45FC","3","magnitude","switch","stay","32","true","71","",""
"","","call-function","189","236536","0.0-110.0","sub-12_ses-01_2","","","","set_stims","","","","","","","","","","","","","","","",""
"-1","-1","poldrack-single-stim","190","236643","0.0-111.0","sub-12_ses-01_2","","100","0","cue","","<div class = upperbox><div class = ""center-text"" >Haut-Bas</div></div><div class = lowerbox><div class = fixation>+</div></div>","none","100","test","Haut-Bas","#1F45FC","8","magnitude","stay","stay","33","","","",""
"1004","89","poldrack-single-stim","191","238920","0.0-112.0","sub-12_ses-01_2","","2272","0","stim","","<div class = upperbox><div class = ""center-text"" >Haut-Bas</div></div><div class = lowerbox><div class = ""stim-text"" style=color:#1F45FC;>8</div>","89,71","1000","test","Haut-Bas","#1F45FC","8","magnitude","stay","stay","33","true","89","",""
"","","call-function","192","238921","0.0-113.0","sub-12_ses-01_2","","","","set_stims","","","","","","","","","","","","","","","",""
"-1","-1","poldrack-single-stim","193","239029","0.0-114.0","sub-12_ses-01_2","","100","0","cue","","<div class = upperbox><div class = ""center-text"" >Haut-Bas</div></div><div class = lowerbox><div class = fixation>+</div></div>","none","100","test","Haut-Bas","#1F45FC","9","magnitude","stay","stay","34","","","",""
"608","89","poldrack-single-stim","194","241175","0.0-115.0","sub-12_ses-01_2","","2136","0","stim","","<div class = upperbox><div class = ""center-text"" >Haut-Bas</div></div><div class = lowerbox><div class = ""stim-text"" style=color:#1F45FC;>9</div>","89,71","1000","test","Haut-Bas","#1F45FC","9","magnitude","stay","stay","34","true","89","",""
"","","call-function","195","241177","0.0-116.0","sub-12_ses-01_2","","","","set_stims","","","","","","","","","","","","","","","",""
"-1","-1","poldrack-single-stim","196","242084","0.0-117.0","sub-12_ses-01_2","","900","0","cue","","<div class = upperbox><div class = ""center-text"" >Couleur</div></div><div class = lowerbox><div class = fixation>+</div></div>","none","900","test","Couleur","orange","3","color","switch","switch","35","","","",""
"439","89","poldrack-single-stim","197","244092","0.0-118.0","sub-12_ses-01_2","","2000","0","stim","","<div class = upperbox><div class = ""center-text"" >Couleur</div></div><div class = lowerbox><div class = ""stim-text"" style=color:orange;>3</div>","89,71","1000","test","Couleur","orange","3","color","switch","switch","35","true","89","",""
"","","call-function","198","244093","0.0-119.0","sub-12_ses-01_2","","","","set_stims","","","","","","","","","","","","","","","",""
"-1","-1","poldrack-single-stim","199","244995","0.0-120.0","sub-12_ses-01_2","","900","0","cue","","<div class = upperbox><div class = ""center-text"" >Amplitude</div></div><div class = lowerbox><div class = fixation>+</div></div>","none","900","test","Amplitude","orange","7","magnitude","switch","stay","36","","","",""
"469","89","poldrack-single-stim","200","247145","0.0-121.0","sub-12_ses-01_2","","2136","0","stim","","<div class = upperbox><div class = ""center-text"" >Amplitude</div></div><div class = lowerbox><div class = ""stim-text"" style=color:orange;>7</div>","89,71","1000","test","Amplitude","orange","7","magnitude","switch","stay","36","true","89","",""
"","","call-function","201","247146","0.0-122.0","sub-12_ses-01_2","","","","set_stims","","","","","","","","","","","","","","","",""
"-1","-1","poldrack-single-stim","202","248063","0.0-123.0","sub-12_ses-01_2","","900","0","cue","","<div class = upperbox><div class = ""center-text"" >Orange-Bleu</div></div><div class = lowerbox><div class = fixation>+</div></div>","none","900","test","Orange-Bleu","orange","6","color","switch","switch","37","","","",""
"357","89","poldrack-single-stim","203","250751","0.0-124.0","sub-12_ses-01_2","","2680","0","stim","","<div class = upperbox><div class = ""center-text"" >Orange-Bleu</div></div><div class = lowerbox><div class = ""stim-text"" style=color:orange;>6</div>","89,71","1000","test","Orange-Bleu","orange","6","color","switch","switch","37","true","89","",""
"","","call-function","204","250751","0.0-125.0","sub-12_ses-01_2","","","","set_stims","","","","","","","","","","","","","","","",""
"-1","-1","poldrack-single-stim","205","251665","0.0-126.0","sub-12_ses-01_2","","900","0","cue","","<div class = upperbox><div class = ""center-text"" >Amplitude</div></div><div class = lowerbox><div class = fixation>+</div></div>","none","900","test","Amplitude","#1F45FC","4","magnitude","switch","switch","38","","","",""
"584","71","poldrack-single-stim","206","253946","0.0-127.0","sub-12_ses-01_2","","2272","0","stim","","<div class = upperbox><div class = ""center-text"" >Amplitude</div></div><div class = lowerbox><div class = ""stim-text"" style=color:#1F45FC;>4</div>","89,71","1000","test","Amplitude","#1F45FC","4","magnitude","switch","switch","38","true","71","",""
"","","call-function","207","253947","0.0-128.0","sub-12_ses-01_2","","","","set_stims","","","","","","","","","","","","","","","",""
"-1","-1","poldrack-single-stim","208","254054","0.0-129.0","sub-12_ses-01_2","","100","0","cue","","<div class = upperbox><div class = ""center-text"" >Haut-Bas</div></div><div class = lowerbox><div class = fixation>+</div></div>","none","100","test","Haut-Bas","orange","4","magnitude","stay","switch","39","","","",""
"777","71","poldrack-single-stim","209","256070","0.0-130.0","sub-12_ses-01_2","","2000","0","stim","","<div class = upperbox><div class = ""center-text"" >Haut-Bas</div></div><div class = lowerbox><div class = ""stim-text"" style=color:orange;>4</div>","89,71","1000","test","Haut-Bas","orange","4","magnitude","stay","switch","39","true","71","",""
"","","call-function","210","256071","0.0-131.0","sub-12_ses-01_2","","","","set_stims","","","","","","","","","","","","","","","",""
"-1","-1","poldrack-single-stim","211","256179","0.0-132.0","sub-12_ses-01_2","","100","0","cue","","<div class = upperbox><div class = ""center-text"" >Couleur</div></div><div class = lowerbox><div class = fixation>+</div></div>","none","100","test","Couleur","orange","8","color","switch","stay","40","","","",""
"943","71","poldrack-single-stim","212","258185","0.0-133.0","sub-12_ses-01_2","","2000","0","stim","","<div class = upperbox><div class = ""center-text"" >Couleur</div></div><div class = lowerbox><div class = ""stim-text"" style=color:orange;>8</div>","89,71","1000","test","Couleur","orange","8","color","switch","stay","40","false","89","",""
"","","call-function","213","258185","0.0-134.0","sub-12_ses-01_2","","","","set_stims","","","","","","","","","","","","","","","",""
"-1","-1","poldrack-single-stim","214","259099","0.0-135.0","sub-12_ses-01_2","","900","0","cue","","<div class = upperbox><div class = ""center-text"" >Couleur</div></div><div class = lowerbox><div class = fixation>+</div></div>","none","900","test","Couleur","orange","8","color","stay","stay","41","","","",""
"498","89","poldrack-single-stim","215","261238","0.0-136.0","sub-12_ses-01_2","","2136","0","stim","","<div class = upperbox><div class = ""center-text"" >Couleur</div></div><div class = lowerbox><div class = ""stim-text"" style=color:orange;>8</div>","89,71","1000","test","Couleur","orange","8","color","stay","stay","41","true","89","",""
"","","call-function","216","261239","0.0-137.0","sub-12_ses-01_2","","","","set_stims","","","","","","","","","","","","","","","",""
"-1","-1","poldrack-single-stim","217","261346","0.0-138.0","sub-12_ses-01_2","","100","0","cue","","<div class = upperbox><div class = ""center-text"" >Couleur</div></div><div class = lowerbox><div class = fixation>+</div></div>","none","100","test","Couleur","orange","7","color","stay","stay","42","","","",""
"1083","89","poldrack-single-stim","218","263360","0.0-139.0","sub-12_ses-01_2","","2000","0","stim","","<div class = upperbox><div class = ""center-text"" >Couleur</div></div><div class = lowerbox><div class = ""stim-text"" style=color:orange;>7</div>","89,71","1000","test","Couleur","orange","7","color","stay","stay","42","true","89","",""
"","","call-function","219","263361","0.0-140.0","sub-12_ses-01_2","","","","set_stims","","","","","","","","","","","","","","","",""
"-1","-1","poldrack-single-stim","220","263469","0.0-141.0","sub-12_ses-01_2","","100","0","cue","","<div class = upperbox><div class = ""center-text"" >Couleur</div></div><div class = lowerbox><div class = fixation>+</div></div>","none","100","test","Couleur","orange","7","color","stay","stay","43","","","",""
"548","89","poldrack-single-stim","221","265477","0.0-142.0","sub-12_ses-01_2","","2000","0","stim","","<div class = upperbox><div class = ""center-text"" >Couleur</div></div><div class = lowerbox><div class = ""stim-text"" style=color:orange;>7</div>","89,71","1000","test","Couleur","orange","7","color","stay","stay","43","true","89","",""
"","","call-function","222","265478","0.0-143.0","sub-12_ses-01_2","","","","set_stims","","","","","","","","","","","","","","","",""
"-1","-1","poldrack-single-stim","223","265585","0.0-144.0","sub-12_ses-01_2","","100","0","cue","","<div class = upperbox><div class = ""center-text"" >Orange-Bleu</div></div><div class = lowerbox><div class = fixation>+</div></div>","none","100","test","Orange-Bleu","#1F45FC","7","color","stay","switch","44","","","",""
"809","71","poldrack-single-stim","224","267589","0.0-145.0","sub-12_ses-01_2","","2000","0","stim","","<div class = upperbox><div class = ""center-text"" >Orange-Bleu</div></div><div class = lowerbox><div class = ""stim-text"" style=color:#1F45FC;>7</div>","89,71","1000","test","Orange-Bleu","#1F45FC","7","color","stay","switch","44","true","71","",""
"","","call-function","225","267590","0.0-146.0","sub-12_ses-01_2","","","","set_stims","","","","","","","","","","","","","","","",""
"-1","-1","poldrack-single-stim","226","268498","0.0-147.0","sub-12_ses-01_2","","900","0","cue","","<div class = upperbox><div class = ""center-text"" >Amplitude</div></div><div class = lowerbox><div class = fixation>+</div></div>","none","900","test","Amplitude","#1F45FC","6","magnitude","switch","stay","45","","","",""
"512","89","poldrack-single-stim","227","270776","0.0-148.0","sub-12_ses-01_2","","2272","0","stim","","<div class = upperbox><div class = ""center-text"" >Amplitude</div></div><div class = lowerbox><div class = ""stim-text"" style=color:#1F45FC;>6</div>","89,71","1000","test","Amplitude","#1F45FC","6","magnitude","switch","stay","45","true","89","",""
"","","call-function","228","270777","0.0-149.0","sub-12_ses-01_2","","","","set_stims","","","","","","","","","","","","","","","",""
"-1","-1","poldrack-single-stim","229","270883","0.0-150.0","sub-12_ses-01_2","","100","0","cue","","<div class = upperbox><div class = ""center-text"" >Orange-Bleu</div></div><div class = lowerbox><div class = fixation>+</div></div>","none","100","test","Orange-Bleu","#1F45FC","1","color","switch","stay","46","","","",""
"826","71","poldrack-single-stim","230","273298","0.0-151.0","sub-12_ses-01_2","","2408","0","stim","","<div class = upperbox><div class = ""center-text"" >Orange-Bleu</div></div><div class = lowerbox><div class = ""stim-text"" style=color:#1F45FC;>1</div>","89,71","1000","test","Orange-Bleu","#1F45FC","1","color","switch","stay","46","true","71","",""
"","","call-function","231","273300","0.0-152.0","sub-12_ses-01_2","","","","set_stims","","","","","","","","","","","","","","","",""
"-1","-1","poldrack-single-stim","232","273401","0.0-153.0","sub-12_ses-01_2","","100","0","cue","","<div class = upperbox><div class = ""center-text"" >Orange-Bleu</div></div><div class = lowerbox><div class = fixation>+</div></div>","none","100","test","Orange-Bleu","orange","9","color","stay","stay","47","","","",""
"707","89","poldrack-single-stim","233","275405","0.0-154.0","sub-12_ses-01_2","","2000","0","stim","","<div class = upperbox><div class = ""center-text"" >Orange-Bleu</div></div><div class = lowerbox><div class = ""stim-text"" style=color:orange;>9</div>","89,71","1000","test","Orange-Bleu","orange","9","color","stay","stay","47","true","89","",""
"","","call-function","234","275406","0.0-155.0","sub-12_ses-01_2","","","","set_stims","","","","","","","","","","","","","","","",""
"-1","-1","poldrack-single-stim","235","275513","0.0-156.0","sub-12_ses-01_2","","100","0","cue","","<div class = upperbox><div class = ""center-text"" >Orange-Bleu</div></div><div class = lowerbox><div class = fixation>+</div></div>","none","100","test","Orange-Bleu","orange","1","color","stay","stay","48","","","",""
"627","89","poldrack-single-stim","236","277518","0.0-157.0","sub-12_ses-01_2","","2000","0","stim","","<div class = upperbox><div class = ""center-text"" >Orange-Bleu</div></div><div class = lowerbox><div class = ""stim-text"" style=color:orange;>1</div>","89,71","1000","test","Orange-Bleu","orange","1","color","stay","stay","48","true","89","",""
"","","call-function","237","277519","0.0-158.0","sub-12_ses-01_2","","","","set_stims","","","","","","","","","","","","","","","",""
"-1","-1","poldrack-single-stim","238","277626","0.0-159.0","sub-12_ses-01_2","","100","0","cue","","<div class = upperbox><div class = ""center-text"" >Haut-Bas</div></div><div class = lowerbox><div class = fixation>+</div></div>","none","100","test","Haut-Bas","#1F45FC","3","magnitude","switch","switch","49","","","",""
"620","71","poldrack-single-stim","239","279629","0.0-160.0","sub-12_ses-01_2","","2000","0","stim","","<div class = upperbox><div class = ""center-text"" >Haut-Bas</div></div><div class = lowerbox><div class = ""stim-text"" style=color:#1F45FC;>3</div>","89,71","1000","test","Haut-Bas","#1F45FC","3","magnitude","switch","switch","49","true","71","",""
"","","call-function","240","279631","0.0-161.0","sub-12_ses-01_2","","","","set_stims","","","","","","","","","","","","","","","",""
"-1","-1","poldrack-single-stim","241","279738","0.0-162.0","sub-12_ses-01_2","","100","0","cue","","<div class = upperbox><div class = ""center-text"" >Couleur</div></div><div class = lowerbox><div class = fixation>+</div></div>","none","100","test","Couleur","#1F45FC","8","color","switch","stay","50","","","",""
"863","71","poldrack-single-stim","242","282021","0.0-163.0","sub-12_ses-01_2","","2272","0","stim","","<div class = upperbox><div class = ""center-text"" >Couleur</div></div><div class = lowerbox><div class = ""stim-text"" style=color:#1F45FC;>8</div>","89,71","1000","test","Couleur","#1F45FC","8","color","switch","stay","50","true","71","",""
"","","call-function","243","282022","0.0-164.0","sub-12_ses-01_2","","","","set_stims","","","","","","","","","","","","","","","",""
"-1","-1","poldrack-single-stim","244","282129","0.0-165.0","sub-12_ses-01_2","","100","0","cue","","<div class = upperbox><div class = ""center-text"" >Couleur</div></div><div class = lowerbox><div class = fixation>+</div></div>","none","100","test","Couleur","#1F45FC","4","color","stay","stay","51","","","",""
"548","71","poldrack-single-stim","245","284279","0.0-166.0","sub-12_ses-01_2","","2136","0","stim","","<div class = upperbox><div class = ""center-text"" >Couleur</div></div><div class = lowerbox><div class = ""stim-text"" style=color:#1F45FC;>4</div>","89,71","1000","test","Couleur","#1F45FC","4","color","stay","stay","51","true","71","",""
"","","call-function","246","284280","0.0-167.0","sub-12_ses-01_2","","","","set_stims","","","","","","","","","","","","","","","",""
"-1","-1","poldrack-single-stim","247","284387","0.0-168.0","sub-12_ses-01_2","","100","0","cue","","<div class = upperbox><div class = ""center-text"" >Haut-Bas</div></div><div class = lowerbox><div class = fixation>+</div></div>","none","100","test","Haut-Bas","#1F45FC","8","magnitude","switch","switch","52","","","",""
"759","89","poldrack-single-stim","248","286403","0.0-169.0","sub-12_ses-01_2","","2000","0","stim","","<div class = upperbox><div class = ""center-text"" >Haut-Bas</div></div><div class = lowerbox><div class = ""stim-text"" style=color:#1F45FC;>8</div>","89,71","1000","test","Haut-Bas","#1F45FC","8","magnitude","switch","switch","52","true","89","",""
"","","call-function","249","286405","0.0-170.0","sub-12_ses-01_2","","","","set_stims","","","","","","","","","","","","","","","",""
"-1","-1","poldrack-single-stim","250","286512","0.0-171.0","sub-12_ses-01_2","","100","0","cue","","<div class = upperbox><div class = ""center-text"" >Amplitude</div></div><div class = lowerbox><div class = fixation>+</div></div>","none","100","test","Amplitude","orange","2","magnitude","stay","switch","53","","","",""
"630","71","poldrack-single-stim","251","289070","0.0-172.0","sub-12_ses-01_2","","2544","0","stim","","<div class = upperbox><div class = ""center-text"" >Amplitude</div></div><div class = lowerbox><div class = ""stim-text"" style=color:orange;>2</div>","89,71","1000","test","Amplitude","orange","2","magnitude","stay","switch","53","true","71","",""
"","","call-function","252","289071","0.0-173.0","sub-12_ses-01_2","","","","set_stims","","","","","","","","","","","","","","","",""
"-1","-1","poldrack-single-stim","253","289982","0.0-174.0","sub-12_ses-01_2","","900","0","cue","","<div class = upperbox><div class = ""center-text"" >Couleur</div></div><div class = lowerbox><div class = fixation>+</div></div>","none","900","test","Couleur","#1F45FC","1","color","switch","stay","54","","","",""
"480","71","poldrack-single-stim","254","292271","0.0-175.0","sub-12_ses-01_2","","2272","0","stim","","<div class = upperbox><div class = ""center-text"" >Couleur</div></div><div class = lowerbox><div class = ""stim-text"" style=color:#1F45FC;>1</div>","89,71","1000","test","Couleur","#1F45FC","1","color","switch","stay","54","true","71","",""
"","","call-function","255","292272","0.0-176.0","sub-12_ses-01_2","","","","set_stims","","","","","","","","","","","","","","","",""
"-1","-1","poldrack-single-stim","256","292379","0.0-177.0","sub-12_ses-01_2","","100","0","cue","","<div class = upperbox><div class = ""center-text"" >Couleur</div></div><div class = lowerbox><div class = fixation>+</div></div>","none","100","test","Couleur","orange","3","color","stay","stay","55","","","",""
"642","89","poldrack-single-stim","257","294655","0.0-178.0","sub-12_ses-01_2","","2272","0","stim","","<div class = upperbox><div class = ""center-text"" >Couleur</div></div><div class = lowerbox><div class = ""stim-text"" style=color:orange;>3</div>","89,71","1000","test","Couleur","orange","3","color","stay","stay","55","true","89","",""
"","","call-function","258","294656","0.0-179.0","sub-12_ses-01_2","","","","set_stims","","","","","","","","","","","","","","","",""
"-1","-1","poldrack-single-stim","259","294764","0.0-180.0","sub-12_ses-01_2","","100","0","cue","","<div class = upperbox><div class = ""center-text"" >Orange-Bleu</div></div><div class = lowerbox><div class = fixation>+</div></div>","none","100","test","Orange-Bleu","orange","8","color","stay","switch","56","","","",""
"720","89","poldrack-single-stim","260","296769","0.0-181.0","sub-12_ses-01_2","","2000","0","stim","","<div class = upperbox><div class = ""center-text"" >Orange-Bleu</div></div><div class = lowerbox><div class = ""stim-text"" style=color:orange;>8</div>","89,71","1000","test","Orange-Bleu","orange","8","color","stay","switch","56","true","89","",""
"","","call-function","261","296771","0.0-182.0","sub-12_ses-01_2","","","","set_stims","","","","","","","","","","","","","","","",""
"-1","-1","poldrack-single-stim","262","296877","0.0-183.0","sub-12_ses-01_2","","100","0","cue","","<div class = upperbox><div class = ""center-text"" >Orange-Bleu</div></div><div class = lowerbox><div class = fixation>+</div></div>","none","100","test","Orange-Bleu","#1F45FC","9","color","stay","stay","57","","","",""
"782","71","poldrack-single-stim","263","298886","0.0-184.0","sub-12_ses-01_2","","2000","0","stim","","<div class = upperbox><div class = ""center-text"" >Orange-Bleu</div></div><div class = lowerbox><div class = ""stim-text"" style=color:#1F45FC;>9</div>","89,71","1000","test","Orange-Bleu","#1F45FC","9","color","stay","stay","57","true","71","",""
"","","call-function","264","298886","0.0-185.0","sub-12_ses-01_2","","","","set_stims","","","","","","","","","","","","","","","",""
"-1","-1","poldrack-single-stim","265","298994","0.0-186.0","sub-12_ses-01_2","","100","0","cue","","<div class = upperbox><div class = ""center-text"" >Haut-Bas</div></div><div class = lowerbox><div class = fixation>+</div></div>","none","100","test","Haut-Bas","#1F45FC","4","magnitude","switch","stay","58","","","",""
"689","71","poldrack-single-stim","266","301144","0.0-187.0","sub-12_ses-01_2","","2136","0","stim","","<div class = upperbox><div class = ""center-text"" >Haut-Bas</div></div><div class = lowerbox><div class = ""stim-text"" style=color:#1F45FC;>4</div>","89,71","1000","test","Haut-Bas","#1F45FC","4","magnitude","switch","stay","58","true","71","",""
"","","call-function","267","301146","0.0-188.0","sub-12_ses-01_2","","","","set_stims","","","","","","","","","","","","","","","",""
"-1","-1","poldrack-single-stim","268","302050","0.0-189.0","sub-12_ses-01_2","","900","0","cue","","<div class = upperbox><div class = ""center-text"" >Couleur</div></div><div class = lowerbox><div class = fixation>+</div></div>","none","900","test","Couleur","#1F45FC","9","color","switch","stay","59","","","",""
"690","89","poldrack-single-stim","269","304065","0.0-190.0","sub-12_ses-01_2","","2000","0","stim","","<div class = upperbox><div class = ""center-text"" >Couleur</div></div><div class = lowerbox><div class = ""stim-text"" style=color:#1F45FC;>9</div>","89,71","1000","test","Couleur","#1F45FC","9","color","switch","stay","59","false","71","",""
"","","call-function","270","304066","0.0-191.0","sub-12_ses-01_2","","","","set_stims","","","","","","","","","","","","","","","",""
"-1","-1","poldrack-single-stim","271","304173","0.0-192.0","sub-12_ses-01_2","","100","0","cue","","<div class = upperbox><div class = ""center-text"" >Orange-Bleu</div></div><div class = lowerbox><div class = fixation>+</div></div>","none","100","test","Orange-Bleu","#1F45FC","1","color","stay","switch","60","","","",""
"987","71","poldrack-single-stim","272","306317","0.0-193.0","sub-12_ses-01_2","","2136","0","stim","","<div class = upperbox><div class = ""center-text"" >Orange-Bleu</div></div><div class = lowerbox><div class = ""stim-text"" style=color:#1F45FC;>1</div>","89,71","1000","test","Orange-Bleu","#1F45FC","1","color","stay","switch","60","true","71","",""
"","","call-function","273","306319","0.0-194.0","sub-12_ses-01_2","","","","set_stims","","","","","","","","","","","","","","","",""
"-1","-1","poldrack-single-stim","274","306424","0.0-195.0","sub-12_ses-01_2","","100","0","cue","","<div class = upperbox><div class = ""center-text"" >Haut-Bas</div></div><div class = lowerbox><div class = fixation>+</div></div>","none","100","test","Haut-Bas","#1F45FC","1","magnitude","switch","switch","61","","","",""
"1043","71","poldrack-single-stim","275","308702","0.0-196.0","sub-12_ses-01_2","","2272","0","stim","","<div class = upperbox><div class = ""center-text"" >Haut-Bas</div></div><div class = lowerbox><div class = ""stim-text"" style=color:#1F45FC;>1</div>","89,71","1000","test","Haut-Bas","#1F45FC","1","magnitude","switch","switch","61","true","71","",""
"","","call-function","276","308703","0.0-197.0","sub-12_ses-01_2","","","","set_stims","","","","","","","","","","","","","","","",""
"-1","-1","poldrack-single-stim","277","309612","0.0-198.0","sub-12_ses-01_2","","900","0","cue","","<div class = upperbox><div class = ""center-text"" >Orange-Bleu</div></div><div class = lowerbox><div class = fixation>+</div></div>","none","900","test","Orange-Bleu","orange","4","color","switch","switch","62","","","",""
"467","89","poldrack-single-stim","278","311765","0.0-199.0","sub-12_ses-01_2","","2136","0","stim","","<div class = upperbox><div class = ""center-text"" >Orange-Bleu</div></div><div class = lowerbox><div class = ""stim-text"" style=color:orange;>4</div>","89,71","1000","test","Orange-Bleu","orange","4","color","switch","switch","62","true","89","",""
"","","call-function","279","311766","0.0-200.0","sub-12_ses-01_2","","","","set_stims","","","","","","","","","","","","","","","",""
"-1","-1","poldrack-single-stim","280","311872","0.0-201.0","sub-12_ses-01_2","","100","0","cue","","<div class = upperbox><div class = ""center-text"" >Orange-Bleu</div></div><div class = lowerbox><div class = fixation>+</div></div>","none","100","test","Orange-Bleu","#1F45FC","7","color","stay","stay","63","","","",""
"827","71","poldrack-single-stim","281","314152","0.0-202.0","sub-12_ses-01_2","","2272","0","stim","","<div class = upperbox><div class = ""center-text"" >Orange-Bleu</div></div><div class = lowerbox><div class = ""stim-text"" style=color:#1F45FC;>7</div>","89,71","1000","test","Orange-Bleu","#1F45FC","7","color","stay","stay","63","true","71","",""
"","","call-function","282","314153","0.0-203.0","sub-12_ses-01_2","","","","set_stims","","","","","","","","","","","","","","","",""
"-1","-1","poldrack-single-stim","283","314261","0.0-204.0","sub-12_ses-01_2","","100","0","cue","","<div class = upperbox><div class = ""center-text"" >Haut-Bas</div></div><div class = lowerbox><div class = fixation>+</div></div>","none","100","test","Haut-Bas","orange","2","magnitude","switch","switch","64","","","",""
"1048","71","poldrack-single-stim","284","316277","0.0-205.0","sub-12_ses-01_2","","2000","0","stim","","<div class = upperbox><div class = ""center-text"" >Haut-Bas</div></div><div class = lowerbox><div class = ""stim-text"" style=color:orange;>2</div>","89,71","1000","test","Haut-Bas","orange","2","magnitude","switch","switch","64","true","71","",""
"","","call-function","285","316277","0.0-206.0","sub-12_ses-01_2","","","","set_stims","","","","","","","","","","","","","","","",""
"-1","-1","poldrack-single-stim","286","316386","0.0-207.0","sub-12_ses-01_2","","100","0","cue","","<div class = upperbox><div class = ""center-text"" >Haut-Bas</div></div><div class = lowerbox><div class = fixation>+</div></div>","none","100","test","Haut-Bas","#1F45FC","3","magnitude","stay","stay","65","","","",""
"787","71","poldrack-single-stim","287","319204","0.0-208.0","sub-12_ses-01_2","","2816","0","stim","","<div class = upperbox><div class = ""center-text"" >Haut-Bas</div></div><div class = lowerbox><div class = ""stim-text"" style=color:#1F45FC;>3</div>","89,71","1000","test","Haut-Bas","#1F45FC","3","magnitude","stay","stay","65","true","71","",""
"","","call-function","288","319205","0.0-209.0","sub-12_ses-01_2","","","","set_stims","","","","","","","","","","","","","","","",""
"-1","-1","poldrack-single-stim","289","320115","0.0-210.0","sub-12_ses-01_2","","900","0","cue","","<div class = upperbox><div class = ""center-text"" >Amplitude</div></div><div class = lowerbox><div class = fixation>+</div></div>","none","900","test","Amplitude","#1F45FC","3","magnitude","stay","switch","66","","","",""
"536","71","poldrack-single-stim","290","322538","0.0-211.0","sub-12_ses-01_2","","2408","0","stim","","<div class = upperbox><div class = ""center-text"" >Amplitude</div></div><div class = lowerbox><div class = ""stim-text"" style=color:#1F45FC;>3</div>","89,71","1000","test","Amplitude","#1F45FC","3","magnitude","stay","switch","66","true","71","",""
"","","call-function","291","322541","0.0-212.0","sub-12_ses-01_2","","","","set_stims","","","","","","","","","","","","","","","",""
"-1","-1","poldrack-single-stim","292","323442","0.0-213.0","sub-12_ses-01_2","","900","0","cue","","<div class = upperbox><div class = ""center-text"" >Amplitude</div></div><div class = lowerbox><div class = fixation>+</div></div>","none","900","test","Amplitude","#1F45FC","4","magnitude","stay","stay","67","","","",""
"480","71","poldrack-single-stim","293","325455","0.0-214.0","sub-12_ses-01_2","","2000","0","stim","","<div class = upperbox><div class = ""center-text"" >Amplitude</div></div><div class = lowerbox><div class = ""stim-text"" style=color:#1F45FC;>4</div>","89,71","1000","test","Amplitude","#1F45FC","4","magnitude","stay","stay","67","true","71","",""
"","","call-function","294","325456","0.0-215.0","sub-12_ses-01_2","","","","set_stims","","","","","","","","","","","","","","","",""
"-1","-1","poldrack-single-stim","295","326367","0.0-216.0","sub-12_ses-01_2","","900","0","cue","","<div class = upperbox><div class = ""center-text"" >Amplitude</div></div><div class = lowerbox><div class = fixation>+</div></div>","none","900","test","Amplitude","#1F45FC","9","magnitude","stay","stay","68","","","",""
"587","89","poldrack-single-stim","296","328928","0.0-217.0","sub-12_ses-01_2","","2544","0","stim","","<div class = upperbox><div class = ""center-text"" >Amplitude</div></div><div class = lowerbox><div class = ""stim-text"" style=color:#1F45FC;>9</div>","89,71","1000","test","Amplitude","#1F45FC","9","magnitude","stay","stay","68","true","89","",""
"","","call-function","297","328928","0.0-218.0","sub-12_ses-01_2","","","","set_stims","","","","","","","","","","","","","","","",""
"-1","-1","poldrack-single-stim","298","329037","0.0-219.0","sub-12_ses-01_2","","100","0","cue","","<div class = upperbox><div class = ""center-text"" >Couleur</div></div><div class = lowerbox><div class = fixation>+</div></div>","none","100","test","Couleur","#1F45FC","1","color","switch","stay","69","","","",""
"744","71","poldrack-single-stim","299","331188","0.0-220.0","sub-12_ses-01_2","","2136","0","stim","","<div class = upperbox><div class = ""center-text"" >Couleur</div></div><div class = lowerbox><div class = ""stim-text"" style=color:#1F45FC;>1</div>","89,71","1000","test","Couleur","#1F45FC","1","color","switch","stay","69","true","71","",""
"","","call-function","300","331189","0.0-221.0","sub-12_ses-01_2","","","","set_stims","","","","","","","","","","","","","","","",""
"-1","-1","poldrack-single-stim","301","331296","0.0-222.0","sub-12_ses-01_2","","100","0","cue","","<div class = upperbox><div class = ""center-text"" >Amplitude</div></div><div class = lowerbox><div class = fixation>+</div></div>","none","100","test","Amplitude","#1F45FC","1","magnitude","switch","switch","70","","","",""
"594","71","poldrack-single-stim","302","333313","0.0-223.0","sub-12_ses-01_2","","2000","0","stim","","<div class = upperbox><div class = ""center-text"" >Amplitude</div></div><div class = lowerbox><div class = ""stim-text"" style=color:#1F45FC;>1</div>","89,71","1000","test","Amplitude","#1F45FC","1","magnitude","switch","switch","70","true","71","",""
"","","call-function","303","333313","0.0-224.0","sub-12_ses-01_2","","","","set_stims","","","","","","","","","","","","","","","",""
"-1","-1","poldrack-single-stim","304","333422","0.0-225.0","sub-12_ses-01_2","","100","0","cue","","<div class = upperbox><div class = ""center-text"" >Amplitude</div></div><div class = lowerbox><div class = fixation>+</div></div>","none","100","test","Amplitude","#1F45FC","2","magnitude","stay","stay","71","","","",""
"708","71","poldrack-single-stim","305","335427","0.0-226.0","sub-12_ses-01_2","","2000","0","stim","","<div class = upperbox><div class = ""center-text"" >Amplitude</div></div><div class = lowerbox><div class = ""stim-text"" style=color:#1F45FC;>2</div>","89,71","1000","test","Amplitude","#1F45FC","2","magnitude","stay","stay","71","true","71","",""
"","","call-function","306","335428","0.0-227.0","sub-12_ses-01_2","","","","set_stims","","","","","","","","","","","","","","","",""
"-1","-1","poldrack-single-stim","307","335535","0.0-228.0","sub-12_ses-01_2","","100","0","cue","","<div class = upperbox><div class = ""center-text"" >Haut-Bas</div></div><div class = lowerbox><div class = fixation>+</div></div>","none","100","test","Haut-Bas","#1F45FC","3","magnitude","stay","switch","72","","","",""
"725","71","poldrack-single-stim","308","337674","0.0-229.0","sub-12_ses-01_2","","2136","0","stim","","<div class = upperbox><div class = ""center-text"" >Haut-Bas</div></div><div class = lowerbox><div class = ""stim-text"" style=color:#1F45FC;>3</div>","89,71","1000","test","Haut-Bas","#1F45FC","3","magnitude","stay","switch","72","true","71","",""
"","","call-function","309","337675","0.0-230.0","sub-12_ses-01_2","","","","set_stims","","","","","","","","","","","","","","","",""
"-1","-1","poldrack-single-stim","310","337782","0.0-231.0","sub-12_ses-01_2","","100","0","cue","","<div class = upperbox><div class = ""center-text"" >Haut-Bas</div></div><div class = lowerbox><div class = fixation>+</div></div>","none","100","test","Haut-Bas","#1F45FC","6","magnitude","stay","stay","73","","","",""
"1014","89","poldrack-single-stim","311","339926","0.0-232.0","sub-12_ses-01_2","","2136","0","stim","","<div class = upperbox><div class = ""center-text"" >Haut-Bas</div></div><div class = lowerbox><div class = ""stim-text"" style=color:#1F45FC;>6</div>","89,71","1000","test","Haut-Bas","#1F45FC","6","magnitude","stay","stay","73","true","89","",""
"","","call-function","312","339926","0.0-233.0","sub-12_ses-01_2","","","","set_stims","","","","","","","","","","","","","","","",""
"-1","-1","poldrack-single-stim","313","340033","0.0-234.0","sub-12_ses-01_2","","100","0","cue","","<div class = upperbox><div class = ""center-text"" >Orange-Bleu</div></div><div class = lowerbox><div class = fixation>+</div></div>","none","100","test","Orange-Bleu","orange","8","color","switch","switch","74","","","",""
"811","71","poldrack-single-stim","314","342319","0.0-235.0","sub-12_ses-01_2","","2272","0","stim","","<div class = upperbox><div class = ""center-text"" >Orange-Bleu</div></div><div class = lowerbox><div class = ""stim-text"" style=color:orange;>8</div>","89,71","1000","test","Orange-Bleu","orange","8","color","switch","switch","74","false","89","",""
"","","call-function","315","342320","0.0-236.0","sub-12_ses-01_2","","","","set_stims","","","","","","","","","","","","","","","",""
"-1","-1","poldrack-single-stim","316","342427","0.0-237.0","sub-12_ses-01_2","","100","0","cue","","<div class = upperbox><div class = ""center-text"" >Couleur</div></div><div class = lowerbox><div class = fixation>+</div></div>","none","100","test","Couleur","#1F45FC","1","color","stay","switch","75","","","",""
"648","71","poldrack-single-stim","317","345668","0.0-238.0","sub-12_ses-01_2","","3224","0","stim","","<div class = upperbox><div class = ""center-text"" >Couleur</div></div><div class = lowerbox><div class = ""stim-text"" style=color:#1F45FC;>1</div>","89,71","1000","test","Couleur","#1F45FC","1","color","stay","switch","75","true","71","",""
"","","call-function","318","345669","0.0-239.0","sub-12_ses-01_2","","","","set_stims","","","","","","","","","","","","","","","",""
"-1","-1","poldrack-single-stim","319","346572","0.0-240.0","sub-12_ses-01_2","","900","0","cue","","<div class = upperbox><div class = ""center-text"" >Orange-Bleu</div></div><div class = lowerbox><div class = fixation>+</div></div>","none","900","test","Orange-Bleu","orange","6","color","stay","switch","76","","","",""
"470","89","poldrack-single-stim","320","348580","0.0-241.0","sub-12_ses-01_2","","2000","0","stim","","<div class = upperbox><div class = ""center-text"" >Orange-Bleu</div></div><div class = lowerbox><div class = ""stim-text"" style=color:orange;>6</div>","89,71","1000","test","Orange-Bleu","orange","6","color","stay","switch","76","true","89","",""
"","","call-function","321","348581","0.0-242.0","sub-12_ses-01_2","","","","set_stims","","","","","","","","","","","","","","","",""
"-1","-1","poldrack-single-stim","322","348689","0.0-243.0","sub-12_ses-01_2","","100","0","cue","","<div class = upperbox><div class = ""center-text"" >Amplitude</div></div><div class = lowerbox><div class = fixation>+</div></div>","none","100","test","Amplitude","orange","3","magnitude","switch","stay","77","","","",""
"781","71","poldrack-single-stim","323","350694","0.0-244.0","sub-12_ses-01_2","","2000","0","stim","","<div class = upperbox><div class = ""center-text"" >Amplitude</div></div><div class = lowerbox><div class = ""stim-text"" style=color:orange;>3</div>","89,71","1000","test","Amplitude","orange","3","magnitude","switch","stay","77","true","71","",""
"","","call-function","324","350695","0.0-245.0","sub-12_ses-01_2","","","","set_stims","","","","","","","","","","","","","","","",""
"-1","-1","poldrack-single-stim","325","351602","0.0-246.0","sub-12_ses-01_2","","900","0","cue","","<div class = upperbox><div class = ""center-text"" >Couleur</div></div><div class = lowerbox><div class = fixation>+</div></div>","none","900","test","Couleur","#1F45FC","6","color","switch","stay","78","","","",""
"599","71","poldrack-single-stim","326","353879","0.0-247.0","sub-12_ses-01_2","","2272","0","stim","","<div class = upperbox><div class = ""center-text"" >Couleur</div></div><div class = lowerbox><div class = ""stim-text"" style=color:#1F45FC;>6</div>","89,71","1000","test","Couleur","#1F45FC","6","color","switch","stay","78","true","71","",""
"","","call-function","327","353880","0.0-248.0","sub-12_ses-01_2","","","","set_stims","","","","","","","","","","","","","","","",""
"-1","-1","poldrack-single-stim","328","354788","0.0-249.0","sub-12_ses-01_2","","900","0","cue","","<div class = upperbox><div class = ""center-text"" >Amplitude</div></div><div class = lowerbox><div class = fixation>+</div></div>","none","900","test","Amplitude","orange","1","magnitude","switch","switch","79","","","",""
"606","71","poldrack-single-stim","329","356947","0.0-250.0","sub-12_ses-01_2","","2136","0","stim","","<div class = upperbox><div class = ""center-text"" >Amplitude</div></div><div class = lowerbox><div class = ""stim-text"" style=color:orange;>1</div>","89,71","1000","test","Amplitude","orange","1","magnitude","switch","switch","79","true","71","",""
"-1","-1","poldrack-single-stim","330","366968","0.0-251.0","sub-12_ses-01_2","","10000","1000","rest_block","","<div class = centerbox><div class = center-text>+</div></div>","none","10000","","","","","","","","","","","",""
"-1","-1","poldrack-single-stim","331","369495","0.0-252.0","sub-12_ses-01_2","","1500","500","test_start_block","","<div class = centerbox><div class = center-text>Preparez-vous!</p></div>","none","1500","","","","","","","","","","","",""
"-1","-1","poldrack-single-stim","332","370513","0.0-253.0","sub-12_ses-01_2","","500","0","fixation","","<div class = upperbox><div class = fixation>+</div></div><div class = lowerbox><div class = fixation>+</div></div>","none","500","test","","","","","","","","","","",""
"","","call-function","333","370514","0.0-254.0","sub-12_ses-01_2","","","","set_stims","","","","","","","","","","","","","","","",""
"-1","-1","poldrack-single-stim","334","370623","0.0-255.0","sub-12_ses-01_2","","100","0","cue","","<div class = upperbox><div class = ""center-text"" >Amplitude</div></div><div class = lowerbox><div class = fixation>+</div></div>","none","100","test","Amplitude","#1F45FC","6","magnitude","stay","stay","0","","","",""
"685","89","poldrack-single-stim","335","372640","0.0-256.0","sub-12_ses-01_2","","2000","0","stim","","<div class = upperbox><div class = ""center-text"" >Amplitude</div></div><div class = lowerbox><div class = ""stim-text"" style=color:#1F45FC;>6</div>","89,71","1000","test","Amplitude","#1F45FC","6","magnitude","stay","stay","0","true","89","",""
"","","call-function","336","372640","0.0-257.0","sub-12_ses-01_2","","","","set_stims","","","","","","","","","","","","","","","",""
"-1","-1","poldrack-single-stim","337","372748","0.0-258.0","sub-12_ses-01_2","","100","0","cue","","<div class = upperbox><div class = ""center-text"" >Couleur</div></div><div class = lowerbox><div class = fixation>+</div></div>","none","100","test","Couleur","orange","9","color","switch","stay","1","","","",""
"744","89","poldrack-single-stim","338","374758","0.0-259.0","sub-12_ses-01_2","","2000","0","stim","","<div class = upperbox><div class = ""center-text"" >Couleur</div></div><div class = lowerbox><div class = ""stim-text"" style=color:orange;>9</div>","89,71","1000","test","Couleur","orange","9","color","switch","stay","1","true","89","",""
"","","call-function","339","374759","0.0-260.0","sub-12_ses-01_2","","","","set_stims","","","","","","","","","","","","","","","",""
"-1","-1","poldrack-single-stim","340","375676","0.0-261.0","sub-12_ses-01_2","","900","0","cue","","<div class = upperbox><div class = ""center-text"" >Amplitude</div></div><div class = lowerbox><div class = fixation>+</div></div>","none","900","test","Amplitude","orange","8","magnitude","switch","stay","2","","","",""
"496","89","poldrack-single-stim","341","377681","0.0-262.0","sub-12_ses-01_2","","2000","0","stim","","<div class = upperbox><div class = ""center-text"" >Amplitude</div></div><div class = lowerbox><div class = ""stim-text"" style=color:orange;>8</div>","89,71","1000","test","Amplitude","orange","8","magnitude","switch","stay","2","true","89","",""
"","","call-function","342","377682","0.0-263.0","sub-12_ses-01_2","","","","set_stims","","","","","","","","","","","","","","","",""
"-1","-1","poldrack-single-stim","343","378592","0.0-264.0","sub-12_ses-01_2","","900","0","cue","","<div class = upperbox><div class = ""center-text"" >Orange-Bleu</div></div><div class = lowerbox><div class = fixation>+</div></div>","none","900","test","Orange-Bleu","orange","7","color","switch","stay","3","","","",""
"444","89","poldrack-single-stim","344","381286","0.0-265.0","sub-12_ses-01_2","","2680","0","stim","","<div class = upperbox><div class = ""center-text"" >Orange-Bleu</div></div><div class = lowerbox><div class = ""stim-text"" style=color:orange;>7</div>","89,71","1000","test","Orange-Bleu","orange","7","color","switch","stay","3","true","89","",""
"","","call-function","345","381287","0.0-266.0","sub-12_ses-01_2","","","","set_stims","","","","","","","","","","","","","","","",""
"-1","-1","poldrack-single-stim","346","382196","0.0-267.0","sub-12_ses-01_2","","900","0","cue","","<div class = upperbox><div class = ""center-text"" >Haut-Bas</div></div><div class = lowerbox><div class = fixation>+</div></div>","none","900","test","Haut-Bas","orange","3","magnitude","switch","stay","4","","","",""
"503","71","poldrack-single-stim","347","384200","0.0-268.0","sub-12_ses-01_2","","2000","0","stim","","<div class = upperbox><div class = ""center-text"" >Haut-Bas</div></div><div class = lowerbox><div class = ""stim-text"" style=color:orange;>3</div>","89,71","1000","test","Haut-Bas","orange","3","magnitude","switch","stay","4","true","71","",""
"","","call-function","348","384201","0.0-269.0","sub-12_ses-01_2","","","","set_stims","","","","","","","","","","","","","","","",""
"-1","-1","poldrack-single-stim","349","385108","0.0-270.0","sub-12_ses-01_2","","900","0","cue","","<div class = upperbox><div class = ""center-text"" >Haut-Bas</div></div><div class = lowerbox><div class = fixation>+</div></div>","none","900","test","Haut-Bas","#1F45FC","3","magnitude","stay","stay","5","","","",""
"502","71","poldrack-single-stim","350","387390","0.0-271.0","sub-12_ses-01_2","","2272","0","stim","","<div class = upperbox><div class = ""center-text"" >Haut-Bas</div></div><div class = lowerbox><div class = ""stim-text"" style=color:#1F45FC;>3</div>","89,71","1000","test","Haut-Bas","#1F45FC","3","magnitude","stay","stay","5","true","71","",""
"","","call-function","351","387391","0.0-272.0","sub-12_ses-01_2","","","","set_stims","","","","","","","","","","","","","","","",""
"-1","-1","poldrack-single-stim","352","387499","0.0-273.0","sub-12_ses-01_2","","100","0","cue","","<div class = upperbox><div class = ""center-text"" >Amplitude</div></div><div class = lowerbox><div class = fixation>+</div></div>","none","100","test","Amplitude","orange","9","magnitude","stay","switch","6","","","",""
"950","89","poldrack-single-stim","353","389512","0.0-274.0","sub-12_ses-01_2","","2000","0","stim","","<div class = upperbox><div class = ""center-text"" >Amplitude</div></div><div class = lowerbox><div class = ""stim-text"" style=color:orange;>9</div>","89,71","1000","test","Amplitude","orange","9","magnitude","stay","switch","6","true","89","",""
"","","call-function","354","389513","0.0-275.0","sub-12_ses-01_2","","","","set_stims","","","","","","","","","","","","","","","",""
"-1","-1","poldrack-single-stim","355","390424","0.0-276.0","sub-12_ses-01_2","","900","0","cue","","<div class = upperbox><div class = ""center-text"" >Haut-Bas</div></div><div class = lowerbox><div class = fixation>+</div></div>","none","900","test","Haut-Bas","orange","2","magnitude","stay","switch","7","","","",""
"548","71","poldrack-single-stim","356","392705","0.0-277.0","sub-12_ses-01_2","","2272","0","stim","","<div class = upperbox><div class = ""center-text"" >Haut-Bas</div></div><div class = lowerbox><div class = ""stim-text"" style=color:orange;>2</div>","89,71","1000","test","Haut-Bas","orange","2","magnitude","stay","switch","7","true","71","",""
"","","call-function","357","392706","0.0-278.0","sub-12_ses-01_2","","","","set_stims","","","","","","","","","","","","","","","",""
"-1","-1","poldrack-single-stim","358","393613","0.0-279.0","sub-12_ses-01_2","","900","0","cue","","<div class = upperbox><div class = ""center-text"" >Orange-Bleu</div></div><div class = lowerbox><div class = fixation>+</div></div>","none","900","test","Orange-Bleu","#1F45FC","1","color","switch","switch","8","","","",""
"571","71","poldrack-single-stim","359","396576","0.0-280.0","sub-12_ses-01_2","","2952","0","stim","","<div class = upperbox><div class = ""center-text"" >Orange-Bleu</div></div><div class = lowerbox><div class = ""stim-text"" style=color:#1F45FC;>1</div>","89,71","1000","test","Orange-Bleu","#1F45FC","1","color","switch","switch","8","true","71","",""
"","","call-function","360","396577","0.0-281.0","sub-12_ses-01_2","","","","set_stims","","","","","","","","","","","","","","","",""
"-1","-1","poldrack-single-stim","361","396684","0.0-282.0","sub-12_ses-01_2","","100","0","cue","","<div class = upperbox><div class = ""center-text"" >Haut-Bas</div></div><div class = lowerbox><div class = fixation>+</div></div>","none","100","test","Haut-Bas","orange","4","magnitude","switch","stay","9","","","",""
"846","71","poldrack-single-stim","362","398701","0.0-283.0","sub-12_ses-01_2","","2000","0","stim","","<div class = upperbox><div class = ""center-text"" >Haut-Bas</div></div><div class = lowerbox><div class = ""stim-text"" style=color:orange;>4</div>","89,71","1000","test","Haut-Bas","orange","4","magnitude","switch","stay","9","true","71","",""
"","","call-function","363","398702","0.0-284.0","sub-12_ses-01_2","","","","set_stims","","","","","","","","","","","","","","","",""
"-1","-1","poldrack-single-stim","364","399611","0.0-285.0","sub-12_ses-01_2","","900","0","cue","","<div class = upperbox><div class = ""center-text"" >Orange-Bleu</div></div><div class = lowerbox><div class = fixation>+</div></div>","none","900","test","Orange-Bleu","#1F45FC","9","color","switch","stay","10","","","",""
"1252","89","poldrack-single-stim","365","401612","0.0-286.0","sub-12_ses-01_2","","2000","0","stim","","<div class = upperbox><div class = ""center-text"" >Orange-Bleu</div></div><div class = lowerbox><div class = ""stim-text"" style=color:#1F45FC;>9</div>","89,71","1000","test","Orange-Bleu","#1F45FC","9","color","switch","stay","10","false","71","",""
"","","call-function","366","401613","0.0-287.0","sub-12_ses-01_2","","","","set_stims","","","","","","","","","","","","","","","",""
"-1","-1","poldrack-single-stim","367","401721","0.0-288.0","sub-12_ses-01_2","","100","0","cue","","<div class = upperbox><div class = ""center-text"" >Couleur</div></div><div class = lowerbox><div class = fixation>+</div></div>","none","100","test","Couleur","#1F45FC","6","color","stay","switch","11","","","",""
"896","71","poldrack-single-stim","368","403726","0.0-289.0","sub-12_ses-01_2","","2000","0","stim","","<div class = upperbox><div class = ""center-text"" >Couleur</div></div><div class = lowerbox><div class = ""stim-text"" style=color:#1F45FC;>6</div>","89,71","1000","test","Couleur","#1F45FC","6","color","stay","switch","11","true","71","",""
"","","call-function","369","403728","0.0-290.0","sub-12_ses-01_2","","","","set_stims","","","","","","","","","","","","","","","",""
"-1","-1","poldrack-single-stim","370","404634","0.0-291.0","sub-12_ses-01_2","","900","0","cue","","<div class = upperbox><div class = ""center-text"" >Amplitude</div></div><div class = lowerbox><div class = fixation>+</div></div>","none","900","test","Amplitude","orange","9","magnitude","switch","stay","12","","","",""
"690","89","poldrack-single-stim","371","406641","0.0-292.0","sub-12_ses-01_2","","2000","0","stim","","<div class = upperbox><div class = ""center-text"" >Amplitude</div></div><div class = lowerbox><div class = ""stim-text"" style=color:orange;>9</div>","89,71","1000","test","Amplitude","orange","9","magnitude","switch","stay","12","true","89","",""
"","","call-function","372","406641","0.0-293.0","sub-12_ses-01_2","","","","set_stims","","","","","","","","","","","","","","","",""
"-1","-1","poldrack-single-stim","373","407550","0.0-294.0","sub-12_ses-01_2","","900","0","cue","","<div class = upperbox><div class = ""center-text"" >Orange-Bleu</div></div><div class = lowerbox><div class = fixation>+</div></div>","none","900","test","Orange-Bleu","orange","4","color","switch","switch","13","","","",""
"970","71","poldrack-single-stim","374","409695","0.0-295.0","sub-12_ses-01_2","","2136","0","stim","","<div class = upperbox><div class = ""center-text"" >Orange-Bleu</div></div><div class = lowerbox><div class = ""stim-text"" style=color:orange;>4</div>","89,71","1000","test","Orange-Bleu","orange","4","color","switch","switch","13","false","89","",""
"","","call-function","375","409696","0.0-296.0","sub-12_ses-01_2","","","","set_stims","","","","","","","","","","","","","","","",""
"-1","-1","poldrack-single-stim","376","409803","0.0-297.0","sub-12_ses-01_2","","100","0","cue","","<div class = upperbox><div class = ""center-text"" >Couleur</div></div><div class = lowerbox><div class = fixation>+</div></div>","none","100","test","Couleur","#1F45FC","1","color","stay","switch","14","","","",""
