"rt","key_press","trial_type","trial_index","time_elapsed","internal_node_id","subject","text","block_duration","timing_post_trial","trial_id","responses","stimulus","possible_responses","stim_duration","correct","correct_response","feedback_duration","exp_stage","trial_num","SS_stimulus","SS_delay","SS_trial_type","SS_duration","condition","stop_response","exp_id"
"1333","13","text","0","1335","0.0-0.0","sub-07_ses-02_2","","","","","","","","","","","","","","","","","","","",""
"1905","89","poldrack-text","1","4244","0.0-1.0","sub-07_ses-02_2","<div class = centerbox><div style = 'font-size: 50px' class = center-text>Veuillez appuyer avec votre index</p></div>","1905","500","fmri_response_test","","","","","","","","","","","","","","","",""
"518","71","poldrack-text","2","5267","0.0-2.0","sub-07_ses-02_2","<div class = centerbox><div style = 'font-size: 50px' class = center-text>Veuillez appuyer avec votre majeur</p></div>","518","500","fmri_response_test","","","","","","","","","","","","","","","",""
"3749","","survey-text","3","9537","0.0-3.0","sub-07_ses-02_2","","","","task_setup","{""Q0"":""250""}","","","","","","","","","","","","","","",""
"4372","32","poldrack-single-stim","4","14992","0.0-4.0","sub-07_ses-02_2","","4372","0","instructions","","<div class = instructbox><p class = instruct-text><font size=""+2"">Une seule cle est correcte pour chaque forme. <strong>Ne repondez pas si vous voyez l'etoile rouge si votre response allait etre votre Index!</strong> Les cles correctes son les suivantes:<ul list-text><li><div class = prompt_container><img class = prompt_stim src = /static/experiments/motor_selective_stop_signal/images/circle.png width= ""50%"" height= ""50%""></img>Index</div></li></li><li><div class = prompt_container><img class = prompt_stim src = /static/experiments/motor_selective_stop_signal/images/Lshape.png width= ""50%"" height= ""50%""></img>Index</div></li> </li><li><div class = prompt_container><img class = prompt_stim src = /static/experiments/motor_selective_stop_signal/images/rhombus.png width= ""50%"" height= ""50%""></img>Majeur</div></li> </li><li><div class = prompt_container><img class = prompt_stim src = /static/experiments/motor_selective_stop_signal/images/triangle.png width= ""50%"" height= ""50%""></img>Majeur</div></li></ul></font></div>","32","4372","","","","","","","","","","","",""
"810","89","poldrack-categorize","5","17372","0.0-5.0-0.0-0.0","sub-07_ses-02_2","","1850","250","stim","","<div class = coverbox></div><div class = shapebox><img class = stim src = /static/experiments/motor_selective_stop_signal/images/Lshape.png></img></div>","89,71","850","true","89","500","practice","0","","","","","","",""
"686","89","poldrack-categorize","6","20013","0.0-5.0-0.0-1.0","sub-07_ses-02_2","","1850","250","stim","","<div class = coverbox></div><div class = shapebox><img class = stim src = /static/experiments/motor_selective_stop_signal/images/circle.png></img></div>","89,71","850","true","89","500","practice","1","","","","","","",""
"739","89","poldrack-categorize","7","22652","0.0-5.0-0.0-2.0","sub-07_ses-02_2","","1850","250","stim","","<div class = coverbox></div><div class = shapebox><img class = stim src = /static/experiments/motor_selective_stop_signal/images/Lshape.png></img></div>","89,71","850","true","89","500","practice","2","","","","","","",""
"515","89","poldrack-categorize","8","25292","0.0-5.0-0.0-3.0","sub-07_ses-02_2","","1850","250","stim","","<div class = coverbox></div><div class = shapebox><img class = stim src = /static/experiments/motor_selective_stop_signal/images/circle.png></img></div>","89,71","850","true","89","500","practice","3","","","","","","",""
"637","71","poldrack-categorize","9","27931","0.0-5.0-0.0-4.0","sub-07_ses-02_2","","1850","250","stim","","<div class = coverbox></div><div class = shapebox><img class = stim src = /static/experiments/motor_selective_stop_signal/images/rhombus.png></img></div>","89,71","850","true","71","500","practice","4","","","","","","",""
"651","71","poldrack-categorize","10","30571","0.0-5.0-0.0-5.0","sub-07_ses-02_2","","1850","250","stim","","<div class = coverbox></div><div class = shapebox><img class = stim src = /static/experiments/motor_selective_stop_signal/images/rhombus.png></img></div>","89,71","850","true","71","500","practice","5","","","","","","",""
"586","71","poldrack-categorize","11","33211","0.0-5.0-0.0-6.0","sub-07_ses-02_2","","1850","250","stim","","<div class = coverbox></div><div class = shapebox><img class = stim src = /static/experiments/motor_selective_stop_signal/images/triangle.png></img></div>","89,71","850","true","71","500","practice","6","","","","","","",""
"431","71","poldrack-categorize","12","35852","0.0-5.0-0.0-7.0","sub-07_ses-02_2","","1850","250","stim","","<div class = coverbox></div><div class = shapebox><img class = stim src = /static/experiments/motor_selective_stop_signal/images/circle.png></img></div>","89,71","850","false","89","500","practice","7","","","","","","",""
"753","89","poldrack-categorize","13","38502","0.0-5.0-0.0-8.0","sub-07_ses-02_2","","1850","250","stim","","<div class = coverbox></div><div class = shapebox><img class = stim src = /static/experiments/motor_selective_stop_signal/images/Lshape.png></img></div>","89,71","850","true","89","500","practice","8","","","","","","",""
"720","71","poldrack-categorize","14","41152","0.0-5.0-0.0-9.0","sub-07_ses-02_2","","1850","250","stim","","<div class = coverbox></div><div class = shapebox><img class = stim src = /static/experiments/motor_selective_stop_signal/images/rhombus.png></img></div>","89,71","850","true","71","500","practice","9","","","","","","",""
"597","71","poldrack-categorize","15","43791","0.0-5.0-0.0-10.0","sub-07_ses-02_2","","1850","250","stim","","<div class = coverbox></div><div class = shapebox><img class = stim src = /static/experiments/motor_selective_stop_signal/images/triangle.png></img></div>","89,71","850","true","71","500","practice","10","","","","","","",""
"595","71","poldrack-categorize","16","46443","0.0-5.0-0.0-11.0","sub-07_ses-02_2","","1850","250","stim","","<div class = coverbox></div><div class = shapebox><img class = stim src = /static/experiments/motor_selective_stop_signal/images/triangle.png></img></div>","89,71","850","true","71","500","practice","11","","","","","","",""
"1543","32","poldrack-text","17","48247","0.0-6.0","sub-07_ses-02_2","<div class = centerbox><div  class = center-text>Scanner Setup</div></div>","1543","0","fmri_scanner_wait","","","","","","","","","","","","","","","",""
"54358","84","poldrack-text","18","102609","0.0-7.0","sub-07_ses-02_2","<div class = centerbox><div style='color:red'; class = center-text>+</div></div>","54358","0","fmri_trigger_wait","","","","","","","","","","","","","","","",""
"-1","-1","poldrack-single-stim","19","103625","0.0-8.0","sub-07_ses-02_2","","1000","0","fmri_buffer","","","none","1000","","","","","","","","","","","",""
"-1","-1","poldrack-single-stim","20","105133","0.0-9.0","sub-07_ses-02_2","","1500","500","test_start_block","","<div class = centerbox><div class = center-text>Preparez-vous!</p></div>","none","1500","","","","","","","","","","","",""
"731","71","stop-signal","21","107932","0.0-10.0","sub-07_ses-02_2","","2250","0","stim","","<div class = coverbox></div><div class = shapebox><img class = stim src = /static/experiments/motor_selective_stop_signal/images/triangle.png></img></div>","89,71","850","","71","","test","0","<div class = coverbox></div><div class = stopbox><div class = centered-shape id = stop-signal></div><div class = centered-shape id = stop-signal-inner></div></div>","250","go","500","go","89",""
"524","71","stop-signal","22","110192","0.0-11.0","sub-07_ses-02_2","","2250","0","stim","","<div class = coverbox></div><div class = shapebox><img class = stim src = /static/experiments/motor_selective_stop_signal/images/triangle.png></img></div>","89,71","850","","71","","test","1","<div class = coverbox></div><div class = stopbox><div class = centered-shape id = stop-signal></div><div class = centered-shape id = stop-signal-inner></div></div>","250","go","500","go","89",""
"955","71","stop-signal","23","112564","0.0-12.0","sub-07_ses-02_2","","2350","0","stim","","<div class = coverbox></div><div class = shapebox><img class = stim src = /static/experiments/motor_selective_stop_signal/images/rhombus.png></img></div>","89,71","850","","71","","test","2","<div class = coverbox></div><div class = stopbox><div class = centered-shape id = stop-signal></div><div class = centered-shape id = stop-signal-inner></div></div>","250","stop","500","ignore","89",""
"-1","-1","stop-signal","24","115143","0.0-13.0","sub-07_ses-02_2","","2550","0","stim","","<div class = coverbox></div><div class = shapebox><img class = stim src = /static/experiments/motor_selective_stop_signal/images/Lshape.png></img></div>","89,71","850","","89","","test","3","<div class = coverbox></div><div class = stopbox><div class = centered-shape id = stop-signal></div><div class = centered-shape id = stop-signal-inner></div></div>","250","stop","500","stop","89",""
"703","89","stop-signal","25","118112","0.0-14.0","sub-07_ses-02_2","","2950","0","stim","","<div class = coverbox></div><div class = shapebox><img class = stim src = /static/experiments/motor_selective_stop_signal/images/Lshape.png></img></div>","89,71","850","","89","","test","4","<div class = coverbox></div><div class = stopbox><div class = centered-shape id = stop-signal></div><div class = centered-shape id = stop-signal-inner></div></div>","300","go","500","go","89",""
"-1","-1","stop-signal","26","120382","0.0-15.0","sub-07_ses-02_2","","2250","0","stim","","<div class = coverbox></div><div class = shapebox><img class = stim src = /static/experiments/motor_selective_stop_signal/images/Lshape.png></img></div>","89,71","850","","89","","test","5","<div class = coverbox></div><div class = stopbox><div class = centered-shape id = stop-signal></div><div class = centered-shape id = stop-signal-inner></div></div>","300","stop","500","stop","89",""
"687","89","stop-signal","27","122742","0.0-16.0","sub-07_ses-02_2","","2350","0","stim","","<div class = coverbox></div><div class = shapebox><img class = stim src = /static/experiments/motor_selective_stop_signal/images/circle.png></img></div>","89,71","850","","89","","test","6","<div class = coverbox></div><div class = stopbox><div class = centered-shape id = stop-signal></div><div class = centered-shape id = stop-signal-inner></div></div>","350","go","500","go","89",""
"795","71","stop-signal","28","125313","0.0-17.0","sub-07_ses-02_2","","2550","0","stim","","<div class = coverbox></div><div class = shapebox><img class = stim src = /static/experiments/motor_selective_stop_signal/images/rhombus.png></img></div>","89,71","850","","71","","test","7","<div class = coverbox></div><div class = stopbox><div class = centered-shape id = stop-signal></div><div class = centered-shape id = stop-signal-inner></div></div>","350","go","500","go","89",""
"1161","71","stop-signal","29","127571","0.0-18.0","sub-07_ses-02_2","","2250","0","stim","","<div class = coverbox></div><div class = shapebox><img class = stim src = /static/experiments/motor_selective_stop_signal/images/rhombus.png></img></div>","89,71","850","","71","","test","8","<div class = coverbox></div><div class = stopbox><div class = centered-shape id = stop-signal></div><div class = centered-shape id = stop-signal-inner></div></div>","350","stop","500","ignore","89",""
"716","71","stop-signal","30","129932","0.0-19.0","sub-07_ses-02_2","","2350","0","stim","","<div class = coverbox></div><div class = shapebox><img class = stim src = /static/experiments/motor_selective_stop_signal/images/triangle.png></img></div>","89,71","850","","71","","test","9","<div class = coverbox></div><div class = stopbox><div class = centered-shape id = stop-signal></div><div class = centered-shape id = stop-signal-inner></div></div>","350","stop","500","ignore","89",""
"508","71","stop-signal","31","132491","0.0-20.0","sub-07_ses-02_2","","2550","0","stim","","<div class = coverbox></div><div class = shapebox><img class = stim src = /static/experiments/motor_selective_stop_signal/images/triangle.png></img></div>","89,71","850","","71","","test","10","<div class = coverbox></div><div class = stopbox><div class = centered-shape id = stop-signal></div><div class = centered-shape id = stop-signal-inner></div></div>","350","stop","500","ignore","89",""
"463","71","stop-signal","32","134951","0.0-21.0","sub-07_ses-02_2","","2450","0","stim","","<div class = coverbox></div><div class = shapebox><img class = stim src = /static/experiments/motor_selective_stop_signal/images/rhombus.png></img></div>","89,71","850","","71","","test","11","<div class = coverbox></div><div class = stopbox><div class = centered-shape id = stop-signal></div><div class = centered-shape id = stop-signal-inner></div></div>","350","stop","500","ignore","89",""
"758","71","stop-signal","33","137311","0.0-22.0","sub-07_ses-02_2","","2350","0","stim","","<div class = coverbox></div><div class = shapebox><img class = stim src = /static/experiments/motor_selective_stop_signal/images/rhombus.png></img></div>","89,71","850","","71","","test","12","<div class = coverbox></div><div class = stopbox><div class = centered-shape id = stop-signal></div><div class = centered-shape id = stop-signal-inner></div></div>","350","go","500","go","89",""
"547","71","stop-signal","34","139971","0.0-23.0","sub-07_ses-02_2","","2650","0","stim","","<div class = coverbox></div><div class = shapebox><img class = stim src = /static/experiments/motor_selective_stop_signal/images/rhombus.png></img></div>","89,71","850","","71","","test","13","<div class = coverbox></div><div class = stopbox><div class = centered-shape id = stop-signal></div><div class = centered-shape id = stop-signal-inner></div></div>","350","go","500","go","89",""
"655","89","stop-signal","35","142531","0.0-24.0","sub-07_ses-02_2","","2550","0","stim","","<div class = coverbox></div><div class = shapebox><img class = stim src = /static/experiments/motor_selective_stop_signal/images/circle.png></img></div>","89,71","850","","89","","test","14","<div class = coverbox></div><div class = stopbox><div class = centered-shape id = stop-signal></div><div class = centered-shape id = stop-signal-inner></div></div>","350","go","500","go","89",""
"-1","-1","stop-signal","36","145292","0.0-25.0","sub-07_ses-02_2","","2750","0","stim","","<div class = coverbox></div><div class = shapebox><img class = stim src = /static/experiments/motor_selective_stop_signal/images/circle.png></img></div>","89,71","850","","89","","test","15","<div class = coverbox></div><div class = stopbox><div class = centered-shape id = stop-signal></div><div class = centered-shape id = stop-signal-inner></div></div>","350","stop","500","stop","89",""
"-1","-1","stop-signal","37","147862","0.0-26.0","sub-07_ses-02_2","","2550","0","stim","","<div class = coverbox></div><div class = shapebox><img class = stim src = /static/experiments/motor_selective_stop_signal/images/circle.png></img></div>","89,71","850","","89","","test","16","<div class = coverbox></div><div class = stopbox><div class = centered-shape id = stop-signal></div><div class = centered-shape id = stop-signal-inner></div></div>","400","stop","500","stop","89",""
"642","71","stop-signal","38","150320","0.0-27.0","sub-07_ses-02_2","","2450","0","stim","","<div class = coverbox></div><div class = shapebox><img class = stim src = /static/experiments/motor_selective_stop_signal/images/rhombus.png></img></div>","89,71","850","","71","","test","17","<div class = coverbox></div><div class = stopbox><div class = centered-shape id = stop-signal></div><div class = centered-shape id = stop-signal-inner></div></div>","450","stop","500","ignore","89",""
"349","71","stop-signal","39","153081","0.0-28.0","sub-07_ses-02_2","","2750","0","stim","","<div class = coverbox></div><div class = shapebox><img class = stim src = /static/experiments/motor_selective_stop_signal/images/triangle.png></img></div>","89,71","850","","71","","test","18","<div class = coverbox></div><div class = stopbox><div class = centered-shape id = stop-signal></div><div class = centered-shape id = stop-signal-inner></div></div>","450","go","500","go","89",""
"919","89","stop-signal","40","155641","0.0-29.0","sub-07_ses-02_2","","2550","0","stim","","<div class = coverbox></div><div class = shapebox><img class = stim src = /static/experiments/motor_selective_stop_signal/images/circle.png></img></div>","89,71","850","","89","","test","19","<div class = coverbox></div><div class = stopbox><div class = centered-shape id = stop-signal></div><div class = centered-shape id = stop-signal-inner></div></div>","450","go","500","go","89",""
"-1","-1","stop-signal","41","158002","0.0-30.0","sub-07_ses-02_2","","2350","0","stim","","<div class = coverbox></div><div class = shapebox><img class = stim src = /static/experiments/motor_selective_stop_signal/images/circle.png></img></div>","89,71","850","","89","","test","20","<div class = coverbox></div><div class = stopbox><div class = centered-shape id = stop-signal></div><div class = centered-shape id = stop-signal-inner></div></div>","450","stop","500","stop","89",""
"759","71","stop-signal","42","160262","0.0-31.0","sub-07_ses-02_2","","2250","0","stim","","<div class = coverbox></div><div class = shapebox><img class = stim src = /static/experiments/motor_selective_stop_signal/images/rhombus.png></img></div>","89,71","850","","71","","test","21","<div class = coverbox></div><div class = stopbox><div class = centered-shape id = stop-signal></div><div class = centered-shape id = stop-signal-inner></div></div>","500","go","500","go","89",""
"825","89","stop-signal","43","162921","0.0-32.0","sub-07_ses-02_2","","2650","0","stim","","<div class = coverbox></div><div class = shapebox><img class = stim src = /static/experiments/motor_selective_stop_signal/images/circle.png></img></div>","89,71","850","","89","","test","22","<div class = coverbox></div><div class = stopbox><div class = centered-shape id = stop-signal></div><div class = centered-shape id = stop-signal-inner></div></div>","500","go","500","go","89",""
"-1","-1","stop-signal","44","165182","0.0-33.0","sub-07_ses-02_2","","2250","0","stim","","<div class = coverbox></div><div class = shapebox><img class = stim src = /static/experiments/motor_selective_stop_signal/images/circle.png></img></div>","89,71","850","","89","","test","23","<div class = coverbox></div><div class = stopbox><div class = centered-shape id = stop-signal></div><div class = centered-shape id = stop-signal-inner></div></div>","500","stop","500","stop","89",""
"813","89","stop-signal","45","167541","0.0-34.0","sub-07_ses-02_2","","2350","0","stim","","<div class = coverbox></div><div class = shapebox><img class = stim src = /static/experiments/motor_selective_stop_signal/images/circle.png></img></div>","89,71","850","","89","","test","24","<div class = coverbox></div><div class = stopbox><div class = centered-shape id = stop-signal></div><div class = centered-shape id = stop-signal-inner></div></div>","550","go","500","go","89",""
"650","71","stop-signal","46","169801","0.0-35.0","sub-07_ses-02_2","","2250","0","stim","","<div class = coverbox></div><div class = shapebox><img class = stim src = /static/experiments/motor_selective_stop_signal/images/triangle.png></img></div>","89,71","850","","71","","test","25","<div class = coverbox></div><div class = stopbox><div class = centered-shape id = stop-signal></div><div class = centered-shape id = stop-signal-inner></div></div>","550","go","500","go","89",""
"879","89","stop-signal","47","172172","0.0-36.0","sub-07_ses-02_2","","2350","0","stim","","<div class = coverbox></div><div class = shapebox><img class = stim src = /static/experiments/motor_selective_stop_signal/images/Lshape.png></img></div>","89,71","850","","89","","test","26","<div class = coverbox></div><div class = stopbox><div class = centered-shape id = stop-signal></div><div class = centered-shape id = stop-signal-inner></div></div>","550","go","500","go","89",""
"742","71","stop-signal","48","174531","0.0-37.0","sub-07_ses-02_2","","2350","0","stim","","<div class = coverbox></div><div class = shapebox><img class = stim src = /static/experiments/motor_selective_stop_signal/images/rhombus.png></img></div>","89,71","850","","71","","test","27","<div class = coverbox></div><div class = stopbox><div class = centered-shape id = stop-signal></div><div class = centered-shape id = stop-signal-inner></div></div>","550","go","500","go","89",""
"625","71","stop-signal","49","176791","0.0-38.0","sub-07_ses-02_2","","2250","0","stim","","<div class = coverbox></div><div class = shapebox><img class = stim src = /static/experiments/motor_selective_stop_signal/images/triangle.png></img></div>","89,71","850","","71","","test","28","<div class = coverbox></div><div class = stopbox><div class = centered-shape id = stop-signal></div><div class = centered-shape id = stop-signal-inner></div></div>","550","go","500","go","89",""
"660","71","stop-signal","50","179650","0.0-39.0","sub-07_ses-02_2","","2850","0","stim","","<div class = coverbox></div><div class = shapebox><img class = stim src = /static/experiments/motor_selective_stop_signal/images/rhombus.png></img></div>","89,71","850","","71","","test","29","<div class = coverbox></div><div class = stopbox><div class = centered-shape id = stop-signal></div><div class = centered-shape id = stop-signal-inner></div></div>","550","stop","500","ignore","89",""
"679","89","stop-signal","51","182010","0.0-40.0","sub-07_ses-02_2","","2350","0","stim","","<div class = coverbox></div><div class = shapebox><img class = stim src = /static/experiments/motor_selective_stop_signal/images/triangle.png></img></div>","89,71","850","","71","","test","30","<div class = coverbox></div><div class = stopbox><div class = centered-shape id = stop-signal></div><div class = centered-shape id = stop-signal-inner></div></div>","550","go","500","go","89",""
"536","71","stop-signal","52","184271","0.0-41.0","sub-07_ses-02_2","","2250","0","stim","","<div class = coverbox></div><div class = shapebox><img class = stim src = /static/experiments/motor_selective_stop_signal/images/triangle.png></img></div>","89,71","850","","71","","test","31","<div class = coverbox></div><div class = stopbox><div class = centered-shape id = stop-signal></div><div class = centered-shape id = stop-signal-inner></div></div>","550","go","500","go","89",""
"656","71","stop-signal","53","186631","0.0-42.0","sub-07_ses-02_2","","2350","0","stim","","<div class = coverbox></div><div class = shapebox><img class = stim src = /static/experiments/motor_selective_stop_signal/images/rhombus.png></img></div>","89,71","850","","71","","test","32","<div class = coverbox></div><div class = stopbox><div class = centered-shape id = stop-signal></div><div class = centered-shape id = stop-signal-inner></div></div>","550","go","500","go","89",""
"597","71","stop-signal","54","189100","0.0-43.0","sub-07_ses-02_2","","2450","0","stim","","<div class = coverbox></div><div class = shapebox><img class = stim src = /static/experiments/motor_selective_stop_signal/images/rhombus.png></img></div>","89,71","850","","71","","test","33","<div class = coverbox></div><div class = stopbox><div class = centered-shape id = stop-signal></div><div class = centered-shape id = stop-signal-inner></div></div>","550","go","500","go","89",""
"-1","-1","stop-signal","55","191362","0.0-44.0","sub-07_ses-02_2","","2250","0","stim","","<div class = coverbox></div><div class = shapebox><img class = stim src = /static/experiments/motor_selective_stop_signal/images/Lshape.png></img></div>","89,71","850","","89","","test","34","<div class = coverbox></div><div class = stopbox><div class = centered-shape id = stop-signal></div><div class = centered-shape id = stop-signal-inner></div></div>","550","stop","500","stop","89",""
"598","71","stop-signal","56","193621","0.0-45.0","sub-07_ses-02_2","","2250","0","stim","","<div class = coverbox></div><div class = shapebox><img class = stim src = /static/experiments/motor_selective_stop_signal/images/rhombus.png></img></div>","89,71","850","","71","","test","35","<div class = coverbox></div><div class = stopbox><div class = centered-shape id = stop-signal></div><div class = centered-shape id = stop-signal-inner></div></div>","600","stop","500","ignore","89",""
"996","89","stop-signal","57","196391","0.0-46.0","sub-07_ses-02_2","","2750","0","stim","","<div class = coverbox></div><div class = shapebox><img class = stim src = /static/experiments/motor_selective_stop_signal/images/Lshape.png></img></div>","89,71","850","","89","","test","36","<div class = coverbox></div><div class = stopbox><div class = centered-shape id = stop-signal></div><div class = centered-shape id = stop-signal-inner></div></div>","600","go","500","go","89",""
"607","71","stop-signal","58","198752","0.0-47.0","sub-07_ses-02_2","","2350","0","stim","","<div class = coverbox></div><div class = shapebox><img class = stim src = /static/experiments/motor_selective_stop_signal/images/triangle.png></img></div>","89,71","850","","71","","test","37","<div class = coverbox></div><div class = stopbox><div class = centered-shape id = stop-signal></div><div class = centered-shape id = stop-signal-inner></div></div>","600","stop","500","ignore","89",""
"873","89","stop-signal","59","201510","0.0-48.0","sub-07_ses-02_2","","2750","0","stim","","<div class = coverbox></div><div class = shapebox><img class = stim src = /static/experiments/motor_selective_stop_signal/images/Lshape.png></img></div>","89,71","850","","89","","test","38","<div class = coverbox></div><div class = stopbox><div class = centered-shape id = stop-signal></div><div class = centered-shape id = stop-signal-inner></div></div>","600","go","500","go","89",""
"902","89","stop-signal","60","203971","0.0-49.0","sub-07_ses-02_2","","2450","0","stim","","<div class = coverbox></div><div class = shapebox><img class = stim src = /static/experiments/motor_selective_stop_signal/images/circle.png></img></div>","89,71","850","","89","","test","39","<div class = coverbox></div><div class = stopbox><div class = centered-shape id = stop-signal></div><div class = centered-shape id = stop-signal-inner></div></div>","600","go","500","go","89",""
"1038","89","stop-signal","61","206231","0.0-50.0","sub-07_ses-02_2","","2250","0","stim","","<div class = coverbox></div><div class = shapebox><img class = stim src = /static/experiments/motor_selective_stop_signal/images/circle.png></img></div>","89,71","850","","89","","test","40","<div class = coverbox></div><div class = stopbox><div class = centered-shape id = stop-signal></div><div class = centered-shape id = stop-signal-inner></div></div>","600","go","500","go","89",""
"625","89","stop-signal","62","208592","0.0-51.0","sub-07_ses-02_2","","2350","0","stim","","<div class = coverbox></div><div class = shapebox><img class = stim src = /static/experiments/motor_selective_stop_signal/images/circle.png></img></div>","89,71","850","","89","","test","41","<div class = coverbox></div><div class = stopbox><div class = centered-shape id = stop-signal></div><div class = centered-shape id = stop-signal-inner></div></div>","600","stop","500","stop","89",""
"631","71","stop-signal","63","211252","0.0-52.0","sub-07_ses-02_2","","2650","0","stim","","<div class = coverbox></div><div class = shapebox><img class = stim src = /static/experiments/motor_selective_stop_signal/images/rhombus.png></img></div>","89,71","850","","71","","test","42","<div class = coverbox></div><div class = stopbox><div class = centered-shape id = stop-signal></div><div class = centered-shape id = stop-signal-inner></div></div>","550","go","500","go","89",""
"763","89","stop-signal","64","213712","0.0-53.0","sub-07_ses-02_2","","2450","0","stim","","<div class = coverbox></div><div class = shapebox><img class = stim src = /static/experiments/motor_selective_stop_signal/images/circle.png></img></div>","89,71","850","","89","","test","43","<div class = coverbox></div><div class = stopbox><div class = centered-shape id = stop-signal></div><div class = centered-shape id = stop-signal-inner></div></div>","550","stop","500","stop","89",""
"654","71","stop-signal","65","215971","0.0-54.0","sub-07_ses-02_2","","2250","0","stim","","<div class = coverbox></div><div class = shapebox><img class = stim src = /static/experiments/motor_selective_stop_signal/images/triangle.png></img></div>","89,71","850","","71","","test","44","<div class = coverbox></div><div class = stopbox><div class = centered-shape id = stop-signal></div><div class = centered-shape id = stop-signal-inner></div></div>","500","go","500","go","89",""
"594","71","stop-signal","66","218331","0.0-55.0","sub-07_ses-02_2","","2350","0","stim","","<div class = coverbox></div><div class = shapebox><img class = stim src = /static/experiments/motor_selective_stop_signal/images/rhombus.png></img></div>","89,71","850","","71","","test","45","<div class = coverbox></div><div class = stopbox><div class = centered-shape id = stop-signal></div><div class = centered-shape id = stop-signal-inner></div></div>","500","stop","500","ignore","89",""
"717","71","stop-signal","67","221291","0.0-56.0","sub-07_ses-02_2","","2950","0","stim","","<div class = coverbox></div><div class = shapebox><img class = stim src = /static/experiments/motor_selective_stop_signal/images/triangle.png></img></div>","89,71","850","","71","","test","46","<div class = coverbox></div><div class = stopbox><div class = centered-shape id = stop-signal></div><div class = centered-shape id = stop-signal-inner></div></div>","500","stop","500","ignore","89",""
"729","71","stop-signal","68","223551","0.0-57.0","sub-07_ses-02_2","","2250","0","stim","","<div class = coverbox></div><div class = shapebox><img class = stim src = /static/experiments/motor_selective_stop_signal/images/rhombus.png></img></div>","89,71","850","","71","","test","47","<div class = coverbox></div><div class = stopbox><div class = centered-shape id = stop-signal></div><div class = centered-shape id = stop-signal-inner></div></div>","500","go","500","go","89",""
"889","89","stop-signal","69","226520","0.0-58.0","sub-07_ses-02_2","","2950","0","stim","","<div class = coverbox></div><div class = shapebox><img class = stim src = /static/experiments/motor_selective_stop_signal/images/Lshape.png></img></div>","89,71","850","","89","","test","48","<div class = coverbox></div><div class = stopbox><div class = centered-shape id = stop-signal></div><div class = centered-shape id = stop-signal-inner></div></div>","500","go","500","go","89",""
"553","71","stop-signal","70","228981","0.0-59.0","sub-07_ses-02_2","","2450","0","stim","","<div class = coverbox></div><div class = shapebox><img class = stim src = /static/experiments/motor_selective_stop_signal/images/rhombus.png></img></div>","89,71","850","","71","","test","49","<div class = coverbox></div><div class = stopbox><div class = centered-shape id = stop-signal></div><div class = centered-shape id = stop-signal-inner></div></div>","500","stop","500","ignore","89",""
"-1","-1","poldrack-single-stim","71","236492","0.0-60.0","sub-07_ses-02_2","","7500","1000","rest_block","","<div class = centerbox><div class = center-text>+</div></div>","none","7500","","","","","","","","","","","",""
"-1","-1","poldrack-single-stim","72","239031","0.0-61.0","sub-07_ses-02_2","","1500","500","test_start_block","","<div class = centerbox><div class = center-text>Preparez-vous!</p></div>","none","1500","","","","","","","","","","","",""
"-1","-1","stop-signal","73","241821","0.0-62.0","sub-07_ses-02_2","","2250","0","stim","","<div class = coverbox></div><div class = shapebox><img class = stim src = /static/experiments/motor_selective_stop_signal/images/Lshape.png></img></div>","89,71","850","","89","","test","50","<div class = coverbox></div><div class = stopbox><div class = centered-shape id = stop-signal></div><div class = centered-shape id = stop-signal-inner></div></div>","500","stop","500","stop","89",""
"557","71","stop-signal","74","244181","0.0-63.0","sub-07_ses-02_2","","2350","0","stim","","<div class = coverbox></div><div class = shapebox><img class = stim src = /static/experiments/motor_selective_stop_signal/images/rhombus.png></img></div>","89,71","850","","71","","test","51","<div class = coverbox></div><div class = stopbox><div class = centered-shape id = stop-signal></div><div class = centered-shape id = stop-signal-inner></div></div>","550","go","500","go","89",""
"882","89","stop-signal","75","246641","0.0-64.0","sub-07_ses-02_2","","2450","0","stim","","<div class = coverbox></div><div class = shapebox><img class = stim src = /static/experiments/motor_selective_stop_signal/images/circle.png></img></div>","89,71","850","","89","","test","52","<div class = coverbox></div><div class = stopbox><div class = centered-shape id = stop-signal></div><div class = centered-shape id = stop-signal-inner></div></div>","550","go","500","go","89",""
"-1","-1","stop-signal","76","248901","0.0-65.0","sub-07_ses-02_2","","2250","0","stim","","<div class = coverbox></div><div class = shapebox><img class = stim src = /static/experiments/motor_selective_stop_signal/images/Lshape.png></img></div>","89,71","850","","89","","test","53","<div class = coverbox></div><div class = stopbox><div class = centered-shape id = stop-signal></div><div class = centered-shape id = stop-signal-inner></div></div>","550","stop","500","stop","89",""
"550","71","stop-signal","77","251361","0.0-66.0","sub-07_ses-02_2","","2450","0","stim","","<div class = coverbox></div><div class = shapebox><img class = stim src = /static/experiments/motor_selective_stop_signal/images/triangle.png></img></div>","89,71","850","","71","","test","54","<div class = coverbox></div><div class = stopbox><div class = centered-shape id = stop-signal></div><div class = centered-shape id = stop-signal-inner></div></div>","600","stop","500","ignore","89",""
"704","71","stop-signal","78","254131","0.0-67.0","sub-07_ses-02_2","","2750","0","stim","","<div class = coverbox></div><div class = shapebox><img class = stim src = /static/experiments/motor_selective_stop_signal/images/triangle.png></img></div>","89,71","850","","71","","test","55","<div class = coverbox></div><div class = stopbox><div class = centered-shape id = stop-signal></div><div class = centered-shape id = stop-signal-inner></div></div>","600","go","500","go","89",""
"385","71","stop-signal","79","256401","0.0-68.0","sub-07_ses-02_2","","2250","0","stim","","<div class = coverbox></div><div class = shapebox><img class = stim src = /static/experiments/motor_selective_stop_signal/images/rhombus.png></img></div>","89,71","850","","71","","test","56","<div class = coverbox></div><div class = stopbox><div class = centered-shape id = stop-signal></div><div class = centered-shape id = stop-signal-inner></div></div>","600","stop","500","ignore","89",""
"932","89","stop-signal","80","258773","0.0-69.0","sub-07_ses-02_2","","2350","0","stim","","<div class = coverbox></div><div class = shapebox><img class = stim src = /static/experiments/motor_selective_stop_signal/images/Lshape.png></img></div>","89,71","850","","89","","test","57","<div class = coverbox></div><div class = stopbox><div class = centered-shape id = stop-signal></div><div class = centered-shape id = stop-signal-inner></div></div>","600","go","500","go","89",""
"675","71","stop-signal","81","261230","0.0-70.0","sub-07_ses-02_2","","2450","0","stim","","<div class = coverbox></div><div class = shapebox><img class = stim src = /static/experiments/motor_selective_stop_signal/images/rhombus.png></img></div>","89,71","850","","71","","test","58","<div class = coverbox></div><div class = stopbox><div class = centered-shape id = stop-signal></div><div class = centered-shape id = stop-signal-inner></div></div>","600","stop","500","ignore","89",""
"609","71","stop-signal","82","263581","0.0-71.0","sub-07_ses-02_2","","2350","0","stim","","<div class = coverbox></div><div class = shapebox><img class = stim src = /static/experiments/motor_selective_stop_signal/images/rhombus.png></img></div>","89,71","850","","71","","test","59","<div class = coverbox></div><div class = stopbox><div class = centered-shape id = stop-signal></div><div class = centered-shape id = stop-signal-inner></div></div>","600","go","500","go","89",""
"562","71","stop-signal","83","265841","0.0-72.0","sub-07_ses-02_2","","2250","0","stim","","<div class = coverbox></div><div class = shapebox><img class = stim src = /static/experiments/motor_selective_stop_signal/images/rhombus.png></img></div>","89,71","850","","71","","test","60","<div class = coverbox></div><div class = stopbox><div class = centered-shape id = stop-signal></div><div class = centered-shape id = stop-signal-inner></div></div>","600","stop","500","ignore","89",""
"962","89","stop-signal","84","268401","0.0-73.0","sub-07_ses-02_2","","2550","0","stim","","<div class = coverbox></div><div class = shapebox><img class = stim src = /static/experiments/motor_selective_stop_signal/images/Lshape.png></img></div>","89,71","850","","89","","test","61","<div class = coverbox></div><div class = stopbox><div class = centered-shape id = stop-signal></div><div class = centered-shape id = stop-signal-inner></div></div>","600","go","500","go","89",""
"569","71","stop-signal","85","270859","0.0-74.0","sub-07_ses-02_2","","2450","0","stim","","<div class = coverbox></div><div class = shapebox><img class = stim src = /static/experiments/motor_selective_stop_signal/images/triangle.png></img></div>","89,71","850","","71","","test","62","<div class = coverbox></div><div class = stopbox><div class = centered-shape id = stop-signal></div><div class = centered-shape id = stop-signal-inner></div></div>","600","go","500","go","89",""
"867","89","stop-signal","86","273530","0.0-75.0","sub-07_ses-02_2","","2650","0","stim","","<div class = coverbox></div><div class = shapebox><img class = stim src = /static/experiments/motor_selective_stop_signal/images/circle.png></img></div>","89,71","850","","89","","test","63","<div class = coverbox></div><div class = stopbox><div class = centered-shape id = stop-signal></div><div class = centered-shape id = stop-signal-inner></div></div>","600","go","500","go","89",""
"862","89","stop-signal","87","275791","0.0-76.0","sub-07_ses-02_2","","2250","0","stim","","<div class = coverbox></div><div class = shapebox><img class = stim src = /static/experiments/motor_selective_stop_signal/images/circle.png></img></div>","89,71","850","","89","","test","64","<div class = coverbox></div><div class = stopbox><div class = centered-shape id = stop-signal></div><div class = centered-shape id = stop-signal-inner></div></div>","600","stop","500","stop","89",""
"642","71","stop-signal","88","278453","0.0-77.0","sub-07_ses-02_2","","2650","0","stim","","<div class = coverbox></div><div class = shapebox><img class = stim src = /static/experiments/motor_selective_stop_signal/images/triangle.png></img></div>","89,71","850","","71","","test","65","<div class = coverbox></div><div class = stopbox><div class = centered-shape id = stop-signal></div><div class = centered-shape id = stop-signal-inner></div></div>","550","stop","500","ignore","89",""
"874","89","stop-signal","89","280820","0.0-78.0","sub-07_ses-02_2","","2350","0","stim","","<div class = coverbox></div><div class = shapebox><img class = stim src = /static/experiments/motor_selective_stop_signal/images/Lshape.png></img></div>","89,71","850","","89","","test","66","<div class = coverbox></div><div class = stopbox><div class = centered-shape id = stop-signal></div><div class = centered-shape id = stop-signal-inner></div></div>","550","go","500","go","89",""
"956","89","stop-signal","90","283080","0.0-79.0","sub-07_ses-02_2","","2250","0","stim","","<div class = coverbox></div><div class = shapebox><img class = stim src = /static/experiments/motor_selective_stop_signal/images/Lshape.png></img></div>","89,71","850","","89","","test","67","<div class = coverbox></div><div class = stopbox><div class = centered-shape id = stop-signal></div><div class = centered-shape id = stop-signal-inner></div></div>","550","go","500","go","89",""
"622","71","stop-signal","91","285340","0.0-80.0","sub-07_ses-02_2","","2250","0","stim","","<div class = coverbox></div><div class = shapebox><img class = stim src = /static/experiments/motor_selective_stop_signal/images/triangle.png></img></div>","89,71","850","","71","","test","68","<div class = coverbox></div><div class = stopbox><div class = centered-shape id = stop-signal></div><div class = centered-shape id = stop-signal-inner></div></div>","550","go","500","go","89",""
"875","89","stop-signal","92","287601","0.0-81.0","sub-07_ses-02_2","","2250","0","stim","","<div class = coverbox></div><div class = shapebox><img class = stim src = /static/experiments/motor_selective_stop_signal/images/Lshape.png></img></div>","89,71","850","","89","","test","69","<div class = coverbox></div><div class = stopbox><div class = centered-shape id = stop-signal></div><div class = centered-shape id = stop-signal-inner></div></div>","550","go","500","go","89",""
"752","71","stop-signal","93","289960","0.0-82.0","sub-07_ses-02_2","","2350","0","stim","","<div class = coverbox></div><div class = shapebox><img class = stim src = /static/experiments/motor_selective_stop_signal/images/triangle.png></img></div>","89,71","850","","71","","test","70","<div class = coverbox></div><div class = stopbox><div class = centered-shape id = stop-signal></div><div class = centered-shape id = stop-signal-inner></div></div>","550","go","500","go","89",""
"756","71","stop-signal","94","292532","0.0-83.0","sub-07_ses-02_2","","2550","0","stim","","<div class = coverbox></div><div class = shapebox><img class = stim src = /static/experiments/motor_selective_stop_signal/images/triangle.png></img></div>","89,71","850","","71","","test","71","<div class = coverbox></div><div class = stopbox><div class = centered-shape id = stop-signal></div><div class = centered-shape id = stop-signal-inner></div></div>","550","stop","500","ignore","89",""
"719","89","stop-signal","95","294891","0.0-84.0","sub-07_ses-02_2","","2350","0","stim","","<div class = coverbox></div><div class = shapebox><img class = stim src = /static/experiments/motor_selective_stop_signal/images/circle.png></img></div>","89,71","850","","89","","test","72","<div class = coverbox></div><div class = stopbox><div class = centered-shape id = stop-signal></div><div class = centered-shape id = stop-signal-inner></div></div>","550","go","500","go","89",""
"-1","-1","stop-signal","96","297360","0.0-85.0","sub-07_ses-02_2","","2450","0","stim","","<div class = coverbox></div><div class = shapebox><img class = stim src = /static/experiments/motor_selective_stop_signal/images/Lshape.png></img></div>","89,71","850","","89","","test","73","<div class = coverbox></div><div class = stopbox><div class = centered-shape id = stop-signal></div><div class = centered-shape id = stop-signal-inner></div></div>","550","stop","500","stop","89",""
"518","71","stop-signal","97","299820","0.0-86.0","sub-07_ses-02_2","","2450","0","stim","","<div class = coverbox></div><div class = shapebox><img class = stim src = /static/experiments/motor_selective_stop_signal/images/rhombus.png></img></div>","89,71","850","","71","","test","74","<div class = coverbox></div><div class = stopbox><div class = centered-shape id = stop-signal></div><div class = centered-shape id = stop-signal-inner></div></div>","600","go","500","go","89",""
"730","89","stop-signal","98","302181","0.0-87.0","sub-07_ses-02_2","","2350","0","stim","","<div class = coverbox></div><div class = shapebox><img class = stim src = /static/experiments/motor_selective_stop_signal/images/circle.png></img></div>","89,71","850","","89","","test","75","<div class = coverbox></div><div class = stopbox><div class = centered-shape id = stop-signal></div><div class = centered-shape id = stop-signal-inner></div></div>","600","stop","500","stop","89",""
"642","71","stop-signal","99","304440","0.0-88.0","sub-07_ses-02_2","","2250","0","stim","","<div class = coverbox></div><div class = shapebox><img class = stim src = /static/experiments/motor_selective_stop_signal/images/triangle.png></img></div>","89,71","850","","71","","test","76","<div class = coverbox></div><div class = stopbox><div class = centered-shape id = stop-signal></div><div class = centered-shape id = stop-signal-inner></div></div>","550","stop","500","ignore","89",""
"657","71","stop-signal","100","307001","0.0-89.0","sub-07_ses-02_2","","2550","0","stim","","<div class = coverbox></div><div class = shapebox><img class = stim src = /static/experiments/motor_selective_stop_signal/images/rhombus.png></img></div>","89,71","850","","71","","test","77","<div class = coverbox></div><div class = stopbox><div class = centered-shape id = stop-signal></div><div class = centered-shape id = stop-signal-inner></div></div>","550","go","500","go","89",""
"854","89","stop-signal","101","309560","0.0-90.0","sub-07_ses-02_2","","2550","0","stim","","<div class = coverbox></div><div class = shapebox><img class = stim src = /static/experiments/motor_selective_stop_signal/images/Lshape.png></img></div>","89,71","850","","89","","test","78","<div class = coverbox></div><div class = stopbox><div class = centered-shape id = stop-signal></div><div class = centered-shape id = stop-signal-inner></div></div>","550","go","500","go","89",""
"702","71","stop-signal","102","311831","0.0-91.0","sub-07_ses-02_2","","2250","0","stim","","<div class = coverbox></div><div class = shapebox><img class = stim src = /static/experiments/motor_selective_stop_signal/images/rhombus.png></img></div>","89,71","850","","71","","test","79","<div class = coverbox></div><div class = stopbox><div class = centered-shape id = stop-signal></div><div class = centered-shape id = stop-signal-inner></div></div>","550","stop","500","ignore","89",""
"713","71","stop-signal","103","314101","0.0-92.0","sub-07_ses-02_2","","2250","0","stim","","<div class = coverbox></div><div class = shapebox><img class = stim src = /static/experiments/motor_selective_stop_signal/images/rhombus.png></img></div>","89,71","850","","71","","test","80","<div class = coverbox></div><div class = stopbox><div class = centered-shape id = stop-signal></div><div class = centered-shape id = stop-signal-inner></div></div>","550","go","500","go","89",""
"-1","-1","stop-signal","104","316571","0.0-93.0","sub-07_ses-02_2","","2450","0","stim","","<div class = coverbox></div><div class = shapebox><img class = stim src = /static/experiments/motor_selective_stop_signal/images/circle.png></img></div>","89,71","850","","89","","test","81","<div class = coverbox></div><div class = stopbox><div class = centered-shape id = stop-signal></div><div class = centered-shape id = stop-signal-inner></div></div>","550","stop","500","stop","89",""
"814","89","stop-signal","105","318930","0.0-94.0","sub-07_ses-02_2","","2350","0","stim","","<div class = coverbox></div><div class = shapebox><img class = stim src = /static/experiments/motor_selective_stop_signal/images/Lshape.png></img></div>","89,71","850","","89","","test","82","<div class = coverbox></div><div class = stopbox><div class = centered-shape id = stop-signal></div><div class = centered-shape id = stop-signal-inner></div></div>","600","go","500","go","89",""
"922","89","stop-signal","106","321190","0.0-95.0","sub-07_ses-02_2","","2250","0","stim","","<div class = coverbox></div><div class = shapebox><img class = stim src = /static/experiments/motor_selective_stop_signal/images/Lshape.png></img></div>","89,71","850","","89","","test","83","<div class = coverbox></div><div class = stopbox><div class = centered-shape id = stop-signal></div><div class = centered-shape id = stop-signal-inner></div></div>","600","go","500","go","89",""
"586","71","stop-signal","107","324360","0.0-96.0","sub-07_ses-02_2","","3150","0","stim","","<div class = coverbox></div><div class = shapebox><img class = stim src = /static/experiments/motor_selective_stop_signal/images/triangle.png></img></div>","89,71","850","","71","","test","84","<div class = coverbox></div><div class = stopbox><div class = centered-shape id = stop-signal></div><div class = centered-shape id = stop-signal-inner></div></div>","600","go","500","go","89",""
"612","71","stop-signal","108","327021","0.0-97.0","sub-07_ses-02_2","","2650","0","stim","","<div class = coverbox></div><div class = shapebox><img class = stim src = /static/experiments/motor_selective_stop_signal/images/rhombus.png></img></div>","89,71","850","","71","","test","85","<div class = coverbox></div><div class = stopbox><div class = centered-shape id = stop-signal></div><div class = centered-shape id = stop-signal-inner></div></div>","600","go","500","go","89",""
"726","71","stop-signal","109","329281","0.0-98.0","sub-07_ses-02_2","","2250","0","stim","","<div class = coverbox></div><div class = shapebox><img class = stim src = /static/experiments/motor_selective_stop_signal/images/triangle.png></img></div>","89,71","850","","71","","test","86","<div class = coverbox></div><div class = stopbox><div class = centered-shape id = stop-signal></div><div class = centered-shape id = stop-signal-inner></div></div>","600","stop","500","ignore","89",""
"-1","-1","stop-signal","110","331750","0.0-99.0","sub-07_ses-02_2","","2450","0","stim","","<div class = coverbox></div><div class = shapebox><img class = stim src = /static/experiments/motor_selective_stop_signal/images/Lshape.png></img></div>","89,71","850","","89","","test","87","<div class = coverbox></div><div class = stopbox><div class = centered-shape id = stop-signal></div><div class = centered-shape id = stop-signal-inner></div></div>","600","stop","500","stop","89",""
"504","71","stop-signal","111","334610","0.0-100.0","sub-07_ses-02_2","","2850","0","stim","","<div class = coverbox></div><div class = shapebox><img class = stim src = /static/experiments/motor_selective_stop_signal/images/rhombus.png></img></div>","89,71","850","","71","","test","88","<div class = coverbox></div><div class = stopbox><div class = centered-shape id = stop-signal></div><div class = centered-shape id = stop-signal-inner></div></div>","650","stop","500","ignore","89",""
"923","89","stop-signal","112","337071","0.0-101.0","sub-07_ses-02_2","","2450","0","stim","","<div class = coverbox></div><div class = shapebox><img class = stim src = /static/experiments/motor_selective_stop_signal/images/circle.png></img></div>","89,71","850","","89","","test","89","<div class = coverbox></div><div class = stopbox><div class = centered-shape id = stop-signal></div><div class = centered-shape id = stop-signal-inner></div></div>","650","go","500","go","89",""
"860","89","stop-signal","113","339340","0.0-102.0","sub-07_ses-02_2","","2250","0","stim","","<div class = coverbox></div><div class = shapebox><img class = stim src = /static/experiments/motor_selective_stop_signal/images/Lshape.png></img></div>","89,71","850","","89","","test","90","<div class = coverbox></div><div class = stopbox><div class = centered-shape id = stop-signal></div><div class = centered-shape id = stop-signal-inner></div></div>","650","go","500","go","89",""
"584","71","stop-signal","114","341601","0.0-103.0","sub-07_ses-02_2","","2250","0","stim","","<div class = coverbox></div><div class = shapebox><img class = stim src = /static/experiments/motor_selective_stop_signal/images/rhombus.png></img></div>","89,71","850","","71","","test","91","<div class = coverbox></div><div class = stopbox><div class = centered-shape id = stop-signal></div><div class = centered-shape id = stop-signal-inner></div></div>","650","go","500","go","89",""
"558","71","stop-signal","115","344161","0.0-104.0","sub-07_ses-02_2","","2550","0","stim","","<div class = coverbox></div><div class = shapebox><img class = stim src = /static/experiments/motor_selective_stop_signal/images/rhombus.png></img></div>","89,71","850","","71","","test","92","<div class = coverbox></div><div class = stopbox><div class = centered-shape id = stop-signal></div><div class = centered-shape id = stop-signal-inner></div></div>","650","stop","500","ignore","89",""
"-1","-1","stop-signal","116","346431","0.0-105.0","sub-07_ses-02_2","","2250","0","stim","","<div class = coverbox></div><div class = shapebox><img class = stim src = /static/experiments/motor_selective_stop_signal/images/circle.png></img></div>","89,71","850","","89","","test","93","<div class = coverbox></div><div class = stopbox><div class = centered-shape id = stop-signal></div><div class = centered-shape id = stop-signal-inner></div></div>","650","stop","500","stop","89",""
"959","89","stop-signal","117","348791","0.0-106.0","sub-07_ses-02_2","","2350","0","stim","","<div class = coverbox></div><div class = shapebox><img class = stim src = /static/experiments/motor_selective_stop_signal/images/Lshape.png></img></div>","89,71","850","","89","","test","94","<div class = coverbox></div><div class = stopbox><div class = centered-shape id = stop-signal></div><div class = centered-shape id = stop-signal-inner></div></div>","700","go","500","go","89",""
"-1","-1","stop-signal","118","351151","0.0-107.0","sub-07_ses-02_2","","2350","0","stim","","<div class = coverbox></div><div class = shapebox><img class = stim src = /static/experiments/motor_selective_stop_signal/images/Lshape.png></img></div>","89,71","850","","89","","test","95","<div class = coverbox></div><div class = stopbox><div class = centered-shape id = stop-signal></div><div class = centered-shape id = stop-signal-inner></div></div>","700","stop","500","stop","89",""
"793","89","stop-signal","119","353411","0.0-108.0","sub-07_ses-02_2","","2250","0","stim","","<div class = coverbox></div><div class = shapebox><img class = stim src = /static/experiments/motor_selective_stop_signal/images/Lshape.png></img></div>","89,71","850","","89","","test","96","<div class = coverbox></div><div class = stopbox><div class = centered-shape id = stop-signal></div><div class = centered-shape id = stop-signal-inner></div></div>","750","go","500","go","89",""
"460","71","stop-signal","120","355781","0.0-109.0","sub-07_ses-02_2","","2350","0","stim","","<div class = coverbox></div><div class = shapebox><img class = stim src = /static/experiments/motor_selective_stop_signal/images/triangle.png></img></div>","89,71","850","","71","","test","97","<div class = coverbox></div><div class = stopbox><div class = centered-shape id = stop-signal></div><div class = centered-shape id = stop-signal-inner></div></div>","750","stop","500","ignore","89",""
"438","71","stop-signal","121","358051","0.0-110.0","sub-07_ses-02_2","","2250","0","stim","","<div class = coverbox></div><div class = shapebox><img class = stim src = /static/experiments/motor_selective_stop_signal/images/rhombus.png></img></div>","89,71","850","","71","","test","98","<div class = coverbox></div><div class = stopbox><div class = centered-shape id = stop-signal></div><div class = centered-shape id = stop-signal-inner></div></div>","750","go","500","go","89",""
"804","89","stop-signal","122","360510","0.0-111.0","sub-07_ses-02_2","","2450","0","stim","","<div class = coverbox></div><div class = shapebox><img class = stim src = /static/experiments/motor_selective_stop_signal/images/Lshape.png></img></div>","89,71","850","","89","","test","99","<div class = coverbox></div><div class = stopbox><div class = centered-shape id = stop-signal></div><div class = centered-shape id = stop-signal-inner></div></div>","750","go","500","go","89",""
"-1","-1","poldrack-single-stim","123","368022","0.0-112.0","sub-07_ses-02_2","","7500","1000","rest_block","","<div class = centerbox><div class = center-text>+</div></div>","none","7500","","","","","","","","","","","",""
"-1","-1","poldrack-single-stim","124","370561","0.0-113.0","sub-07_ses-02_2","","1500","500","test_start_block","","<div class = centerbox><div class = center-text>Preparez-vous!</p></div>","none","1500","","","","","","","","","","","",""
"664","71","stop-signal","125","373340","0.0-114.0","sub-07_ses-02_2","","2250","0","stim","","<div class = coverbox></div><div class = shapebox><img class = stim src = /static/experiments/motor_selective_stop_signal/images/triangle.png></img></div>","89,71","850","","71","","test","100","<div class = coverbox></div><div class = stopbox><div class = centered-shape id = stop-signal></div><div class = centered-shape id = stop-signal-inner></div></div>","750","go","500","go","89",""
"599","71","stop-signal","126","375700","0.0-115.0","sub-07_ses-02_2","","2350","0","stim","","<div class = coverbox></div><div class = shapebox><img class = stim src = /static/experiments/motor_selective_stop_signal/images/rhombus.png></img></div>","89,71","850","","71","","test","101","<div class = coverbox></div><div class = stopbox><div class = centered-shape id = stop-signal></div><div class = centered-shape id = stop-signal-inner></div></div>","750","go","500","go","89",""
"552","71","stop-signal","127","378160","0.0-116.0","sub-07_ses-02_2","","2450","0","stim","","<div class = coverbox></div><div class = shapebox><img class = stim src = /static/experiments/motor_selective_stop_signal/images/triangle.png></img></div>","89,71","850","","71","","test","102","<div class = coverbox></div><div class = stopbox><div class = centered-shape id = stop-signal></div><div class = centered-shape id = stop-signal-inner></div></div>","750","stop","500","ignore","89",""
"926","89","stop-signal","128","380420","0.0-117.0","sub-07_ses-02_2","","2250","0","stim","","<div class = coverbox></div><div class = shapebox><img class = stim src = /static/experiments/motor_selective_stop_signal/images/circle.png></img></div>","89,71","850","","89","","test","103","<div class = coverbox></div><div class = stopbox><div class = centered-shape id = stop-signal></div><div class = centered-shape id = stop-signal-inner></div></div>","750","stop","500","stop","89",""
"1010","89","stop-signal","129","382681","0.0-118.0","sub-07_ses-02_2","","2250","0","stim","","<div class = coverbox></div><div class = shapebox><img class = stim src = /static/experiments/motor_selective_stop_signal/images/Lshape.png></img></div>","89,71","850","","89","","test","104","<div class = coverbox></div><div class = stopbox><div class = centered-shape id = stop-signal></div><div class = centered-shape id = stop-signal-inner></div></div>","700","go","500","go","89",""
"623","71","stop-signal","130","385541","0.0-119.0","sub-07_ses-02_2","","2850","0","stim","","<div class = coverbox></div><div class = shapebox><img class = stim src = /static/experiments/motor_selective_stop_signal/images/rhombus.png></img></div>","89,71","850","","71","","test","105","<div class = coverbox></div><div class = stopbox><div class = centered-shape id = stop-signal></div><div class = centered-shape id = stop-signal-inner></div></div>","700","go","500","go","89",""
"531","71","stop-signal","131","387800","0.0-120.0","sub-07_ses-02_2","","2250","0","stim","","<div class = coverbox></div><div class = shapebox><img class = stim src = /static/experiments/motor_selective_stop_signal/images/triangle.png></img></div>","89,71","850","","71","","test","106","<div class = coverbox></div><div class = stopbox><div class = centered-shape id = stop-signal></div><div class = centered-shape id = stop-signal-inner></div></div>","700","go","500","go","89",""
"918","89","stop-signal","132","391261","0.0-121.0","sub-07_ses-02_2","","3450","0","stim","","<div class = coverbox></div><div class = shapebox><img class = stim src = /static/experiments/motor_selective_stop_signal/images/circle.png></img></div>","89,71","850","","89","","test","107","<div class = coverbox></div><div class = stopbox><div class = centered-shape id = stop-signal></div><div class = centered-shape id = stop-signal-inner></div></div>","700","go","500","go","89",""
"552","71","stop-signal","133","393620","0.0-122.0","sub-07_ses-02_2","","2350","0","stim","","<div class = coverbox></div><div class = shapebox><img class = stim src = /static/experiments/motor_selective_stop_signal/images/triangle.png></img></div>","89,71","850","","71","","test","108","<div class = coverbox></div><div class = stopbox><div class = centered-shape id = stop-signal></div><div class = centered-shape id = stop-signal-inner></div></div>","700","stop","500","ignore","89",""
"585","71","stop-signal","134","395982","0.0-123.0","sub-07_ses-02_2","","2350","0","stim","","<div class = coverbox></div><div class = shapebox><img class = stim src = /static/experiments/motor_selective_stop_signal/images/triangle.png></img></div>","89,71","850","","71","","test","109","<div class = coverbox></div><div class = stopbox><div class = centered-shape id = stop-signal></div><div class = centered-shape id = stop-signal-inner></div></div>","700","stop","500","ignore","89",""
"518","71","stop-signal","135","398340","0.0-124.0","sub-07_ses-02_2","","2350","0","stim","","<div class = coverbox></div><div class = shapebox><img class = stim src = /static/experiments/motor_selective_stop_signal/images/triangle.png></img></div>","89,71","850","","71","","test","110","<div class = coverbox></div><div class = stopbox><div class = centered-shape id = stop-signal></div><div class = centered-shape id = stop-signal-inner></div></div>","700","go","500","go","89",""
"814","89","stop-signal","136","400810","0.0-125.0","sub-07_ses-02_2","","2450","0","stim","","<div class = coverbox></div><div class = shapebox><img class = stim src = /static/experiments/motor_selective_stop_signal/images/Lshape.png></img></div>","89,71","850","","89","","test","111","<div class = coverbox></div><div class = stopbox><div class = centered-shape id = stop-signal></div><div class = centered-shape id = stop-signal-inner></div></div>","700","stop","500","stop","89",""
"620","71","stop-signal","137","403371","0.0-126.0","sub-07_ses-02_2","","2550","0","stim","","<div class = coverbox></div><div class = shapebox><img class = stim src = /static/experiments/motor_selective_stop_signal/images/rhombus.png></img></div>","89,71","850","","71","","test","112","<div class = coverbox></div><div class = stopbox><div class = centered-shape id = stop-signal></div><div class = centered-shape id = stop-signal-inner></div></div>","650","stop","500","ignore","89",""
"591","71","stop-signal","138","405730","0.0-127.0","sub-07_ses-02_2","","2350","0","stim","","<div class = coverbox></div><div class = shapebox><img class = stim src = /static/experiments/motor_selective_stop_signal/images/rhombus.png></img></div>","89,71","850","","71","","test","113","<div class = coverbox></div><div class = stopbox><div class = centered-shape id = stop-signal></div><div class = centered-shape id = stop-signal-inner></div></div>","650","go","500","go","89",""
"839","89","stop-signal","139","407992","0.0-128.0","sub-07_ses-02_2","","2250","0","stim","","<div class = coverbox></div><div class = shapebox><img class = stim src = /static/experiments/motor_selective_stop_signal/images/circle.png></img></div>","89,71","850","","89","","test","114","<div class = coverbox></div><div class = stopbox><div class = centered-shape id = stop-signal></div><div class = centered-shape id = stop-signal-inner></div></div>","650","stop","500","stop","89",""
"888","71","stop-signal","140","410250","0.0-129.0","sub-07_ses-02_2","","2250","0","stim","","<div class = coverbox></div><div class = shapebox><img class = stim src = /static/experiments/motor_selective_stop_signal/images/Lshape.png></img></div>","89,71","850","","89","","test","115","<div class = coverbox></div><div class = stopbox><div class = centered-shape id = stop-signal></div><div class = centered-shape id = stop-signal-inner></div></div>","600","go","500","go","89",""
"980","89","stop-signal","141","413320","0.0-130.0","sub-07_ses-02_2","","3050","0","stim","","<div class = coverbox></div><div class = shapebox><img class = stim src = /static/experiments/motor_selective_stop_signal/images/circle.png></img></div>","89,71","850","","89","","test","116","<div class = coverbox></div><div class = stopbox><div class = centered-shape id = stop-signal></div><div class = centered-shape id = stop-signal-inner></div></div>","600","go","500","go","89",""
"583","71","stop-signal","142","415781","0.0-131.0","sub-07_ses-02_2","","2450","0","stim","","<div class = coverbox></div><div class = shapebox><img class = stim src = /static/experiments/motor_selective_stop_signal/images/triangle.png></img></div>","89,71","850","","71","","test","117","<div class = coverbox></div><div class = stopbox><div class = centered-shape id = stop-signal></div><div class = centered-shape id = stop-signal-inner></div></div>","600","go","500","go","89",""
"555","71","stop-signal","143","418140","0.0-132.0","sub-07_ses-02_2","","2350","0","stim","","<div class = coverbox></div><div class = shapebox><img class = stim src = /static/experiments/motor_selective_stop_signal/images/rhombus.png></img></div>","89,71","850","","71","","test","118","<div class = coverbox></div><div class = stopbox><div class = centered-shape id = stop-signal></div><div class = centered-shape id = stop-signal-inner></div></div>","600","go","500","go","89",""
"811","89","stop-signal","144","420411","0.0-133.0","sub-07_ses-02_2","","2250","0","stim","","<div class = coverbox></div><div class = shapebox><img class = stim src = /static/experiments/motor_selective_stop_signal/images/circle.png></img></div>","89,71","850","","89","","test","119","<div class = coverbox></div><div class = stopbox><div class = centered-shape id = stop-signal></div><div class = centered-shape id = stop-signal-inner></div></div>","600","stop","500","stop","89",""
"650","89","stop-signal","145","423681","0.0-134.0","sub-07_ses-02_2","","3250","0","stim","","<div class = coverbox></div><div class = shapebox><img class = stim src = /static/experiments/motor_selective_stop_signal/images/circle.png></img></div>","89,71","850","","89","","test","120","<div class = coverbox></div><div class = stopbox><div class = centered-shape id = stop-signal></div><div class = centered-shape id = stop-signal-inner></div></div>","550","stop","500","stop","89",""
"953","89","stop-signal","146","426640","0.0-135.0","sub-07_ses-02_2","","2950","0","stim","","<div class = coverbox></div><div class = shapebox><img class = stim src = /static/experiments/motor_selective_stop_signal/images/circle.png></img></div>","89,71","850","","89","","test","121","<div class = coverbox></div><div class = stopbox><div class = centered-shape id = stop-signal></div><div class = centered-shape id = stop-signal-inner></div></div>","500","go","500","go","89",""
"-1","-1","stop-signal","147","429211","0.0-136.0","sub-07_ses-02_2","","2550","0","stim","","<div class = coverbox></div><div class = shapebox><img class = stim src = /static/experiments/motor_selective_stop_signal/images/Lshape.png></img></div>","89,71","850","","89","","test","122","<div class = coverbox></div><div class = stopbox><div class = centered-shape id = stop-signal></div><div class = centered-shape id = stop-signal-inner></div></div>","500","stop","500","stop","89",""
"870","89","stop-signal","148","431570","0.0-137.0","sub-07_ses-02_2","","2350","0","stim","","<div class = coverbox></div><div class = shapebox><img class = stim src = /static/experiments/motor_selective_stop_signal/images/circle.png></img></div>","89,71","850","","89","","test","123","<div class = coverbox></div><div class = stopbox><div class = centered-shape id = stop-signal></div><div class = centered-shape id = stop-signal-inner></div></div>","550","go","500","go","89",""
"-1","-1","stop-signal","149","434130","0.0-138.0","sub-07_ses-02_2","","2550","0","stim","","<div class = coverbox></div><div class = shapebox><img class = stim src = /static/experiments/motor_selective_stop_signal/images/Lshape.png></img></div>","89,71","850","","89","","test","124","<div class = coverbox></div><div class = stopbox><div class = centered-shape id = stop-signal></div><div class = centered-shape id = stop-signal-inner></div></div>","550","stop","500","stop","89",""
"879","89","stop-signal","150","436490","0.0-139.0","sub-07_ses-02_2","","2350","0","stim","","<div class = coverbox></div><div class = shapebox><img class = stim src = /static/experiments/motor_selective_stop_signal/images/circle.png></img></div>","89,71","850","","89","","test","125","<div class = coverbox></div><div class = stopbox><div class = centered-shape id = stop-signal></div><div class = centered-shape id = stop-signal-inner></div></div>","600","go","500","go","89",""
"915","89","stop-signal","151","438760","0.0-140.0","sub-07_ses-02_2","","2250","0","stim","","<div class = coverbox></div><div class = shapebox><img class = stim src = /static/experiments/motor_selective_stop_signal/images/circle.png></img></div>","89,71","850","","89","","test","126","<div class = coverbox></div><div class = stopbox><div class = centered-shape id = stop-signal></div><div class = centered-shape id = stop-signal-inner></div></div>","600","go","500","go","89",""
"651","71","stop-signal","152","441221","0.0-141.0","sub-07_ses-02_2","","2450","0","stim","","<div class = coverbox></div><div class = shapebox><img class = stim src = /static/experiments/motor_selective_stop_signal/images/rhombus.png></img></div>","89,71","850","","71","","test","127","<div class = coverbox></div><div class = stopbox><div class = centered-shape id = stop-signal></div><div class = centered-shape id = stop-signal-inner></div></div>","600","stop","500","ignore","89",""
"558","71","stop-signal","153","443581","0.0-142.0","sub-07_ses-02_2","","2350","0","stim","","<div class = coverbox></div><div class = shapebox><img class = stim src = /static/experiments/motor_selective_stop_signal/images/triangle.png></img></div>","89,71","850","","71","","test","128","<div class = coverbox></div><div class = stopbox><div class = centered-shape id = stop-signal></div><div class = centered-shape id = stop-signal-inner></div></div>","600","go","500","go","89",""
"635","71","stop-signal","154","446242","0.0-143.0","sub-07_ses-02_2","","2650","0","stim","","<div class = coverbox></div><div class = shapebox><img class = stim src = /static/experiments/motor_selective_stop_signal/images/rhombus.png></img></div>","89,71","850","","71","","test","129","<div class = coverbox></div><div class = stopbox><div class = centered-shape id = stop-signal></div><div class = centered-shape id = stop-signal-inner></div></div>","600","stop","500","ignore","89",""
"840","89","stop-signal","155","448511","0.0-144.0","sub-07_ses-02_2","","2250","0","stim","","<div class = coverbox></div><div class = shapebox><img class = stim src = /static/experiments/motor_selective_stop_signal/images/circle.png></img></div>","89,71","850","","89","","test","130","<div class = coverbox></div><div class = stopbox><div class = centered-shape id = stop-signal></div><div class = centered-shape id = stop-signal-inner></div></div>","600","go","500","go","89",""
"871","89","stop-signal","156","450781","0.0-145.0","sub-07_ses-02_2","","2250","0","stim","","<div class = coverbox></div><div class = shapebox><img class = stim src = /static/experiments/motor_selective_stop_signal/images/Lshape.png></img></div>","89,71","850","","89","","test","131","<div class = coverbox></div><div class = stopbox><div class = centered-shape id = stop-signal></div><div class = centered-shape id = stop-signal-inner></div></div>","600","stop","500","stop","89",""
"671","71","stop-signal","157","453242","0.0-146.0","sub-07_ses-02_2","","2450","0","stim","","<div class = coverbox></div><div class = shapebox><img class = stim src = /static/experiments/motor_selective_stop_signal/images/triangle.png></img></div>","89,71","850","","71","","test","132","<div class = coverbox></div><div class = stopbox><div class = centered-shape id = stop-signal></div><div class = centered-shape id = stop-signal-inner></div></div>","550","go","500","go","89",""
"846","71","stop-signal","158","455501","0.0-147.0","sub-07_ses-02_2","","2250","0","stim","","<div class = coverbox></div><div class = shapebox><img class = stim src = /static/experiments/motor_selective_stop_signal/images/rhombus.png></img></div>","89,71","850","","71","","test","133","<div class = coverbox></div><div class = stopbox><div class = centered-shape id = stop-signal></div><div class = centered-shape id = stop-signal-inner></div></div>","550","go","500","go","89",""
"-1","-1","stop-signal","159","458061","0.0-148.0","sub-07_ses-02_2","","2550","0","stim","","<div class = coverbox></div><div class = shapebox><img class = stim src = /static/experiments/motor_selective_stop_signal/images/circle.png></img></div>","89,71","850","","89","","test","134","<div class = coverbox></div><div class = stopbox><div class = centered-shape id = stop-signal></div><div class = centered-shape id = stop-signal-inner></div></div>","550","stop","500","stop","89",""
"861","71","stop-signal","160","460319","0.0-149.0","sub-07_ses-02_2","","2250","0","stim","","<div class = coverbox></div><div class = shapebox><img class = stim src = /static/experiments/motor_selective_stop_signal/images/rhombus.png></img></div>","89,71","850","","71","","test","135","<div class = coverbox></div><div class = stopbox><div class = centered-shape id = stop-signal></div><div class = centered-shape id = stop-signal-inner></div></div>","600","go","500","go","89",""
"673","71","stop-signal","161","462690","0.0-150.0","sub-07_ses-02_2","","2350","0","stim","","<div class = coverbox></div><div class = shapebox><img class = stim src = /static/experiments/motor_selective_stop_signal/images/triangle.png></img></div>","89,71","850","","71","","test","136","<div class = coverbox></div><div class = stopbox><div class = centered-shape id = stop-signal></div><div class = centered-shape id = stop-signal-inner></div></div>","600","stop","500","ignore","89",""
"-1","-1","stop-signal","162","464951","0.0-151.0","sub-07_ses-02_2","","2250","0","stim","","<div class = coverbox></div><div class = shapebox><img class = stim src = /static/experiments/motor_selective_stop_signal/images/circle.png></img></div>","89,71","850","","89","","test","137","<div class = coverbox></div><div class = stopbox><div class = centered-shape id = stop-signal></div><div class = centered-shape id = stop-signal-inner></div></div>","600","stop","500","stop","89",""
"-1","-1","stop-signal","163","467522","0.0-152.0","sub-07_ses-02_2","","2550","0","stim","","<div class = coverbox></div><div class = shapebox><img class = stim src = /static/experiments/motor_selective_stop_signal/images/circle.png></img></div>","89,71","850","","89","","test","138","<div class = coverbox></div><div class = stopbox><div class = centered-shape id = stop-signal></div><div class = centered-shape id = stop-signal-inner></div></div>","650","stop","500","stop","89",""
"655","71","stop-signal","164","470090","0.0-153.0","sub-07_ses-02_2","","2550","0","stim","","<div class = coverbox></div><div class = shapebox><img class = stim src = /static/experiments/motor_selective_stop_signal/images/triangle.png></img></div>","89,71","850","","71","","test","139","<div class = coverbox></div><div class = stopbox><div class = centered-shape id = stop-signal></div><div class = centered-shape id = stop-signal-inner></div></div>","700","go","500","go","89",""
"599","71","stop-signal","165","472450","0.0-154.0","sub-07_ses-02_2","","2350","0","stim","","<div class = coverbox></div><div class = shapebox><img class = stim src = /static/experiments/motor_selective_stop_signal/images/triangle.png></img></div>","89,71","850","","71","","test","140","<div class = coverbox></div><div class = stopbox><div class = centered-shape id = stop-signal></div><div class = centered-shape id = stop-signal-inner></div></div>","700","go","500","go","89",""
"941","89","stop-signal","166","474810","0.0-155.0","sub-07_ses-02_2","","2350","0","stim","","<div class = coverbox></div><div class = shapebox><img class = stim src = /static/experiments/motor_selective_stop_signal/images/circle.png></img></div>","89,71","850","","89","","test","141","<div class = coverbox></div><div class = stopbox><div class = centered-shape id = stop-signal></div><div class = centered-shape id = stop-signal-inner></div></div>","700","go","500","go","89",""
"627","71","stop-signal","167","477081","0.0-156.0","sub-07_ses-02_2","","2250","0","stim","","<div class = coverbox></div><div class = shapebox><img class = stim src = /static/experiments/motor_selective_stop_signal/images/rhombus.png></img></div>","89,71","850","","71","","test","142","<div class = coverbox></div><div class = stopbox><div class = centered-shape id = stop-signal></div><div class = centered-shape id = stop-signal-inner></div></div>","700","go","500","go","89",""
"852","71","stop-signal","168","479541","0.0-157.0","sub-07_ses-02_2","","2450","0","stim","","<div class = coverbox></div><div class = shapebox><img class = stim src = /static/experiments/motor_selective_stop_signal/images/rhombus.png></img></div>","89,71","850","","71","","test","143","<div class = coverbox></div><div class = stopbox><div class = centered-shape id = stop-signal></div><div class = centered-shape id = stop-signal-inner></div></div>","700","stop","500","ignore","89",""
"1107","89","stop-signal","169","481801","0.0-158.0","sub-07_ses-02_2","","2250","0","stim","","<div class = coverbox></div><div class = shapebox><img class = stim src = /static/experiments/motor_selective_stop_signal/images/Lshape.png></img></div>","89,71","850","","89","","test","144","<div class = coverbox></div><div class = stopbox><div class = centered-shape id = stop-signal></div><div class = centered-shape id = stop-signal-inner></div></div>","700","go","500","go","89",""
"619","71","stop-signal","170","484261","0.0-159.0","sub-07_ses-02_2","","2450","0","stim","","<div class = coverbox></div><div class = shapebox><img class = stim src = /static/experiments/motor_selective_stop_signal/images/rhombus.png></img></div>","89,71","850","","71","","test","145","<div class = coverbox></div><div class = stopbox><div class = centered-shape id = stop-signal></div><div class = centered-shape id = stop-signal-inner></div></div>","700","stop","500","ignore","89",""
"902","89","stop-signal","171","486921","0.0-160.0","sub-07_ses-02_2","","2650","0","stim","","<div class = coverbox></div><div class = shapebox><img class = stim src = /static/experiments/motor_selective_stop_signal/images/circle.png></img></div>","89,71","850","","89","","test","146","<div class = coverbox></div><div class = stopbox><div class = centered-shape id = stop-signal></div><div class = centered-shape id = stop-signal-inner></div></div>","700","stop","500","stop","89",""
"806","71","stop-signal","172","489380","0.0-161.0","sub-07_ses-02_2","","2450","0","stim","","<div class = coverbox></div><div class = shapebox><img class = stim src = /static/experiments/motor_selective_stop_signal/images/triangle.png></img></div>","89,71","850","","71","","test","147","<div class = coverbox></div><div class = stopbox><div class = centered-shape id = stop-signal></div><div class = centered-shape id = stop-signal-inner></div></div>","650","go","500","go","89",""
"831","89","stop-signal","173","491741","0.0-162.0","sub-07_ses-02_2","","2350","0","stim","","<div class = coverbox></div><div class = shapebox><img class = stim src = /static/experiments/motor_selective_stop_signal/images/Lshape.png></img></div>","89,71","850","","89","","test","148","<div class = coverbox></div><div class = stopbox><div class = centered-shape id = stop-signal></div><div class = centered-shape id = stop-signal-inner></div></div>","650","go","500","go","89",""
"860","71","stop-signal","174","494000","0.0-163.0","sub-07_ses-02_2","","2250","0","stim","","<div class = coverbox></div><div class = shapebox><img class = stim src = /static/experiments/motor_selective_stop_signal/images/triangle.png></img></div>","89,71","850","","71","","test","149","<div class = coverbox></div><div class = stopbox><div class = centered-shape id = stop-signal></div><div class = centered-shape id = stop-signal-inner></div></div>","650","stop","500","ignore","89",""
"-1","-1","poldrack-single-stim","175","501522","0.0-164.0","sub-07_ses-02_2","","7500","1000","rest_block","","<div class = centerbox><div class = center-text>+</div></div>","none","7500","","","","","","","","","","","",""
"-1","-1","poldrack-single-stim","176","504062","0.0-165.0","sub-07_ses-02_2","","1500","500","test_start_block","","<div class = centerbox><div class = center-text>Preparez-vous!</p></div>","none","1500","","","","","","","","","","","",""
"715","71","stop-signal","177","507140","0.0-166.0","sub-07_ses-02_2","","2550","0","stim","","<div class = coverbox></div><div class = shapebox><img class = stim src = /static/experiments/motor_selective_stop_signal/images/rhombus.png></img></div>","89,71","850","","71","","test","150","<div class = coverbox></div><div class = stopbox><div class = centered-shape id = stop-signal></div><div class = centered-shape id = stop-signal-inner></div></div>","650","go","500","go","89",""
"771","89","stop-signal","178","509400","0.0-167.0","sub-07_ses-02_2","","2250","0","stim","","<div class = coverbox></div><div class = shapebox><img class = stim src = /static/experiments/motor_selective_stop_signal/images/circle.png></img></div>","89,71","850","","89","","test","151","<div class = coverbox></div><div class = stopbox><div class = centered-shape id = stop-signal></div><div class = centered-shape id = stop-signal-inner></div></div>","650","go","500","go","89",""
"1056","71","stop-signal","179","511670","0.0-168.0","sub-07_ses-02_2","","2250","0","stim","","<div class = coverbox></div><div class = shapebox><img class = stim src = /static/experiments/motor_selective_stop_signal/images/rhombus.png></img></div>","89,71","850","","71","","test","152","<div class = coverbox></div><div class = stopbox><div class = centered-shape id = stop-signal></div><div class = centered-shape id = stop-signal-inner></div></div>","650","go","500","go","89",""
"902","89","stop-signal","180","514030","0.0-169.0","sub-07_ses-02_2","","2350","0","stim","","<div class = coverbox></div><div class = shapebox><img class = stim src = /static/experiments/motor_selective_stop_signal/images/Lshape.png></img></div>","89,71","850","","89","","test","153","<div class = coverbox></div><div class = stopbox><div class = centered-shape id = stop-signal></div><div class = centered-shape id = stop-signal-inner></div></div>","650","go","500","go","89",""
"763","89","stop-signal","181","516300","0.0-170.0","sub-07_ses-02_2","","2250","0","stim","","<div class = coverbox></div><div class = shapebox><img class = stim src = /static/experiments/motor_selective_stop_signal/images/circle.png></img></div>","89,71","850","","89","","test","154","<div class = coverbox></div><div class = stopbox><div class = centered-shape id = stop-signal></div><div class = centered-shape id = stop-signal-inner></div></div>","650","go","500","go","89",""
"629","71","stop-signal","182","518961","0.0-171.0","sub-07_ses-02_2","","2650","0","stim","","<div class = coverbox></div><div class = shapebox><img class = stim src = /static/experiments/motor_selective_stop_signal/images/triangle.png></img></div>","89,71","850","","71","","test","155","<div class = coverbox></div><div class = stopbox><div class = centered-shape id = stop-signal></div><div class = centered-shape id = stop-signal-inner></div></div>","650","stop","500","ignore","89",""
"489","71","stop-signal","183","521320","0.0-172.0","sub-07_ses-02_2","","2350","0","stim","","<div class = coverbox></div><div class = shapebox><img class = stim src = /static/experiments/motor_selective_stop_signal/images/triangle.png></img></div>","89,71","850","","71","","test","156","<div class = coverbox></div><div class = stopbox><div class = centered-shape id = stop-signal></div><div class = centered-shape id = stop-signal-inner></div></div>","650","stop","500","ignore","89",""
"721","89","stop-signal","184","523790","0.0-173.0","sub-07_ses-02_2","","2450","0","stim","","<div class = coverbox></div><div class = shapebox><img class = stim src = /static/experiments/motor_selective_stop_signal/images/circle.png></img></div>","89,71","850","","89","","test","157","<div class = coverbox></div><div class = stopbox><div class = centered-shape id = stop-signal></div><div class = centered-shape id = stop-signal-inner></div></div>","650","go","500","go","89",""
"752","71","stop-signal","185","526150","0.0-174.0","sub-07_ses-02_2","","2350","0","stim","","<div class = coverbox></div><div class = shapebox><img class = stim src = /static/experiments/motor_selective_stop_signal/images/triangle.png></img></div>","89,71","850","","71","","test","158","<div class = coverbox></div><div class = stopbox><div class = centered-shape id = stop-signal></div><div class = centered-shape id = stop-signal-inner></div></div>","650","stop","500","ignore","89",""
"699","89","stop-signal","186","528411","0.0-175.0","sub-07_ses-02_2","","2250","0","stim","","<div class = coverbox></div><div class = shapebox><img class = stim src = /static/experiments/motor_selective_stop_signal/images/Lshape.png></img></div>","89,71","850","","89","","test","159","<div class = coverbox></div><div class = stopbox><div class = centered-shape id = stop-signal></div><div class = centered-shape id = stop-signal-inner></div></div>","650","stop","500","stop","89",""
"849","89","stop-signal","187","530670","0.0-176.0","sub-07_ses-02_2","","2250","0","stim","","<div class = coverbox></div><div class = shapebox><img class = stim src = /static/experiments/motor_selective_stop_signal/images/Lshape.png></img></div>","89,71","850","","89","","test","160","<div class = coverbox></div><div class = stopbox><div class = centered-shape id = stop-signal></div><div class = centered-shape id = stop-signal-inner></div></div>","600","go","500","go","89",""
"-1","-1","stop-signal","188","532931","0.0-177.0","sub-07_ses-02_2","","2250","0","stim","","<div class = coverbox></div><div class = shapebox><img class = stim src = /static/experiments/motor_selective_stop_signal/images/Lshape.png></img></div>","89,71","850","","89","","test","161","<div class = coverbox></div><div class = stopbox><div class = centered-shape id = stop-signal></div><div class = centered-shape id = stop-signal-inner></div></div>","600","stop","500","stop","89",""
"614","71","stop-signal","189","535189","0.0-178.0","sub-07_ses-02_2","","2250","0","stim","","<div class = coverbox></div><div class = shapebox><img class = stim src = /static/experiments/motor_selective_stop_signal/images/rhombus.png></img></div>","89,71","850","","71","","test","162","<div class = coverbox></div><div class = stopbox><div class = centered-shape id = stop-signal></div><div class = centered-shape id = stop-signal-inner></div></div>","650","go","500","go","89",""
"877","89","stop-signal","190","537560","0.0-179.0","sub-07_ses-02_2","","2350","0","stim","","<div class = coverbox></div><div class = shapebox><img class = stim src = /static/experiments/motor_selective_stop_signal/images/Lshape.png></img></div>","89,71","850","","89","","test","163","<div class = coverbox></div><div class = stopbox><div class = centered-shape id = stop-signal></div><div class = centered-shape id = stop-signal-inner></div></div>","650","stop","500","stop","89",""
"658","71","stop-signal","191","540930","0.0-180.0","sub-07_ses-02_2","","3350","0","stim","","<div class = coverbox></div><div class = shapebox><img class = stim src = /static/experiments/motor_selective_stop_signal/images/triangle.png></img></div>","89,71","850","","71","","test","164","<div class = coverbox></div><div class = stopbox><div class = centered-shape id = stop-signal></div><div class = centered-shape id = stop-signal-inner></div></div>","600","go","500","go","89",""
"942","71","stop-signal","192","543490","0.0-181.0","sub-07_ses-02_2","","2550","0","stim","","<div class = coverbox></div><div class = shapebox><img class = stim src = /static/experiments/motor_selective_stop_signal/images/Lshape.png></img></div>","89,71","850","","89","","test","165","<div class = coverbox></div><div class = stopbox><div class = centered-shape id = stop-signal></div><div class = centered-shape id = stop-signal-inner></div></div>","600","go","500","go","89",""
"1143","71","stop-signal","193","546251","0.0-182.0","sub-07_ses-02_2","","2750","0","stim","","<div class = coverbox></div><div class = shapebox><img class = stim src = /static/experiments/motor_selective_stop_signal/images/Lshape.png></img></div>","89,71","850","","89","","test","166","<div class = coverbox></div><div class = stopbox><div class = centered-shape id = stop-signal></div><div class = centered-shape id = stop-signal-inner></div></div>","600","stop","500","stop","89",""
"806","89","stop-signal","194","549010","0.0-183.0","sub-07_ses-02_2","","2750","0","stim","","<div class = coverbox></div><div class = shapebox><img class = stim src = /static/experiments/motor_selective_stop_signal/images/Lshape.png></img></div>","89,71","850","","89","","test","167","<div class = coverbox></div><div class = stopbox><div class = centered-shape id = stop-signal></div><div class = centered-shape id = stop-signal-inner></div></div>","550","go","500","go","89",""
"719","71","stop-signal","195","551671","0.0-184.0","sub-07_ses-02_2","","2650","0","stim","","<div class = coverbox></div><div class = shapebox><img class = stim src = /static/experiments/motor_selective_stop_signal/images/rhombus.png></img></div>","89,71","850","","71","","test","168","<div class = coverbox></div><div class = stopbox><div class = centered-shape id = stop-signal></div><div class = centered-shape id = stop-signal-inner></div></div>","550","go","500","go","89",""
"-1","-1","stop-signal","196","554131","0.0-185.0","sub-07_ses-02_2","","2450","0","stim","","<div class = coverbox></div><div class = shapebox><img class = stim src = /static/experiments/motor_selective_stop_signal/images/Lshape.png></img></div>","89,71","850","","89","","test","169","<div class = coverbox></div><div class = stopbox><div class = centered-shape id = stop-signal></div><div class = centered-shape id = stop-signal-inner></div></div>","550","stop","500","stop","89",""
"776","89","stop-signal","197","556400","0.0-186.0","sub-07_ses-02_2","","2250","0","stim","","<div class = coverbox></div><div class = shapebox><img class = stim src = /static/experiments/motor_selective_stop_signal/images/circle.png></img></div>","89,71","850","","89","","test","170","<div class = coverbox></div><div class = stopbox><div class = centered-shape id = stop-signal></div><div class = centered-shape id = stop-signal-inner></div></div>","600","go","500","go","89",""
"714","71","stop-signal","198","558754","0.0-187.0","sub-07_ses-02_2","","2350","0","stim","","<div class = coverbox></div><div class = shapebox><img class = stim src = /static/experiments/motor_selective_stop_signal/images/rhombus.png></img></div>","89,71","850","","71","","test","171","<div class = coverbox></div><div class = stopbox><div class = centered-shape id = stop-signal></div><div class = centered-shape id = stop-signal-inner></div></div>","600","go","500","go","89",""
"640","71","stop-signal","199","561210","0.0-188.0","sub-07_ses-02_2","","2450","0","stim","","<div class = coverbox></div><div class = shapebox><img class = stim src = /static/experiments/motor_selective_stop_signal/images/rhombus.png></img></div>","89,71","850","","71","","test","172","<div class = coverbox></div><div class = stopbox><div class = centered-shape id = stop-signal></div><div class = centered-shape id = stop-signal-inner></div></div>","600","go","500","go","89",""
"729","71","stop-signal","200","564270","0.0-189.0","sub-07_ses-02_2","","3050","0","stim","","<div class = coverbox></div><div class = shapebox><img class = stim src = /static/experiments/motor_selective_stop_signal/images/rhombus.png></img></div>","89,71","850","","71","","test","173","<div class = coverbox></div><div class = stopbox><div class = centered-shape id = stop-signal></div><div class = centered-shape id = stop-signal-inner></div></div>","600","go","500","go","89",""
"892","89","stop-signal","201","566631","0.0-190.0","sub-07_ses-02_2","","2350","0","stim","","<div class = coverbox></div><div class = shapebox><img class = stim src = /static/experiments/motor_selective_stop_signal/images/Lshape.png></img></div>","89,71","850","","89","","test","174","<div class = coverbox></div><div class = stopbox><div class = centered-shape id = stop-signal></div><div class = centered-shape id = stop-signal-inner></div></div>","600","go","500","go","89",""
"552","71","stop-signal","202","568900","0.0-191.0","sub-07_ses-02_2","","2250","0","stim","","<div class = coverbox></div><div class = shapebox><img class = stim src = /static/experiments/motor_selective_stop_signal/images/triangle.png></img></div>","89,71","850","","71","","test","175","<div class = coverbox></div><div class = stopbox><div class = centered-shape id = stop-signal></div><div class = centered-shape id = stop-signal-inner></div></div>","600","stop","500","ignore","89",""
"739","89","stop-signal","203","571259","0.0-192.0","sub-07_ses-02_2","","2350","0","stim","","<div class = coverbox></div><div class = shapebox><img class = stim src = /static/experiments/motor_selective_stop_signal/images/circle.png></img></div>","89,71","850","","89","","test","176","<div class = coverbox></div><div class = stopbox><div class = centered-shape id = stop-signal></div><div class = centered-shape id = stop-signal-inner></div></div>","600","go","500","go","89",""
"583","71","stop-signal","204","573630","0.0-193.0","sub-07_ses-02_2","","2350","0","stim","","<div class = coverbox></div><div class = shapebox><img class = stim src = /static/experiments/motor_selective_stop_signal/images/triangle.png></img></div>","89,71","850","","71","","test","177","<div class = coverbox></div><div class = stopbox><div class = centered-shape id = stop-signal></div><div class = centered-shape id = stop-signal-inner></div></div>","600","go","500","go","89",""
"601","71","stop-signal","205","575996","0.0-194.0","sub-07_ses-02_2","","2350","0","stim","","<div class = coverbox></div><div class = shapebox><img class = stim src = /static/experiments/motor_selective_stop_signal/images/rhombus.png></img></div>","89,71","850","","71","","test","178","<div class = coverbox></div><div class = stopbox><div class = centered-shape id = stop-signal></div><div class = centered-shape id = stop-signal-inner></div></div>","600","go","500","go","89",""
"564","71","stop-signal","206","578360","0.0-195.0","sub-07_ses-02_2","","2350","0","stim","","<div class = coverbox></div><div class = shapebox><img class = stim src = /static/experiments/motor_selective_stop_signal/images/rhombus.png></img></div>","89,71","850","","71","","test","179","<div class = coverbox></div><div class = stopbox><div class = centered-shape id = stop-signal></div><div class = centered-shape id = stop-signal-inner></div></div>","600","stop","500","ignore","89",""
"760","89","stop-signal","207","580730","0.0-196.0","sub-07_ses-02_2","","2350","0","stim","","<div class = coverbox></div><div class = shapebox><img class = stim src = /static/experiments/motor_selective_stop_signal/images/Lshape.png></img></div>","89,71","850","","89","","test","180","<div class = coverbox></div><div class = stopbox><div class = centered-shape id = stop-signal></div><div class = centered-shape id = stop-signal-inner></div></div>","600","go","500","go","89",""
"614","71","stop-signal","208","582989","0.0-197.0","sub-07_ses-02_2","","2250","0","stim","","<div class = coverbox></div><div class = shapebox><img class = stim src = /static/experiments/motor_selective_stop_signal/images/triangle.png></img></div>","89,71","850","","71","","test","181","<div class = coverbox></div><div class = stopbox><div class = centered-shape id = stop-signal></div><div class = centered-shape id = stop-signal-inner></div></div>","600","go","500","go","89",""
"787","89","stop-signal","209","585361","0.0-198.0","sub-07_ses-02_2","","2350","0","stim","","<div class = coverbox></div><div class = shapebox><img class = stim src = /static/experiments/motor_selective_stop_signal/images/circle.png></img></div>","89,71","850","","89","","test","182","<div class = coverbox></div><div class = stopbox><div class = centered-shape id = stop-signal></div><div class = centered-shape id = stop-signal-inner></div></div>","600","stop","500","stop","89",""
"1091","89","stop-signal","210","587820","0.0-199.0","sub-07_ses-02_2","","2450","0","stim","","<div class = coverbox></div><div class = shapebox><img class = stim src = /static/experiments/motor_selective_stop_signal/images/circle.png></img></div>","89,71","850","","89","","test","183","<div class = coverbox></div><div class = stopbox><div class = centered-shape id = stop-signal></div><div class = centered-shape id = stop-signal-inner></div></div>","550","go","500","go","89",""
"811","89","stop-signal","211","590190","0.0-200.0","sub-07_ses-02_2","","2350","0","stim","","<div class = coverbox></div><div class = shapebox><img class = stim src = /static/experiments/motor_selective_stop_signal/images/circle.png></img></div>","89,71","850","","89","","test","184","<div class = coverbox></div><div class = stopbox><div class = centered-shape id = stop-signal></div><div class = centered-shape id = stop-signal-inner></div></div>","550","go","500","go","89",""
"462","71","stop-signal","212","593050","0.0-201.0","sub-07_ses-02_2","","2850","0","stim","","<div class = coverbox></div><div class = shapebox><img class = stim src = /static/experiments/motor_selective_stop_signal/images/triangle.png></img></div>","89,71","850","","71","","test","185","<div class = coverbox></div><div class = stopbox><div class = centered-shape id = stop-signal></div><div class = centered-shape id = stop-signal-inner></div></div>","550","go","500","go","89",""
"685","89","stop-signal","213","595610","0.0-202.0","sub-07_ses-02_2","","2550","0","stim","","<div class = coverbox></div><div class = shapebox><img class = stim src = /static/experiments/motor_selective_stop_signal/images/Lshape.png></img></div>","89,71","850","","89","","test","186","<div class = coverbox></div><div class = stopbox><div class = centered-shape id = stop-signal></div><div class = centered-shape id = stop-signal-inner></div></div>","550","go","500","go","89",""
"791","89","stop-signal","214","598370","0.0-203.0","sub-07_ses-02_2","","2750","0","stim","","<div class = coverbox></div><div class = shapebox><img class = stim src = /static/experiments/motor_selective_stop_signal/images/Lshape.png></img></div>","89,71","850","","89","","test","187","<div class = coverbox></div><div class = stopbox><div class = centered-shape id = stop-signal></div><div class = centered-shape id = stop-signal-inner></div></div>","550","go","500","go","89",""
