"rt","key_press","trial_type","trial_index","time_elapsed","internal_node_id","subject","text","block_duration","timing_post_trial","trial_id","stimulus","possible_responses","stim_duration","current_position","num_moves_made","min_moves","start_state","goal_state","condition","problem_id","exp_stage","problem_time","correct","exp_id"
"1045","13","text","0","1047","0.0-0.0","sub-11_ses-03_2","","","","","","","","","","","","","","","","","",""
"1075","89","poldrack-text","1","3135","0.0-1.0","sub-11_ses-03_2","<div class = centerbox><div style = 'font-size: 50px' class = center-text>Veuillez appuyer avec votre index</p></div>","1075","500","fmri_response_test","","","","","","","","","","","","","",""
"417","71","poldrack-text","2","4075","0.0-2.0","sub-11_ses-03_2","<div class = centerbox><div style = 'font-size: 50px' class = center-text>Veuillez appuyer avec votre majeur</p></div>","417","500","fmri_response_test","","","","","","","","","","","","","",""
"337","82","poldrack-text","3","4931","0.0-3.0","sub-11_ses-03_2","<div class = centerbox><div style = 'font-size: 50px' class = center-text>Veuillez appuyer avec votre annulaire</p></div>","337","500","fmri_response_test","","","","","","","","","","","","","",""
"1096","32","poldrack-single-stim","4","6555","0.0-4.0","sub-11_ses-03_2","","1096","0","instructions","<div class = centerbox><div class = center-text>Resolvez les taches de la tour !<br><br>Planifiez d'avance et travaillez rapidement!<br><br>Nous allons commencer par un peu de pratique.</div></div>","32","1096","","","","","","","","","","",""
"935","32","poldrack-text","5","7492","0.0-5.0","sub-11_ses-03_2","<div class = centerbox><div  class = center-text>Scanner Setup</div></div>","935","0","fmri_scanner_wait","","","","","","","","","","","","","",""
"53273","84","poldrack-text","6","60769","0.0-6.0","sub-11_ses-03_2","<div class = centerbox><div style='color:red'; class = center-text>+</div></div>","53273","0","fmri_trigger_wait","","","","","","","","","","","","","",""
"-1","-1","poldrack-single-stim","7","61776","0.0-7.0","sub-11_ses-03_2","","1000","0","fmri_buffer","","none","1000","","","","","","","","","","",""
"-1","-1","poldrack-single-stim","8","63294","0.0-8.0","sub-11_ses-03_2","","1500","500","practice_start_block","<div class = centerbox><div class = center-text>Sur le point de commencer l'entrainement</p></div>","none","1500","","","","","","","","","","",""
"2411","71","poldrack-single-stim","9","66230","0.0-9.0-0.0-0.0","sub-11_ses-03_2","","2411","0","to_hand","<div class = watt_canvas><div class=""watt_vertical_line""></div></div><div class = watt_your_board><div class = watt_base></div><div class = watt_board_label><strong>Votre Planche</strong></div><div id = watt_peg_1><div class = watt_peg></div></div><div class = special id = watt_peg_1 onclick = ""pegClick(this.id)""><div class = ""watt_ball watt_Blue""><div class = watt_ball_label>B</div></div></div><div id = watt_peg_2><div class = watt_peg></div></div><div class = special id = watt_peg_2 onclick = ""pegClick(this.id)""><div class = ""watt_ball watt_Red""><div class = watt_ball_label>R</div></div><div class = ""watt_ball watt_Green""><div class = watt_ball_label>G</div></div></div><div id = watt_peg_3><div class = watt_peg></div></div><div id = watt_peg_3 onclick = ""pegClick(this.id)""></div></div><div class = watt_peg_board><div class = watt_base></div><div class = watt_board_label><strong>Planche Cible</strong></div><div id = watt_peg_1><div class = watt_peg></div></div><div id = watt_peg_1 ><div class = ""watt_ball watt_Blue""><div class = watt_ball_label>B</div></div><div class = ""watt_ball watt_Red""><div class = watt_ball_label>R</div></div><div class = ""watt_ball watt_Green""><div class = watt_ball_label>G</div></div></div><div id = watt_peg_2><div class = watt_peg></div></div><div id = watt_peg_2 ></div><div id = watt_peg_3><div class = watt_peg></div></div><div id = watt_peg_3 ></div></div><div class = watt_hand_box></div><div class = watt_hand_label><strong>Boule en main</strong></div>","89,71","2411","1,0,0,2,0,0,0,0,0","1","3","1,0,0,2,3,0,0,0,0","1,2,3,0,0,0,0,0,0","UA_with_intermediate","0","practice","","",""
"488","89","poldrack-single-stim","10","66721","0.0-9.0-0.0-1.0","sub-11_ses-03_2","","488","0","to_board","<div class = watt_canvas><div class=""watt_vertical_line""></div></div><div class = watt_your_board><div class = watt_base></div><div class = watt_board_label><strong>Votre Planche</strong></div><div id = watt_peg_1><div class = watt_peg></div></div><div class = special id = watt_peg_1 onclick = ""pegClick(this.id)""><div class = ""watt_ball watt_Blue""><div class = watt_ball_label>B</div></div></div><div id = watt_peg_2><div class = watt_peg></div></div><div class = special id = watt_peg_2 onclick = ""pegClick(this.id)""><div class = ""watt_ball watt_Red""><div class = watt_ball_label>R</div></div></div><div id = watt_peg_3><div class = watt_peg></div></div><div class = special id = watt_peg_3 onclick = ""pegClick(this.id)""></div></div><div class = watt_peg_board><div class = watt_base></div><div class = watt_board_label><strong>Planche Cible</strong></div><div id = watt_peg_1><div class = watt_peg></div></div><div id = watt_peg_1 ><div class = ""watt_ball watt_Blue""><div class = watt_ball_label>B</div></div><div class = ""watt_ball watt_Red""><div class = watt_ball_label>R</div></div><div class = ""watt_ball watt_Green""><div class = watt_ball_label>G</div></div></div><div id = watt_peg_2><div class = watt_peg></div></div><div id = watt_peg_2 ></div><div id = watt_peg_3><div class = watt_peg></div></div><div id = watt_peg_3 ></div></div><div class = watt_hand_box><div class = ""watt_hand_ball watt_Green""><div class = watt_ball_label>G</div></div></div><div class = watt_hand_label><strong>Boule en main</strong></div>","89,71,82","488","1,3,0,2,0,0,0,0,0","1","3","1,0,0,2,3,0,0,0,0","1,2,3,0,0,0,0,0,0","UA_with_intermediate","0","practice","","",""
"1402","89","poldrack-single-stim","11","68128","0.0-9.0-0.1-0.1","sub-11_ses-03_2","","1402","0","to_hand","<div class = watt_canvas><div class=""watt_vertical_line""></div></div><div class = watt_your_board><div class = watt_base></div><div class = watt_board_label><strong>Votre Planche</strong></div><div id = watt_peg_1><div class = watt_peg></div></div><div class = special id = watt_peg_1 onclick = ""pegClick(this.id)""><div class = ""watt_ball watt_Blue""><div class = watt_ball_label>B</div></div><div class = ""watt_ball watt_Green""><div class = watt_ball_label>G</div></div></div><div id = watt_peg_2><div class = watt_peg></div></div><div class = special id = watt_peg_2 onclick = ""pegClick(this.id)""><div class = ""watt_ball watt_Red""><div class = watt_ball_label>R</div></div></div><div id = watt_peg_3><div class = watt_peg></div></div><div id = watt_peg_3 onclick = ""pegClick(this.id)""></div></div><div class = watt_peg_board><div class = watt_base></div><div class = watt_board_label><strong>Planche Cible</strong></div><div id = watt_peg_1><div class = watt_peg></div></div><div id = watt_peg_1 ><div class = ""watt_ball watt_Blue""><div class = watt_ball_label>B</div></div><div class = ""watt_ball watt_Red""><div class = watt_ball_label>R</div></div><div class = ""watt_ball watt_Green""><div class = watt_ball_label>G</div></div></div><div id = watt_peg_2><div class = watt_peg></div></div><div id = watt_peg_2 ></div><div id = watt_peg_3><div class = watt_peg></div></div><div id = watt_peg_3 ></div></div><div class = watt_hand_box></div><div class = watt_hand_label><strong>Boule en main</strong></div>","89,71","1402","1,0,0,2,0,0,0,0,0","2","3","1,0,0,2,3,0,0,0,0","1,2,3,0,0,0,0,0,0","UA_with_intermediate","0","practice","","",""
"869","82","poldrack-single-stim","12","69000","0.0-9.0-0.1-1.1","sub-11_ses-03_2","","869","0","to_board","<div class = watt_canvas><div class=""watt_vertical_line""></div></div><div class = watt_your_board><div class = watt_base></div><div class = watt_board_label><strong>Votre Planche</strong></div><div id = watt_peg_1><div class = watt_peg></div></div><div class = special id = watt_peg_1 onclick = ""pegClick(this.id)""><div class = ""watt_ball watt_Blue""><div class = watt_ball_label>B</div></div></div><div id = watt_peg_2><div class = watt_peg></div></div><div class = special id = watt_peg_2 onclick = ""pegClick(this.id)""><div class = ""watt_ball watt_Red""><div class = watt_ball_label>R</div></div></div><div id = watt_peg_3><div class = watt_peg></div></div><div class = special id = watt_peg_3 onclick = ""pegClick(this.id)""></div></div><div class = watt_peg_board><div class = watt_base></div><div class = watt_board_label><strong>Planche Cible</strong></div><div id = watt_peg_1><div class = watt_peg></div></div><div id = watt_peg_1 ><div class = ""watt_ball watt_Blue""><div class = watt_ball_label>B</div></div><div class = ""watt_ball watt_Red""><div class = watt_ball_label>R</div></div><div class = ""watt_ball watt_Green""><div class = watt_ball_label>G</div></div></div><div id = watt_peg_2><div class = watt_peg></div></div><div id = watt_peg_2 ></div><div id = watt_peg_3><div class = watt_peg></div></div><div id = watt_peg_3 ></div></div><div class = watt_hand_box><div class = ""watt_hand_ball watt_Green""><div class = watt_ball_label>G</div></div></div><div class = watt_hand_label><strong>Boule en main</strong></div>","89,71,82","869","1,0,0,2,0,0,3,0,0","2","3","1,0,0,2,3,0,0,0,0","1,2,3,0,0,0,0,0,0","UA_with_intermediate","0","practice","","",""
"322","71","poldrack-single-stim","13","69326","0.0-9.0-0.2-0.2","sub-11_ses-03_2","","322","0","to_hand","<div class = watt_canvas><div class=""watt_vertical_line""></div></div><div class = watt_your_board><div class = watt_base></div><div class = watt_board_label><strong>Votre Planche</strong></div><div id = watt_peg_1><div class = watt_peg></div></div><div class = special id = watt_peg_1 onclick = ""pegClick(this.id)""><div class = ""watt_ball watt_Blue""><div class = watt_ball_label>B</div></div></div><div id = watt_peg_2><div class = watt_peg></div></div><div class = special id = watt_peg_2 onclick = ""pegClick(this.id)""><div class = ""watt_ball watt_Red""><div class = watt_ball_label>R</div></div></div><div id = watt_peg_3><div class = watt_peg></div></div><div class = special id = watt_peg_3 onclick = ""pegClick(this.id)""><div class = ""watt_ball watt_Green""><div class = watt_ball_label>G</div></div></div></div><div class = watt_peg_board><div class = watt_base></div><div class = watt_board_label><strong>Planche Cible</strong></div><div id = watt_peg_1><div class = watt_peg></div></div><div id = watt_peg_1 ><div class = ""watt_ball watt_Blue""><div class = watt_ball_label>B</div></div><div class = ""watt_ball watt_Red""><div class = watt_ball_label>R</div></div><div class = ""watt_ball watt_Green""><div class = watt_ball_label>G</div></div></div><div id = watt_peg_2><div class = watt_peg></div></div><div id = watt_peg_2 ></div><div id = watt_peg_3><div class = watt_peg></div></div><div id = watt_peg_3 ></div></div><div class = watt_hand_box></div><div class = watt_hand_label><strong>Boule en main</strong></div>","89,71,82","322","1,0,0,0,0,0,3,0,0","3","3","1,0,0,2,3,0,0,0,0","1,2,3,0,0,0,0,0,0","UA_with_intermediate","0","practice","","",""
"370","89","poldrack-single-stim","14","69705","0.0-9.0-0.2-1.2","sub-11_ses-03_2","","370","0","to_board","<div class = watt_canvas><div class=""watt_vertical_line""></div></div><div class = watt_your_board><div class = watt_base></div><div class = watt_board_label><strong>Votre Planche</strong></div><div id = watt_peg_1><div class = watt_peg></div></div><div class = special id = watt_peg_1 onclick = ""pegClick(this.id)""><div class = ""watt_ball watt_Blue""><div class = watt_ball_label>B</div></div></div><div id = watt_peg_2><div class = watt_peg></div></div><div class = special id = watt_peg_2 onclick = ""pegClick(this.id)""></div><div id = watt_peg_3><div class = watt_peg></div></div><div class = special id = watt_peg_3 onclick = ""pegClick(this.id)""><div class = ""watt_ball watt_Green""><div class = watt_ball_label>G</div></div></div></div><div class = watt_peg_board><div class = watt_base></div><div class = watt_board_label><strong>Planche Cible</strong></div><div id = watt_peg_1><div class = watt_peg></div></div><div id = watt_peg_1 ><div class = ""watt_ball watt_Blue""><div class = watt_ball_label>B</div></div><div class = ""watt_ball watt_Red""><div class = watt_ball_label>R</div></div><div class = ""watt_ball watt_Green""><div class = watt_ball_label>G</div></div></div><div id = watt_peg_2><div class = watt_peg></div></div><div id = watt_peg_2 ></div><div id = watt_peg_3><div class = watt_peg></div></div><div id = watt_peg_3 ></div></div><div class = watt_hand_box><div class = ""watt_hand_ball watt_Red""><div class = watt_ball_label>R</div></div></div><div class = watt_hand_label><strong>Boule en main</strong></div>","89,71,82","370","1,2,0,0,0,0,3,0,0","3","3","1,0,0,2,3,0,0,0,0","1,2,3,0,0,0,0,0,0","UA_with_intermediate","0","practice","","",""
"495","82","poldrack-single-stim","15","70208","0.0-9.0-0.3-0.3","sub-11_ses-03_2","","495","0","to_hand","<div class = watt_canvas><div class=""watt_vertical_line""></div></div><div class = watt_your_board><div class = watt_base></div><div class = watt_board_label><strong>Votre Planche</strong></div><div id = watt_peg_1><div class = watt_peg></div></div><div class = special id = watt_peg_1 onclick = ""pegClick(this.id)""><div class = ""watt_ball watt_Blue""><div class = watt_ball_label>B</div></div><div class = ""watt_ball watt_Red""><div class = watt_ball_label>R</div></div></div><div id = watt_peg_2><div class = watt_peg></div></div><div id = watt_peg_2 onclick = ""pegClick(this.id)""></div><div id = watt_peg_3><div class = watt_peg></div></div><div class = special id = watt_peg_3 onclick = ""pegClick(this.id)""><div class = ""watt_ball watt_Green""><div class = watt_ball_label>G</div></div></div></div><div class = watt_peg_board><div class = watt_base></div><div class = watt_board_label><strong>Planche Cible</strong></div><div id = watt_peg_1><div class = watt_peg></div></div><div id = watt_peg_1 ><div class = ""watt_ball watt_Blue""><div class = watt_ball_label>B</div></div><div class = ""watt_ball watt_Red""><div class = watt_ball_label>R</div></div><div class = ""watt_ball watt_Green""><div class = watt_ball_label>G</div></div></div><div id = watt_peg_2><div class = watt_peg></div></div><div id = watt_peg_2 ></div><div id = watt_peg_3><div class = watt_peg></div></div><div id = watt_peg_3 ></div></div><div class = watt_hand_box></div><div class = watt_hand_label><strong>Boule en main</strong></div>","89,82","495","1,2,0,0,0,0,0,0,0","4","3","1,0,0,2,3,0,0,0,0","1,2,3,0,0,0,0,0,0","UA_with_intermediate","0","practice","","",""
"522","89","poldrack-single-stim","16","70738","0.0-9.0-0.3-1.3","sub-11_ses-03_2","","522","0","to_board","<div class = watt_canvas><div class=""watt_vertical_line""></div></div><div class = watt_your_board><div class = watt_base></div><div class = watt_board_label><strong>Votre Planche</strong></div><div id = watt_peg_1><div class = watt_peg></div></div><div class = special id = watt_peg_1 onclick = ""pegClick(this.id)""><div class = ""watt_ball watt_Blue""><div class = watt_ball_label>B</div></div><div class = ""watt_ball watt_Red""><div class = watt_ball_label>R</div></div></div><div id = watt_peg_2><div class = watt_peg></div></div><div class = special id = watt_peg_2 onclick = ""pegClick(this.id)""></div><div id = watt_peg_3><div class = watt_peg></div></div><div class = special id = watt_peg_3 onclick = ""pegClick(this.id)""></div></div><div class = watt_peg_board><div class = watt_base></div><div class = watt_board_label><strong>Planche Cible</strong></div><div id = watt_peg_1><div class = watt_peg></div></div><div id = watt_peg_1 ><div class = ""watt_ball watt_Blue""><div class = watt_ball_label>B</div></div><div class = ""watt_ball watt_Red""><div class = watt_ball_label>R</div></div><div class = ""watt_ball watt_Green""><div class = watt_ball_label>G</div></div></div><div id = watt_peg_2><div class = watt_peg></div></div><div id = watt_peg_2 ></div><div id = watt_peg_3><div class = watt_peg></div></div><div id = watt_peg_3 ></div></div><div class = watt_hand_box><div class = ""watt_hand_ball watt_Green""><div class = watt_ball_label>G</div></div></div><div class = watt_hand_label><strong>Boule en main</strong></div>","89,71,82","522","1,2,3,0,0,0,0,0,0","4","3","1,0,0,2,3,0,0,0,0","1,2,3,0,0,0,0,0,0","UA_with_intermediate","0","practice","","",""
"-1","-1","poldrack-single-stim","17","73253","0.0-9.0-1.0","sub-11_ses-03_2","","2500","0","feedback","<div class = watt_canvas><div class=""watt_vertical_line""></div></div><div class = watt_your_board><div class = watt_base></div><div class = watt_board_label><strong>Votre Planche</strong></div><div id = watt_peg_1><div class = watt_peg></div></div><div id = watt_peg_1 ><div class = ""watt_ball watt_Blue""><div class = watt_ball_label>B</div></div><div class = ""watt_ball watt_Red""><div class = watt_ball_label>R</div></div><div class = ""watt_ball watt_Green""><div class = watt_ball_label>G</div></div></div><div id = watt_peg_2><div class = watt_peg></div></div><div id = watt_peg_2 ></div><div id = watt_peg_3><div class = watt_peg></div></div><div id = watt_peg_3 ></div></div><div class = watt_peg_board><div class = watt_base></div><div class = watt_board_label><strong>Planche Cible</strong></div><div id = watt_peg_1><div class = watt_peg></div></div><div id = watt_peg_1 ><div class = ""watt_ball watt_Blue""><div class = watt_ball_label>B</div></div><div class = ""watt_ball watt_Red""><div class = watt_ball_label>R</div></div><div class = ""watt_ball watt_Green""><div class = watt_ball_label>G</div></div></div><div id = watt_peg_2><div class = watt_peg></div></div><div id = watt_peg_2 ></div><div id = watt_peg_3><div class = watt_peg></div></div><div id = watt_peg_3 ></div></div><div class = watt_feedbackbox><p class = center-text>Complete</p></div>","none","1000","","4","3","","","","","practice","9959","true",""
"1832","89","poldrack-single-stim","18","75095","0.0-9.1-0.4-0.4","sub-11_ses-03_2","","1832","0","to_hand","<div class = watt_canvas><div class=""watt_vertical_line""></div></div><div class = watt_your_board><div class = watt_base></div><div class = watt_board_label><strong>Votre Planche</strong></div><div id = watt_peg_1><div class = watt_peg></div></div><div class = special id = watt_peg_1 onclick = ""pegClick(this.id)""><div class = ""watt_ball watt_Green""><div class = watt_ball_label>G</div></div><div class = ""watt_ball watt_Blue""><div class = watt_ball_label>B</div></div></div><div id = watt_peg_2><div class = watt_peg></div></div><div class = special id = watt_peg_2 onclick = ""pegClick(this.id)""><div class = ""watt_ball watt_Red""><div class = watt_ball_label>R</div></div></div><div id = watt_peg_3><div class = watt_peg></div></div><div id = watt_peg_3 onclick = ""pegClick(this.id)""></div></div><div class = watt_peg_board><div class = watt_base></div><div class = watt_board_label><strong>Planche Cible</strong></div><div id = watt_peg_1><div class = watt_peg></div></div><div id = watt_peg_1 ><div class = ""watt_ball watt_Green""><div class = watt_ball_label>G</div></div><div class = ""watt_ball watt_Red""><div class = watt_ball_label>R</div></div><div class = ""watt_ball watt_Blue""><div class = watt_ball_label>B</div></div></div><div id = watt_peg_2><div class = watt_peg></div></div><div id = watt_peg_2 ></div><div id = watt_peg_3><div class = watt_peg></div></div><div id = watt_peg_3 ></div></div><div class = watt_hand_box></div><div class = watt_hand_label><strong>Boule en main</strong></div>","89,71","1832","1,0,0,3,0,0,0,0,0","1","3","1,2,0,3,0,0,0,0,0","1,3,2,0,0,0,0,0,0","UA_with_intermediate","1","practice","","",""
"742","82","poldrack-single-stim","19","75841","0.0-9.1-0.4-1.4","sub-11_ses-03_2","","742","0","to_board","<div class = watt_canvas><div class=""watt_vertical_line""></div></div><div class = watt_your_board><div class = watt_base></div><div class = watt_board_label><strong>Votre Planche</strong></div><div id = watt_peg_1><div class = watt_peg></div></div><div class = special id = watt_peg_1 onclick = ""pegClick(this.id)""><div class = ""watt_ball watt_Green""><div class = watt_ball_label>G</div></div></div><div id = watt_peg_2><div class = watt_peg></div></div><div class = special id = watt_peg_2 onclick = ""pegClick(this.id)""><div class = ""watt_ball watt_Red""><div class = watt_ball_label>R</div></div></div><div id = watt_peg_3><div class = watt_peg></div></div><div class = special id = watt_peg_3 onclick = ""pegClick(this.id)""></div></div><div class = watt_peg_board><div class = watt_base></div><div class = watt_board_label><strong>Planche Cible</strong></div><div id = watt_peg_1><div class = watt_peg></div></div><div id = watt_peg_1 ><div class = ""watt_ball watt_Green""><div class = watt_ball_label>G</div></div><div class = ""watt_ball watt_Red""><div class = watt_ball_label>R</div></div><div class = ""watt_ball watt_Blue""><div class = watt_ball_label>B</div></div></div><div id = watt_peg_2><div class = watt_peg></div></div><div id = watt_peg_2 ></div><div id = watt_peg_3><div class = watt_peg></div></div><div id = watt_peg_3 ></div></div><div class = watt_hand_box><div class = ""watt_hand_ball watt_Blue""><div class = watt_ball_label>B</div></div></div><div class = watt_hand_label><strong>Boule en main</strong></div>","89,71,82","742","1,0,0,3,0,0,2,0,0","1","3","1,2,0,3,0,0,0,0,0","1,3,2,0,0,0,0,0,0","UA_with_intermediate","1","practice","","",""
"373","71","poldrack-single-stim","20","76223","0.0-9.1-0.5-0.5","sub-11_ses-03_2","","373","0","to_hand","<div class = watt_canvas><div class=""watt_vertical_line""></div></div><div class = watt_your_board><div class = watt_base></div><div class = watt_board_label><strong>Votre Planche</strong></div><div id = watt_peg_1><div class = watt_peg></div></div><div class = special id = watt_peg_1 onclick = ""pegClick(this.id)""><div class = ""watt_ball watt_Green""><div class = watt_ball_label>G</div></div></div><div id = watt_peg_2><div class = watt_peg></div></div><div class = special id = watt_peg_2 onclick = ""pegClick(this.id)""><div class = ""watt_ball watt_Red""><div class = watt_ball_label>R</div></div></div><div id = watt_peg_3><div class = watt_peg></div></div><div class = special id = watt_peg_3 onclick = ""pegClick(this.id)""><div class = ""watt_ball watt_Blue""><div class = watt_ball_label>B</div></div></div></div><div class = watt_peg_board><div class = watt_base></div><div class = watt_board_label><strong>Planche Cible</strong></div><div id = watt_peg_1><div class = watt_peg></div></div><div id = watt_peg_1 ><div class = ""watt_ball watt_Green""><div class = watt_ball_label>G</div></div><div class = ""watt_ball watt_Red""><div class = watt_ball_label>R</div></div><div class = ""watt_ball watt_Blue""><div class = watt_ball_label>B</div></div></div><div id = watt_peg_2><div class = watt_peg></div></div><div id = watt_peg_2 ></div><div id = watt_peg_3><div class = watt_peg></div></div><div id = watt_peg_3 ></div></div><div class = watt_hand_box></div><div class = watt_hand_label><strong>Boule en main</strong></div>","89,71,82","373","1,0,0,0,0,0,2,0,0","2","3","1,2,0,3,0,0,0,0,0","1,3,2,0,0,0,0,0,0","UA_with_intermediate","1","practice","","",""
"415","89","poldrack-single-stim","21","76642","0.0-9.1-0.5-1.5","sub-11_ses-03_2","","415","0","to_board","<div class = watt_canvas><div class=""watt_vertical_line""></div></div><div class = watt_your_board><div class = watt_base></div><div class = watt_board_label><strong>Votre Planche</strong></div><div id = watt_peg_1><div class = watt_peg></div></div><div class = special id = watt_peg_1 onclick = ""pegClick(this.id)""><div class = ""watt_ball watt_Green""><div class = watt_ball_label>G</div></div></div><div id = watt_peg_2><div class = watt_peg></div></div><div class = special id = watt_peg_2 onclick = ""pegClick(this.id)""></div><div id = watt_peg_3><div class = watt_peg></div></div><div class = special id = watt_peg_3 onclick = ""pegClick(this.id)""><div class = ""watt_ball watt_Blue""><div class = watt_ball_label>B</div></div></div></div><div class = watt_peg_board><div class = watt_base></div><div class = watt_board_label><strong>Planche Cible</strong></div><div id = watt_peg_1><div class = watt_peg></div></div><div id = watt_peg_1 ><div class = ""watt_ball watt_Green""><div class = watt_ball_label>G</div></div><div class = ""watt_ball watt_Red""><div class = watt_ball_label>R</div></div><div class = ""watt_ball watt_Blue""><div class = watt_ball_label>B</div></div></div><div id = watt_peg_2><div class = watt_peg></div></div><div id = watt_peg_2 ></div><div id = watt_peg_3><div class = watt_peg></div></div><div id = watt_peg_3 ></div></div><div class = watt_hand_box><div class = ""watt_hand_ball watt_Red""><div class = watt_ball_label>R</div></div></div><div class = watt_hand_label><strong>Boule en main</strong></div>","89,71,82","415","1,3,0,0,0,0,2,0,0","2","3","1,2,0,3,0,0,0,0,0","1,3,2,0,0,0,0,0,0","UA_with_intermediate","1","practice","","",""
"652","82","poldrack-single-stim","22","77300","0.0-9.1-0.6-0.6","sub-11_ses-03_2","","652","0","to_hand","<div class = watt_canvas><div class=""watt_vertical_line""></div></div><div class = watt_your_board><div class = watt_base></div><div class = watt_board_label><strong>Votre Planche</strong></div><div id = watt_peg_1><div class = watt_peg></div></div><div class = special id = watt_peg_1 onclick = ""pegClick(this.id)""><div class = ""watt_ball watt_Green""><div class = watt_ball_label>G</div></div><div class = ""watt_ball watt_Red""><div class = watt_ball_label>R</div></div></div><div id = watt_peg_2><div class = watt_peg></div></div><div id = watt_peg_2 onclick = ""pegClick(this.id)""></div><div id = watt_peg_3><div class = watt_peg></div></div><div class = special id = watt_peg_3 onclick = ""pegClick(this.id)""><div class = ""watt_ball watt_Blue""><div class = watt_ball_label>B</div></div></div></div><div class = watt_peg_board><div class = watt_base></div><div class = watt_board_label><strong>Planche Cible</strong></div><div id = watt_peg_1><div class = watt_peg></div></div><div id = watt_peg_1 ><div class = ""watt_ball watt_Green""><div class = watt_ball_label>G</div></div><div class = ""watt_ball watt_Red""><div class = watt_ball_label>R</div></div><div class = ""watt_ball watt_Blue""><div class = watt_ball_label>B</div></div></div><div id = watt_peg_2><div class = watt_peg></div></div><div id = watt_peg_2 ></div><div id = watt_peg_3><div class = watt_peg></div></div><div id = watt_peg_3 ></div></div><div class = watt_hand_box></div><div class = watt_hand_label><strong>Boule en main</strong></div>","89,82","652","1,3,0,0,0,0,0,0,0","3","3","1,2,0,3,0,0,0,0,0","1,3,2,0,0,0,0,0,0","UA_with_intermediate","1","practice","","",""
"392","89","poldrack-single-stim","23","77694","0.0-9.1-0.6-1.6","sub-11_ses-03_2","","392","0","to_board","<div class = watt_canvas><div class=""watt_vertical_line""></div></div><div class = watt_your_board><div class = watt_base></div><div class = watt_board_label><strong>Votre Planche</strong></div><div id = watt_peg_1><div class = watt_peg></div></div><div class = special id = watt_peg_1 onclick = ""pegClick(this.id)""><div class = ""watt_ball watt_Green""><div class = watt_ball_label>G</div></div><div class = ""watt_ball watt_Red""><div class = watt_ball_label>R</div></div></div><div id = watt_peg_2><div class = watt_peg></div></div><div class = special id = watt_peg_2 onclick = ""pegClick(this.id)""></div><div id = watt_peg_3><div class = watt_peg></div></div><div class = special id = watt_peg_3 onclick = ""pegClick(this.id)""></div></div><div class = watt_peg_board><div class = watt_base></div><div class = watt_board_label><strong>Planche Cible</strong></div><div id = watt_peg_1><div class = watt_peg></div></div><div id = watt_peg_1 ><div class = ""watt_ball watt_Green""><div class = watt_ball_label>G</div></div><div class = ""watt_ball watt_Red""><div class = watt_ball_label>R</div></div><div class = ""watt_ball watt_Blue""><div class = watt_ball_label>B</div></div></div><div id = watt_peg_2><div class = watt_peg></div></div><div id = watt_peg_2 ></div><div id = watt_peg_3><div class = watt_peg></div></div><div id = watt_peg_3 ></div></div><div class = watt_hand_box><div class = ""watt_hand_ball watt_Blue""><div class = watt_ball_label>B</div></div></div><div class = watt_hand_label><strong>Boule en main</strong></div>","89,71,82","392","1,3,2,0,0,0,0,0,0","3","3","1,2,0,3,0,0,0,0,0","1,3,2,0,0,0,0,0,0","UA_with_intermediate","1","practice","","",""
"-1","-1","poldrack-single-stim","24","79813","0.0-9.1-1.1","sub-11_ses-03_2","","2100","0","feedback","<div class = watt_canvas><div class=""watt_vertical_line""></div></div><div class = watt_your_board><div class = watt_base></div><div class = watt_board_label><strong>Votre Planche</strong></div><div id = watt_peg_1><div class = watt_peg></div></div><div id = watt_peg_1 ><div class = ""watt_ball watt_Green""><div class = watt_ball_label>G</div></div><div class = ""watt_ball watt_Red""><div class = watt_ball_label>R</div></div><div class = ""watt_ball watt_Blue""><div class = watt_ball_label>B</div></div></div><div id = watt_peg_2><div class = watt_peg></div></div><div id = watt_peg_2 ></div><div id = watt_peg_3><div class = watt_peg></div></div><div id = watt_peg_3 ></div></div><div class = watt_peg_board><div class = watt_base></div><div class = watt_board_label><strong>Planche Cible</strong></div><div id = watt_peg_1><div class = watt_peg></div></div><div id = watt_peg_1 ><div class = ""watt_ball watt_Green""><div class = watt_ball_label>G</div></div><div class = ""watt_ball watt_Red""><div class = watt_ball_label>R</div></div><div class = ""watt_ball watt_Blue""><div class = watt_ball_label>B</div></div></div><div id = watt_peg_2><div class = watt_peg></div></div><div id = watt_peg_2 ></div><div id = watt_peg_3><div class = watt_peg></div></div><div id = watt_peg_3 ></div></div><div class = watt_feedbackbox><p class = center-text>Complete</p></div>","none","1000","","3","3","","","","","practice","6560","true",""
"2707","71","poldrack-single-stim","25","82527","0.0-9.2-0.7-0.7","sub-11_ses-03_2","","2707","0","to_hand","<div class = watt_canvas><div class=""watt_vertical_line""></div></div><div class = watt_your_board><div class = watt_base></div><div class = watt_board_label><strong>Votre Planche</strong></div><div id = watt_peg_1><div class = watt_peg></div></div><div id = watt_peg_1 onclick = ""pegClick(this.id)""></div><div id = watt_peg_2><div class = watt_peg></div></div><div class = special id = watt_peg_2 onclick = ""pegClick(this.id)""><div class = ""watt_ball watt_Red""><div class = watt_ball_label>R</div></div><div class = ""watt_ball watt_Blue""><div class = watt_ball_label>B</div></div></div><div id = watt_peg_3><div class = watt_peg></div></div><div class = special id = watt_peg_3 onclick = ""pegClick(this.id)""><div class = ""watt_ball watt_Green""><div class = watt_ball_label>G</div></div></div></div><div class = watt_peg_board><div class = watt_base></div><div class = watt_board_label><strong>Planche Cible</strong></div><div id = watt_peg_1><div class = watt_peg></div></div><div id = watt_peg_1 ><div class = ""watt_ball watt_Green""><div class = watt_ball_label>G</div></div><div class = ""watt_ball watt_Blue""><div class = watt_ball_label>B</div></div><div class = ""watt_ball watt_Red""><div class = watt_ball_label>R</div></div></div><div id = watt_peg_2><div class = watt_peg></div></div><div id = watt_peg_2 ></div><div id = watt_peg_3><div class = watt_peg></div></div><div id = watt_peg_3 ></div></div><div class = watt_hand_box></div><div class = watt_hand_label><strong>Boule en main</strong></div>","71,82","2707","0,0,0,1,0,0,3,0,0","1","3","0,0,0,1,2,0,3,0,0","3,2,1,0,0,0,0,0,0","UA_without_intermediate","2","practice","","",""
"889","82","poldrack-single-stim","26","83423","0.0-9.2-0.7-1.7","sub-11_ses-03_2","","889","0","to_board","<div class = watt_canvas><div class=""watt_vertical_line""></div></div><div class = watt_your_board><div class = watt_base></div><div class = watt_board_label><strong>Votre Planche</strong></div><div id = watt_peg_1><div class = watt_peg></div></div><div class = special id = watt_peg_1 onclick = ""pegClick(this.id)""></div><div id = watt_peg_2><div class = watt_peg></div></div><div class = special id = watt_peg_2 onclick = ""pegClick(this.id)""><div class = ""watt_ball watt_Red""><div class = watt_ball_label>R</div></div></div><div id = watt_peg_3><div class = watt_peg></div></div><div class = special id = watt_peg_3 onclick = ""pegClick(this.id)""><div class = ""watt_ball watt_Green""><div class = watt_ball_label>G</div></div></div></div><div class = watt_peg_board><div class = watt_base></div><div class = watt_board_label><strong>Planche Cible</strong></div><div id = watt_peg_1><div class = watt_peg></div></div><div id = watt_peg_1 ><div class = ""watt_ball watt_Green""><div class = watt_ball_label>G</div></div><div class = ""watt_ball watt_Blue""><div class = watt_ball_label>B</div></div><div class = ""watt_ball watt_Red""><div class = watt_ball_label>R</div></div></div><div id = watt_peg_2><div class = watt_peg></div></div><div id = watt_peg_2 ></div><div id = watt_peg_3><div class = watt_peg></div></div><div id = watt_peg_3 ></div></div><div class = watt_hand_box><div class = ""watt_hand_ball watt_Blue""><div class = watt_ball_label>B</div></div></div><div class = watt_hand_label><strong>Boule en main</strong></div>","89,71,82","889","0,0,0,1,0,0,3,2,0","1","3","0,0,0,1,2,0,3,0,0","3,2,1,0,0,0,0,0,0","UA_without_intermediate","2","practice","","",""
"1350","71","poldrack-single-stim","27","84817","0.0-9.2-0.8-0.8","sub-11_ses-03_2","","1350","0","to_hand","<div class = watt_canvas><div class=""watt_vertical_line""></div></div><div class = watt_your_board><div class = watt_base></div><div class = watt_board_label><strong>Votre Planche</strong></div><div id = watt_peg_1><div class = watt_peg></div></div><div id = watt_peg_1 onclick = ""pegClick(this.id)""></div><div id = watt_peg_2><div class = watt_peg></div></div><div class = special id = watt_peg_2 onclick = ""pegClick(this.id)""><div class = ""watt_ball watt_Red""><div class = watt_ball_label>R</div></div></div><div id = watt_peg_3><div class = watt_peg></div></div><div class = special id = watt_peg_3 onclick = ""pegClick(this.id)""><div class = ""watt_ball watt_Green""><div class = watt_ball_label>G</div></div><div class = ""watt_ball watt_Blue""><div class = watt_ball_label>B</div></div></div></div><div class = watt_peg_board><div class = watt_base></div><div class = watt_board_label><strong>Planche Cible</strong></div><div id = watt_peg_1><div class = watt_peg></div></div><div id = watt_peg_1 ><div class = ""watt_ball watt_Green""><div class = watt_ball_label>G</div></div><div class = ""watt_ball watt_Blue""><div class = watt_ball_label>B</div></div><div class = ""watt_ball watt_Red""><div class = watt_ball_label>R</div></div></div><div id = watt_peg_2><div class = watt_peg></div></div><div id = watt_peg_2 ></div><div id = watt_peg_3><div class = watt_peg></div></div><div id = watt_peg_3 ></div></div><div class = watt_hand_box></div><div class = watt_hand_label><strong>Boule en main</strong></div>","71,82","1350","0,0,0,0,0,0,3,2,0","2","3","0,0,0,1,2,0,3,0,0","3,2,1,0,0,0,0,0,0","UA_without_intermediate","2","practice","","",""
"1008","71","poldrack-single-stim","28","85830","0.0-9.2-0.8-1.8","sub-11_ses-03_2","","1008","0","to_board","<div class = watt_canvas><div class=""watt_vertical_line""></div></div><div class = watt_your_board><div class = watt_base></div><div class = watt_board_label><strong>Votre Planche</strong></div><div id = watt_peg_1><div class = watt_peg></div></div><div class = special id = watt_peg_1 onclick = ""pegClick(this.id)""></div><div id = watt_peg_2><div class = watt_peg></div></div><div class = special id = watt_peg_2 onclick = ""pegClick(this.id)""></div><div id = watt_peg_3><div class = watt_peg></div></div><div class = special id = watt_peg_3 onclick = ""pegClick(this.id)""><div class = ""watt_ball watt_Green""><div class = watt_ball_label>G</div></div><div class = ""watt_ball watt_Blue""><div class = watt_ball_label>B</div></div></div></div><div class = watt_peg_board><div class = watt_base></div><div class = watt_board_label><strong>Planche Cible</strong></div><div id = watt_peg_1><div class = watt_peg></div></div><div id = watt_peg_1 ><div class = ""watt_ball watt_Green""><div class = watt_ball_label>G</div></div><div class = ""watt_ball watt_Blue""><div class = watt_ball_label>B</div></div><div class = ""watt_ball watt_Red""><div class = watt_ball_label>R</div></div></div><div id = watt_peg_2><div class = watt_peg></div></div><div id = watt_peg_2 ></div><div id = watt_peg_3><div class = watt_peg></div></div><div id = watt_peg_3 ></div></div><div class = watt_hand_box><div class = ""watt_hand_ball watt_Red""><div class = watt_ball_label>R</div></div></div><div class = watt_hand_label><strong>Boule en main</strong></div>","89,71,82","1008","0,0,0,1,0,0,3,2,0","2","3","0,0,0,1,2,0,3,0,0","3,2,1,0,0,0,0,0,0","UA_without_intermediate","2","practice","","",""
"1259","82","poldrack-single-stim","29","87097","0.0-9.2-0.9-0.9","sub-11_ses-03_2","","1259","0","to_hand","<div class = watt_canvas><div class=""watt_vertical_line""></div></div><div class = watt_your_board><div class = watt_base></div><div class = watt_board_label><strong>Votre Planche</strong></div><div id = watt_peg_1><div class = watt_peg></div></div><div id = watt_peg_1 onclick = ""pegClick(this.id)""></div><div id = watt_peg_2><div class = watt_peg></div></div><div class = special id = watt_peg_2 onclick = ""pegClick(this.id)""><div class = ""watt_ball watt_Red""><div class = watt_ball_label>R</div></div></div><div id = watt_peg_3><div class = watt_peg></div></div><div class = special id = watt_peg_3 onclick = ""pegClick(this.id)""><div class = ""watt_ball watt_Green""><div class = watt_ball_label>G</div></div><div class = ""watt_ball watt_Blue""><div class = watt_ball_label>B</div></div></div></div><div class = watt_peg_board><div class = watt_base></div><div class = watt_board_label><strong>Planche Cible</strong></div><div id = watt_peg_1><div class = watt_peg></div></div><div id = watt_peg_1 ><div class = ""watt_ball watt_Green""><div class = watt_ball_label>G</div></div><div class = ""watt_ball watt_Blue""><div class = watt_ball_label>B</div></div><div class = ""watt_ball watt_Red""><div class = watt_ball_label>R</div></div></div><div id = watt_peg_2><div class = watt_peg></div></div><div id = watt_peg_2 ></div><div id = watt_peg_3><div class = watt_peg></div></div><div id = watt_peg_3 ></div></div><div class = watt_hand_box></div><div class = watt_hand_label><strong>Boule en main</strong></div>","71,82","1259","0,0,0,1,0,0,3,0,0","3","3","0,0,0,1,2,0,3,0,0","3,2,1,0,0,0,0,0,0","UA_without_intermediate","2","practice","","",""
"297","71","poldrack-single-stim","30","87398","0.0-9.2-0.9-1.9","sub-11_ses-03_2","","297","0","to_board","<div class = watt_canvas><div class=""watt_vertical_line""></div></div><div class = watt_your_board><div class = watt_base></div><div class = watt_board_label><strong>Votre Planche</strong></div><div id = watt_peg_1><div class = watt_peg></div></div><div class = special id = watt_peg_1 onclick = ""pegClick(this.id)""></div><div id = watt_peg_2><div class = watt_peg></div></div><div class = special id = watt_peg_2 onclick = ""pegClick(this.id)""><div class = ""watt_ball watt_Red""><div class = watt_ball_label>R</div></div></div><div id = watt_peg_3><div class = watt_peg></div></div><div class = special id = watt_peg_3 onclick = ""pegClick(this.id)""><div class = ""watt_ball watt_Green""><div class = watt_ball_label>G</div></div></div></div><div class = watt_peg_board><div class = watt_base></div><div class = watt_board_label><strong>Planche Cible</strong></div><div id = watt_peg_1><div class = watt_peg></div></div><div id = watt_peg_1 ><div class = ""watt_ball watt_Green""><div class = watt_ball_label>G</div></div><div class = ""watt_ball watt_Blue""><div class = watt_ball_label>B</div></div><div class = ""watt_ball watt_Red""><div class = watt_ball_label>R</div></div></div><div id = watt_peg_2><div class = watt_peg></div></div><div id = watt_peg_2 ></div><div id = watt_peg_3><div class = watt_peg></div></div><div id = watt_peg_3 ></div></div><div class = watt_hand_box><div class = ""watt_hand_ball watt_Blue""><div class = watt_ball_label>B</div></div></div><div class = watt_hand_label><strong>Boule en main</strong></div>","89,71,82","297","0,0,0,1,2,0,3,0,0","3","3","0,0,0,1,2,0,3,0,0","3,2,1,0,0,0,0,0,0","UA_without_intermediate","2","practice","","",""
"450","82","poldrack-single-stim","31","87855","0.0-9.2-0.10-0.10","sub-11_ses-03_2","","450","0","to_hand","<div class = watt_canvas><div class=""watt_vertical_line""></div></div><div class = watt_your_board><div class = watt_base></div><div class = watt_board_label><strong>Votre Planche</strong></div><div id = watt_peg_1><div class = watt_peg></div></div><div id = watt_peg_1 onclick = ""pegClick(this.id)""></div><div id = watt_peg_2><div class = watt_peg></div></div><div class = special id = watt_peg_2 onclick = ""pegClick(this.id)""><div class = ""watt_ball watt_Red""><div class = watt_ball_label>R</div></div><div class = ""watt_ball watt_Blue""><div class = watt_ball_label>B</div></div></div><div id = watt_peg_3><div class = watt_peg></div></div><div class = special id = watt_peg_3 onclick = ""pegClick(this.id)""><div class = ""watt_ball watt_Green""><div class = watt_ball_label>G</div></div></div></div><div class = watt_peg_board><div class = watt_base></div><div class = watt_board_label><strong>Planche Cible</strong></div><div id = watt_peg_1><div class = watt_peg></div></div><div id = watt_peg_1 ><div class = ""watt_ball watt_Green""><div class = watt_ball_label>G</div></div><div class = ""watt_ball watt_Blue""><div class = watt_ball_label>B</div></div><div class = ""watt_ball watt_Red""><div class = watt_ball_label>R</div></div></div><div id = watt_peg_2><div class = watt_peg></div></div><div id = watt_peg_2 ></div><div id = watt_peg_3><div class = watt_peg></div></div><div id = watt_peg_3 ></div></div><div class = watt_hand_box></div><div class = watt_hand_label><strong>Boule en main</strong></div>","71,82","450","0,0,0,1,2,0,0,0,0","4","3","0,0,0,1,2,0,3,0,0","3,2,1,0,0,0,0,0,0","UA_without_intermediate","2","practice","","",""
"521","89","poldrack-single-stim","32","88381","0.0-9.2-0.10-1.10","sub-11_ses-03_2","","521","0","to_board","<div class = watt_canvas><div class=""watt_vertical_line""></div></div><div class = watt_your_board><div class = watt_base></div><div class = watt_board_label><strong>Votre Planche</strong></div><div id = watt_peg_1><div class = watt_peg></div></div><div class = special id = watt_peg_1 onclick = ""pegClick(this.id)""></div><div id = watt_peg_2><div class = watt_peg></div></div><div class = special id = watt_peg_2 onclick = ""pegClick(this.id)""><div class = ""watt_ball watt_Red""><div class = watt_ball_label>R</div></div><div class = ""watt_ball watt_Blue""><div class = watt_ball_label>B</div></div></div><div id = watt_peg_3><div class = watt_peg></div></div><div class = special id = watt_peg_3 onclick = ""pegClick(this.id)""></div></div><div class = watt_peg_board><div class = watt_base></div><div class = watt_board_label><strong>Planche Cible</strong></div><div id = watt_peg_1><div class = watt_peg></div></div><div id = watt_peg_1 ><div class = ""watt_ball watt_Green""><div class = watt_ball_label>G</div></div><div class = ""watt_ball watt_Blue""><div class = watt_ball_label>B</div></div><div class = ""watt_ball watt_Red""><div class = watt_ball_label>R</div></div></div><div id = watt_peg_2><div class = watt_peg></div></div><div id = watt_peg_2 ></div><div id = watt_peg_3><div class = watt_peg></div></div><div id = watt_peg_3 ></div></div><div class = watt_hand_box><div class = ""watt_hand_ball watt_Green""><div class = watt_ball_label>G</div></div></div><div class = watt_hand_label><strong>Boule en main</strong></div>","89,71,82","521","3,0,0,1,2,0,0,0,0","4","3","0,0,0,1,2,0,3,0,0","3,2,1,0,0,0,0,0,0","UA_without_intermediate","2","practice","","",""
"599","71","poldrack-single-stim","33","88988","0.0-9.2-0.11-0.11","sub-11_ses-03_2","","599","0","to_hand","<div class = watt_canvas><div class=""watt_vertical_line""></div></div><div class = watt_your_board><div class = watt_base></div><div class = watt_board_label><strong>Votre Planche</strong></div><div id = watt_peg_1><div class = watt_peg></div></div><div class = special id = watt_peg_1 onclick = ""pegClick(this.id)""><div class = ""watt_ball watt_Green""><div class = watt_ball_label>G</div></div></div><div id = watt_peg_2><div class = watt_peg></div></div><div class = special id = watt_peg_2 onclick = ""pegClick(this.id)""><div class = ""watt_ball watt_Red""><div class = watt_ball_label>R</div></div><div class = ""watt_ball watt_Blue""><div class = watt_ball_label>B</div></div></div><div id = watt_peg_3><div class = watt_peg></div></div><div id = watt_peg_3 onclick = ""pegClick(this.id)""></div></div><div class = watt_peg_board><div class = watt_base></div><div class = watt_board_label><strong>Planche Cible</strong></div><div id = watt_peg_1><div class = watt_peg></div></div><div id = watt_peg_1 ><div class = ""watt_ball watt_Green""><div class = watt_ball_label>G</div></div><div class = ""watt_ball watt_Blue""><div class = watt_ball_label>B</div></div><div class = ""watt_ball watt_Red""><div class = watt_ball_label>R</div></div></div><div id = watt_peg_2><div class = watt_peg></div></div><div id = watt_peg_2 ></div><div id = watt_peg_3><div class = watt_peg></div></div><div id = watt_peg_3 ></div></div><div class = watt_hand_box></div><div class = watt_hand_label><strong>Boule en main</strong></div>","89,71","599","3,0,0,1,0,0,0,0,0","5","3","0,0,0,1,2,0,3,0,0","3,2,1,0,0,0,0,0,0","UA_without_intermediate","2","practice","","",""
"353","89","poldrack-single-stim","34","89345","0.0-9.2-0.11-1.11","sub-11_ses-03_2","","353","0","to_board","<div class = watt_canvas><div class=""watt_vertical_line""></div></div><div class = watt_your_board><div class = watt_base></div><div class = watt_board_label><strong>Votre Planche</strong></div><div id = watt_peg_1><div class = watt_peg></div></div><div class = special id = watt_peg_1 onclick = ""pegClick(this.id)""><div class = ""watt_ball watt_Green""><div class = watt_ball_label>G</div></div></div><div id = watt_peg_2><div class = watt_peg></div></div><div class = special id = watt_peg_2 onclick = ""pegClick(this.id)""><div class = ""watt_ball watt_Red""><div class = watt_ball_label>R</div></div></div><div id = watt_peg_3><div class = watt_peg></div></div><div class = special id = watt_peg_3 onclick = ""pegClick(this.id)""></div></div><div class = watt_peg_board><div class = watt_base></div><div class = watt_board_label><strong>Planche Cible</strong></div><div id = watt_peg_1><div class = watt_peg></div></div><div id = watt_peg_1 ><div class = ""watt_ball watt_Green""><div class = watt_ball_label>G</div></div><div class = ""watt_ball watt_Blue""><div class = watt_ball_label>B</div></div><div class = ""watt_ball watt_Red""><div class = watt_ball_label>R</div></div></div><div id = watt_peg_2><div class = watt_peg></div></div><div id = watt_peg_2 ></div><div id = watt_peg_3><div class = watt_peg></div></div><div id = watt_peg_3 ></div></div><div class = watt_hand_box><div class = ""watt_hand_ball watt_Blue""><div class = watt_ball_label>B</div></div></div><div class = watt_hand_label><strong>Boule en main</strong></div>","89,71,82","353","3,2,0,1,0,0,0,0,0","5","3","0,0,0,1,2,0,3,0,0","3,2,1,0,0,0,0,0,0","UA_without_intermediate","2","practice","","",""
"2434","71","poldrack-single-stim","35","91793","0.0-9.2-0.12-0.12","sub-11_ses-03_2","","2434","0","to_hand","<div class = watt_canvas><div class=""watt_vertical_line""></div></div><div class = watt_your_board><div class = watt_base></div><div class = watt_board_label><strong>Votre Planche</strong></div><div id = watt_peg_1><div class = watt_peg></div></div><div class = special id = watt_peg_1 onclick = ""pegClick(this.id)""><div class = ""watt_ball watt_Green""><div class = watt_ball_label>G</div></div><div class = ""watt_ball watt_Blue""><div class = watt_ball_label>B</div></div></div><div id = watt_peg_2><div class = watt_peg></div></div><div class = special id = watt_peg_2 onclick = ""pegClick(this.id)""><div class = ""watt_ball watt_Red""><div class = watt_ball_label>R</div></div></div><div id = watt_peg_3><div class = watt_peg></div></div><div id = watt_peg_3 onclick = ""pegClick(this.id)""></div></div><div class = watt_peg_board><div class = watt_base></div><div class = watt_board_label><strong>Planche Cible</strong></div><div id = watt_peg_1><div class = watt_peg></div></div><div id = watt_peg_1 ><div class = ""watt_ball watt_Green""><div class = watt_ball_label>G</div></div><div class = ""watt_ball watt_Blue""><div class = watt_ball_label>B</div></div><div class = ""watt_ball watt_Red""><div class = watt_ball_label>R</div></div></div><div id = watt_peg_2><div class = watt_peg></div></div><div id = watt_peg_2 ></div><div id = watt_peg_3><div class = watt_peg></div></div><div id = watt_peg_3 ></div></div><div class = watt_hand_box></div><div class = watt_hand_label><strong>Boule en main</strong></div>","89,71","2434","3,2,0,0,0,0,0,0,0","6","3","0,0,0,1,2,0,3,0,0","3,2,1,0,0,0,0,0,0","UA_without_intermediate","2","practice","","",""
"333","89","poldrack-single-stim","36","92129","0.0-9.2-0.12-1.12","sub-11_ses-03_2","","333","0","to_board","<div class = watt_canvas><div class=""watt_vertical_line""></div></div><div class = watt_your_board><div class = watt_base></div><div class = watt_board_label><strong>Votre Planche</strong></div><div id = watt_peg_1><div class = watt_peg></div></div><div class = special id = watt_peg_1 onclick = ""pegClick(this.id)""><div class = ""watt_ball watt_Green""><div class = watt_ball_label>G</div></div><div class = ""watt_ball watt_Blue""><div class = watt_ball_label>B</div></div></div><div id = watt_peg_2><div class = watt_peg></div></div><div class = special id = watt_peg_2 onclick = ""pegClick(this.id)""></div><div id = watt_peg_3><div class = watt_peg></div></div><div class = special id = watt_peg_3 onclick = ""pegClick(this.id)""></div></div><div class = watt_peg_board><div class = watt_base></div><div class = watt_board_label><strong>Planche Cible</strong></div><div id = watt_peg_1><div class = watt_peg></div></div><div id = watt_peg_1 ><div class = ""watt_ball watt_Green""><div class = watt_ball_label>G</div></div><div class = ""watt_ball watt_Blue""><div class = watt_ball_label>B</div></div><div class = ""watt_ball watt_Red""><div class = watt_ball_label>R</div></div></div><div id = watt_peg_2><div class = watt_peg></div></div><div id = watt_peg_2 ></div><div id = watt_peg_3><div class = watt_peg></div></div><div id = watt_peg_3 ></div></div><div class = watt_hand_box><div class = ""watt_hand_ball watt_Red""><div class = watt_ball_label>R</div></div></div><div class = watt_hand_label><strong>Boule en main</strong></div>","89,71,82","333","3,2,1,0,0,0,0,0,0","6","3","0,0,0,1,2,0,3,0,0","3,2,1,0,0,0,0,0,0","UA_without_intermediate","2","practice","","",""
"-1","-1","poldrack-single-stim","37","94344","0.0-9.2-1.2","sub-11_ses-03_2","","2200","0","feedback","<div class = watt_canvas><div class=""watt_vertical_line""></div></div><div class = watt_your_board><div class = watt_base></div><div class = watt_board_label><strong>Votre Planche</strong></div><div id = watt_peg_1><div class = watt_peg></div></div><div id = watt_peg_1 ><div class = ""watt_ball watt_Green""><div class = watt_ball_label>G</div></div><div class = ""watt_ball watt_Blue""><div class = watt_ball_label>B</div></div><div class = ""watt_ball watt_Red""><div class = watt_ball_label>R</div></div></div><div id = watt_peg_2><div class = watt_peg></div></div><div id = watt_peg_2 ></div><div id = watt_peg_3><div class = watt_peg></div></div><div id = watt_peg_3 ></div></div><div class = watt_peg_board><div class = watt_base></div><div class = watt_board_label><strong>Planche Cible</strong></div><div id = watt_peg_1><div class = watt_peg></div></div><div id = watt_peg_1 ><div class = ""watt_ball watt_Green""><div class = watt_ball_label>G</div></div><div class = ""watt_ball watt_Blue""><div class = watt_ball_label>B</div></div><div class = ""watt_ball watt_Red""><div class = watt_ball_label>R</div></div></div><div id = watt_peg_2><div class = watt_peg></div></div><div id = watt_peg_2 ></div><div id = watt_peg_3><div class = watt_peg></div></div><div id = watt_peg_3 ></div></div><div class = watt_feedbackbox><p class = center-text>Complete</p></div>","none","1000","","6","3","","","","","practice","14530","true",""
"4284","71","poldrack-single-stim","38","98638","0.0-9.3-0.13-0.13","sub-11_ses-03_2","","4284","0","to_hand","<div class = watt_canvas><div class=""watt_vertical_line""></div></div><div class = watt_your_board><div class = watt_base></div><div class = watt_board_label><strong>Votre Planche</strong></div><div id = watt_peg_1><div class = watt_peg></div></div><div id = watt_peg_1 onclick = ""pegClick(this.id)""></div><div id = watt_peg_2><div class = watt_peg></div></div><div class = special id = watt_peg_2 onclick = ""pegClick(this.id)""><div class = ""watt_ball watt_Green""><div class = watt_ball_label>G</div></div><div class = ""watt_ball watt_Blue""><div class = watt_ball_label>B</div></div></div><div id = watt_peg_3><div class = watt_peg></div></div><div class = special id = watt_peg_3 onclick = ""pegClick(this.id)""><div class = ""watt_ball watt_Red""><div class = watt_ball_label>R</div></div></div></div><div class = watt_peg_board><div class = watt_base></div><div class = watt_board_label><strong>Planche Cible</strong></div><div id = watt_peg_1><div class = watt_peg></div></div><div id = watt_peg_1 ><div class = ""watt_ball watt_Blue""><div class = watt_ball_label>B</div></div><div class = ""watt_ball watt_Red""><div class = watt_ball_label>R</div></div><div class = ""watt_ball watt_Green""><div class = watt_ball_label>G</div></div></div><div id = watt_peg_2><div class = watt_peg></div></div><div id = watt_peg_2 ></div><div id = watt_peg_3><div class = watt_peg></div></div><div id = watt_peg_3 ></div></div><div class = watt_hand_box></div><div class = watt_hand_label><strong>Boule en main</strong></div>","71,82","4284","0,0,0,1,0,0,3,0,0","1","3","0,0,0,1,2,0,3,0,0","2,3,1,0,0,0,0,0,0","UA_without_intermediate","3","practice","","",""
"408","89","poldrack-single-stim","39","99052","0.0-9.3-0.13-1.13","sub-11_ses-03_2","","408","0","to_board","<div class = watt_canvas><div class=""watt_vertical_line""></div></div><div class = watt_your_board><div class = watt_base></div><div class = watt_board_label><strong>Votre Planche</strong></div><div id = watt_peg_1><div class = watt_peg></div></div><div class = special id = watt_peg_1 onclick = ""pegClick(this.id)""></div><div id = watt_peg_2><div class = watt_peg></div></div><div class = special id = watt_peg_2 onclick = ""pegClick(this.id)""><div class = ""watt_ball watt_Green""><div class = watt_ball_label>G</div></div></div><div id = watt_peg_3><div class = watt_peg></div></div><div class = special id = watt_peg_3 onclick = ""pegClick(this.id)""><div class = ""watt_ball watt_Red""><div class = watt_ball_label>R</div></div></div></div><div class = watt_peg_board><div class = watt_base></div><div class = watt_board_label><strong>Planche Cible</strong></div><div id = watt_peg_1><div class = watt_peg></div></div><div id = watt_peg_1 ><div class = ""watt_ball watt_Blue""><div class = watt_ball_label>B</div></div><div class = ""watt_ball watt_Red""><div class = watt_ball_label>R</div></div><div class = ""watt_ball watt_Green""><div class = watt_ball_label>G</div></div></div><div id = watt_peg_2><div class = watt_peg></div></div><div id = watt_peg_2 ></div><div id = watt_peg_3><div class = watt_peg></div></div><div id = watt_peg_3 ></div></div><div class = watt_hand_box><div class = ""watt_hand_ball watt_Blue""><div class = watt_ball_label>B</div></div></div><div class = watt_hand_label><strong>Boule en main</strong></div>","89,71,82","408","2,0,0,1,0,0,3,0,0","1","3","0,0,0,1,2,0,3,0,0","2,3,1,0,0,0,0,0,0","UA_without_intermediate","3","practice","","",""
"542","71","poldrack-single-stim","40","99605","0.0-9.3-0.14-0.14","sub-11_ses-03_2","","542","0","to_hand","<div class = watt_canvas><div class=""watt_vertical_line""></div></div><div class = watt_your_board><div class = watt_base></div><div class = watt_board_label><strong>Votre Planche</strong></div><div id = watt_peg_1><div class = watt_peg></div></div><div class = special id = watt_peg_1 onclick = ""pegClick(this.id)""><div class = ""watt_ball watt_Blue""><div class = watt_ball_label>B</div></div></div><div id = watt_peg_2><div class = watt_peg></div></div><div class = special id = watt_peg_2 onclick = ""pegClick(this.id)""><div class = ""watt_ball watt_Green""><div class = watt_ball_label>G</div></div></div><div id = watt_peg_3><div class = watt_peg></div></div><div class = special id = watt_peg_3 onclick = ""pegClick(this.id)""><div class = ""watt_ball watt_Red""><div class = watt_ball_label>R</div></div></div></div><div class = watt_peg_board><div class = watt_base></div><div class = watt_board_label><strong>Planche Cible</strong></div><div id = watt_peg_1><div class = watt_peg></div></div><div id = watt_peg_1 ><div class = ""watt_ball watt_Blue""><div class = watt_ball_label>B</div></div><div class = ""watt_ball watt_Red""><div class = watt_ball_label>R</div></div><div class = ""watt_ball watt_Green""><div class = watt_ball_label>G</div></div></div><div id = watt_peg_2><div class = watt_peg></div></div><div id = watt_peg_2 ></div><div id = watt_peg_3><div class = watt_peg></div></div><div id = watt_peg_3 ></div></div><div class = watt_hand_box></div><div class = watt_hand_label><strong>Boule en main</strong></div>","89,71,82","542","2,0,0,0,0,0,3,0,0","2","3","0,0,0,1,2,0,3,0,0","2,3,1,0,0,0,0,0,0","UA_without_intermediate","3","practice","","",""
"1134","71","poldrack-single-stim","41","100742","0.0-9.3-0.14-1.14","sub-11_ses-03_2","","1134","0","to_board","<div class = watt_canvas><div class=""watt_vertical_line""></div></div><div class = watt_your_board><div class = watt_base></div><div class = watt_board_label><strong>Votre Planche</strong></div><div id = watt_peg_1><div class = watt_peg></div></div><div class = special id = watt_peg_1 onclick = ""pegClick(this.id)""><div class = ""watt_ball watt_Blue""><div class = watt_ball_label>B</div></div></div><div id = watt_peg_2><div class = watt_peg></div></div><div class = special id = watt_peg_2 onclick = ""pegClick(this.id)""></div><div id = watt_peg_3><div class = watt_peg></div></div><div class = special id = watt_peg_3 onclick = ""pegClick(this.id)""><div class = ""watt_ball watt_Red""><div class = watt_ball_label>R</div></div></div></div><div class = watt_peg_board><div class = watt_base></div><div class = watt_board_label><strong>Planche Cible</strong></div><div id = watt_peg_1><div class = watt_peg></div></div><div id = watt_peg_1 ><div class = ""watt_ball watt_Blue""><div class = watt_ball_label>B</div></div><div class = ""watt_ball watt_Red""><div class = watt_ball_label>R</div></div><div class = ""watt_ball watt_Green""><div class = watt_ball_label>G</div></div></div><div id = watt_peg_2><div class = watt_peg></div></div><div id = watt_peg_2 ></div><div id = watt_peg_3><div class = watt_peg></div></div><div id = watt_peg_3 ></div></div><div class = watt_hand_box><div class = ""watt_hand_ball watt_Green""><div class = watt_ball_label>G</div></div></div><div class = watt_hand_label><strong>Boule en main</strong></div>","89,71,82","1134","2,0,0,1,0,0,3,0,0","2","3","0,0,0,1,2,0,3,0,0","2,3,1,0,0,0,0,0,0","UA_without_intermediate","3","practice","","",""
"493","82","poldrack-single-stim","42","101242","0.0-9.3-0.15-0.15","sub-11_ses-03_2","","493","0","to_hand","<div class = watt_canvas><div class=""watt_vertical_line""></div></div><div class = watt_your_board><div class = watt_base></div><div class = watt_board_label><strong>Votre Planche</strong></div><div id = watt_peg_1><div class = watt_peg></div></div><div class = special id = watt_peg_1 onclick = ""pegClick(this.id)""><div class = ""watt_ball watt_Blue""><div class = watt_ball_label>B</div></div></div><div id = watt_peg_2><div class = watt_peg></div></div><div class = special id = watt_peg_2 onclick = ""pegClick(this.id)""><div class = ""watt_ball watt_Green""><div class = watt_ball_label>G</div></div></div><div id = watt_peg_3><div class = watt_peg></div></div><div class = special id = watt_peg_3 onclick = ""pegClick(this.id)""><div class = ""watt_ball watt_Red""><div class = watt_ball_label>R</div></div></div></div><div class = watt_peg_board><div class = watt_base></div><div class = watt_board_label><strong>Planche Cible</strong></div><div id = watt_peg_1><div class = watt_peg></div></div><div id = watt_peg_1 ><div class = ""watt_ball watt_Blue""><div class = watt_ball_label>B</div></div><div class = ""watt_ball watt_Red""><div class = watt_ball_label>R</div></div><div class = ""watt_ball watt_Green""><div class = watt_ball_label>G</div></div></div><div id = watt_peg_2><div class = watt_peg></div></div><div id = watt_peg_2 ></div><div id = watt_peg_3><div class = watt_peg></div></div><div id = watt_peg_3 ></div></div><div class = watt_hand_box></div><div class = watt_hand_label><strong>Boule en main</strong></div>","89,71,82","493","2,0,0,1,0,0,0,0,0","3","3","0,0,0,1,2,0,3,0,0","2,3,1,0,0,0,0,0,0","UA_without_intermediate","3","practice","","",""
"571","89","poldrack-single-stim","43","101816","0.0-9.3-0.15-1.15","sub-11_ses-03_2","","571","0","to_board","<div class = watt_canvas><div class=""watt_vertical_line""></div></div><div class = watt_your_board><div class = watt_base></div><div class = watt_board_label><strong>Votre Planche</strong></div><div id = watt_peg_1><div class = watt_peg></div></div><div class = special id = watt_peg_1 onclick = ""pegClick(this.id)""><div class = ""watt_ball watt_Blue""><div class = watt_ball_label>B</div></div></div><div id = watt_peg_2><div class = watt_peg></div></div><div class = special id = watt_peg_2 onclick = ""pegClick(this.id)""><div class = ""watt_ball watt_Green""><div class = watt_ball_label>G</div></div></div><div id = watt_peg_3><div class = watt_peg></div></div><div class = special id = watt_peg_3 onclick = ""pegClick(this.id)""></div></div><div class = watt_peg_board><div class = watt_base></div><div class = watt_board_label><strong>Planche Cible</strong></div><div id = watt_peg_1><div class = watt_peg></div></div><div id = watt_peg_1 ><div class = ""watt_ball watt_Blue""><div class = watt_ball_label>B</div></div><div class = ""watt_ball watt_Red""><div class = watt_ball_label>R</div></div><div class = ""watt_ball watt_Green""><div class = watt_ball_label>G</div></div></div><div id = watt_peg_2><div class = watt_peg></div></div><div id = watt_peg_2 ></div><div id = watt_peg_3><div class = watt_peg></div></div><div id = watt_peg_3 ></div></div><div class = watt_hand_box><div class = ""watt_hand_ball watt_Red""><div class = watt_ball_label>R</div></div></div><div class = watt_hand_label><strong>Boule en main</strong></div>","89,71,82","571","2,3,0,1,0,0,0,0,0","3","3","0,0,0,1,2,0,3,0,0","2,3,1,0,0,0,0,0,0","UA_without_intermediate","3","practice","","",""
"333","71","poldrack-single-stim","44","102167","0.0-9.3-0.16-0.16","sub-11_ses-03_2","","333","0","to_hand","<div class = watt_canvas><div class=""watt_vertical_line""></div></div><div class = watt_your_board><div class = watt_base></div><div class = watt_board_label><strong>Votre Planche</strong></div><div id = watt_peg_1><div class = watt_peg></div></div><div class = special id = watt_peg_1 onclick = ""pegClick(this.id)""><div class = ""watt_ball watt_Blue""><div class = watt_ball_label>B</div></div><div class = ""watt_ball watt_Red""><div class = watt_ball_label>R</div></div></div><div id = watt_peg_2><div class = watt_peg></div></div><div class = special id = watt_peg_2 onclick = ""pegClick(this.id)""><div class = ""watt_ball watt_Green""><div class = watt_ball_label>G</div></div></div><div id = watt_peg_3><div class = watt_peg></div></div><div id = watt_peg_3 onclick = ""pegClick(this.id)""></div></div><div class = watt_peg_board><div class = watt_base></div><div class = watt_board_label><strong>Planche Cible</strong></div><div id = watt_peg_1><div class = watt_peg></div></div><div id = watt_peg_1 ><div class = ""watt_ball watt_Blue""><div class = watt_ball_label>B</div></div><div class = ""watt_ball watt_Red""><div class = watt_ball_label>R</div></div><div class = ""watt_ball watt_Green""><div class = watt_ball_label>G</div></div></div><div id = watt_peg_2><div class = watt_peg></div></div><div id = watt_peg_2 ></div><div id = watt_peg_3><div class = watt_peg></div></div><div id = watt_peg_3 ></div></div><div class = watt_hand_box></div><div class = watt_hand_label><strong>Boule en main</strong></div>","89,71","333","2,3,0,0,0,0,0,0,0","4","3","0,0,0,1,2,0,3,0,0","2,3,1,0,0,0,0,0,0","UA_without_intermediate","3","practice","","",""
"257","89","poldrack-single-stim","45","102426","0.0-9.3-0.16-1.16","sub-11_ses-03_2","","257","0","to_board","<div class = watt_canvas><div class=""watt_vertical_line""></div></div><div class = watt_your_board><div class = watt_base></div><div class = watt_board_label><strong>Votre Planche</strong></div><div id = watt_peg_1><div class = watt_peg></div></div><div class = special id = watt_peg_1 onclick = ""pegClick(this.id)""><div class = ""watt_ball watt_Blue""><div class = watt_ball_label>B</div></div><div class = ""watt_ball watt_Red""><div class = watt_ball_label>R</div></div></div><div id = watt_peg_2><div class = watt_peg></div></div><div class = special id = watt_peg_2 onclick = ""pegClick(this.id)""></div><div id = watt_peg_3><div class = watt_peg></div></div><div class = special id = watt_peg_3 onclick = ""pegClick(this.id)""></div></div><div class = watt_peg_board><div class = watt_base></div><div class = watt_board_label><strong>Planche Cible</strong></div><div id = watt_peg_1><div class = watt_peg></div></div><div id = watt_peg_1 ><div class = ""watt_ball watt_Blue""><div class = watt_ball_label>B</div></div><div class = ""watt_ball watt_Red""><div class = watt_ball_label>R</div></div><div class = ""watt_ball watt_Green""><div class = watt_ball_label>G</div></div></div><div id = watt_peg_2><div class = watt_peg></div></div><div id = watt_peg_2 ></div><div id = watt_peg_3><div class = watt_peg></div></div><div id = watt_peg_3 ></div></div><div class = watt_hand_box><div class = ""watt_hand_ball watt_Green""><div class = watt_ball_label>G</div></div></div><div class = watt_hand_label><strong>Boule en main</strong></div>","89,71,82","257","2,3,1,0,0,0,0,0,0","4","3","0,0,0,1,2,0,3,0,0","2,3,1,0,0,0,0,0,0","UA_without_intermediate","3","practice","","",""
"-1","-1","poldrack-single-stim","46","104443","0.0-9.3-1.3","sub-11_ses-03_2","","2000","0","feedback","<div class = watt_canvas><div class=""watt_vertical_line""></div></div><div class = watt_your_board><div class = watt_base></div><div class = watt_board_label><strong>Votre Planche</strong></div><div id = watt_peg_1><div class = watt_peg></div></div><div id = watt_peg_1 ><div class = ""watt_ball watt_Blue""><div class = watt_ball_label>B</div></div><div class = ""watt_ball watt_Red""><div class = watt_ball_label>R</div></div><div class = ""watt_ball watt_Green""><div class = watt_ball_label>G</div></div></div><div id = watt_peg_2><div class = watt_peg></div></div><div id = watt_peg_2 ></div><div id = watt_peg_3><div class = watt_peg></div></div><div id = watt_peg_3 ></div></div><div class = watt_peg_board><div class = watt_base></div><div class = watt_board_label><strong>Planche Cible</strong></div><div id = watt_peg_1><div class = watt_peg></div></div><div id = watt_peg_1 ><div class = ""watt_ball watt_Blue""><div class = watt_ball_label>B</div></div><div class = ""watt_ball watt_Red""><div class = watt_ball_label>R</div></div><div class = ""watt_ball watt_Green""><div class = watt_ball_label>G</div></div></div><div id = watt_peg_2><div class = watt_peg></div></div><div id = watt_peg_2 ></div><div id = watt_peg_3><div class = watt_peg></div></div><div id = watt_peg_3 ></div></div><div class = watt_feedbackbox><p class = center-text>Complete</p></div>","none","1000","","4","3","","","","","practice","10100","true",""
"-1","-1","poldrack-single-stim","47","106011","0.0-10.0","sub-11_ses-03_2","","1500","500","test_start_block","<div class = centerbox><div class = center-text>Preparez-vous!</p></div>","none","1500","","","","","","","","","","",""
"2458","89","poldrack-single-stim","48","108985","0.0-11.0-0.0-0.0","sub-11_ses-03_2","","2458","0","to_hand","<div class = watt_canvas><div class=""watt_vertical_line""></div></div><div class = watt_your_board><div class = watt_base></div><div class = watt_board_label><strong>Votre Planche</strong></div><div id = watt_peg_1><div class = watt_peg></div></div><div class = special id = watt_peg_1 onclick = ""pegClick(this.id)""><div class = ""watt_ball watt_Green""><div class = watt_ball_label>G</div></div><div class = ""watt_ball watt_Red""><div class = watt_ball_label>R</div></div><div class = ""watt_ball watt_Blue""><div class = watt_ball_label>B</div></div></div><div id = watt_peg_2><div class = watt_peg></div></div><div id = watt_peg_2 onclick = ""pegClick(this.id)""></div><div id = watt_peg_3><div class = watt_peg></div></div><div id = watt_peg_3 onclick = ""pegClick(this.id)""></div></div><div class = watt_peg_board><div class = watt_base></div><div class = watt_board_label><strong>Planche Cible</strong></div><div id = watt_peg_1><div class = watt_peg></div></div><div id = watt_peg_1 ></div><div id = watt_peg_2><div class = watt_peg></div></div><div id = watt_peg_2 ><div class = ""watt_ball watt_Red""><div class = watt_ball_label>R</div></div></div><div id = watt_peg_3><div class = watt_peg></div></div><div id = watt_peg_3 ><div class = ""watt_ball watt_Blue""><div class = watt_ball_label>B</div></div><div class = ""watt_ball watt_Green""><div class = watt_ball_label>G</div></div></div></div><div class = watt_hand_box></div><div class = watt_hand_label><strong>Boule en main</strong></div>","89","2458","1,2,0,0,0,0,0,0,0","1","3","1,2,3,0,0,0,0,0,0","0,0,0,2,0,0,3,1,0","PA_without_intermediate","0","test","","",""
"532","82","poldrack-single-stim","49","109518","0.0-11.0-0.0-1.0","sub-11_ses-03_2","","532","0","to_board","<div class = watt_canvas><div class=""watt_vertical_line""></div></div><div class = watt_your_board><div class = watt_base></div><div class = watt_board_label><strong>Votre Planche</strong></div><div id = watt_peg_1><div class = watt_peg></div></div><div class = special id = watt_peg_1 onclick = ""pegClick(this.id)""><div class = ""watt_ball watt_Green""><div class = watt_ball_label>G</div></div><div class = ""watt_ball watt_Red""><div class = watt_ball_label>R</div></div></div><div id = watt_peg_2><div class = watt_peg></div></div><div class = special id = watt_peg_2 onclick = ""pegClick(this.id)""></div><div id = watt_peg_3><div class = watt_peg></div></div><div class = special id = watt_peg_3 onclick = ""pegClick(this.id)""></div></div><div class = watt_peg_board><div class = watt_base></div><div class = watt_board_label><strong>Planche Cible</strong></div><div id = watt_peg_1><div class = watt_peg></div></div><div id = watt_peg_1 ></div><div id = watt_peg_2><div class = watt_peg></div></div><div id = watt_peg_2 ><div class = ""watt_ball watt_Red""><div class = watt_ball_label>R</div></div></div><div id = watt_peg_3><div class = watt_peg></div></div><div id = watt_peg_3 ><div class = ""watt_ball watt_Blue""><div class = watt_ball_label>B</div></div><div class = ""watt_ball watt_Green""><div class = watt_ball_label>G</div></div></div></div><div class = watt_hand_box><div class = ""watt_hand_ball watt_Blue""><div class = watt_ball_label>B</div></div></div><div class = watt_hand_label><strong>Boule en main</strong></div>","89,71,82","532","1,2,0,0,0,0,3,0,0","1","3","1,2,3,0,0,0,0,0,0","0,0,0,2,0,0,3,1,0","PA_without_intermediate","0","test","","",""
"895","89","poldrack-single-stim","50","110420","0.0-11.0-0.1-0.1","sub-11_ses-03_2","","895","0","to_hand","<div class = watt_canvas><div class=""watt_vertical_line""></div></div><div class = watt_your_board><div class = watt_base></div><div class = watt_board_label><strong>Votre Planche</strong></div><div id = watt_peg_1><div class = watt_peg></div></div><div class = special id = watt_peg_1 onclick = ""pegClick(this.id)""><div class = ""watt_ball watt_Green""><div class = watt_ball_label>G</div></div><div class = ""watt_ball watt_Red""><div class = watt_ball_label>R</div></div></div><div id = watt_peg_2><div class = watt_peg></div></div><div id = watt_peg_2 onclick = ""pegClick(this.id)""></div><div id = watt_peg_3><div class = watt_peg></div></div><div class = special id = watt_peg_3 onclick = ""pegClick(this.id)""><div class = ""watt_ball watt_Blue""><div class = watt_ball_label>B</div></div></div></div><div class = watt_peg_board><div class = watt_base></div><div class = watt_board_label><strong>Planche Cible</strong></div><div id = watt_peg_1><div class = watt_peg></div></div><div id = watt_peg_1 ></div><div id = watt_peg_2><div class = watt_peg></div></div><div id = watt_peg_2 ><div class = ""watt_ball watt_Red""><div class = watt_ball_label>R</div></div></div><div id = watt_peg_3><div class = watt_peg></div></div><div id = watt_peg_3 ><div class = ""watt_ball watt_Blue""><div class = watt_ball_label>B</div></div><div class = ""watt_ball watt_Green""><div class = watt_ball_label>G</div></div></div></div><div class = watt_hand_box></div><div class = watt_hand_label><strong>Boule en main</strong></div>","89,82","895","1,0,0,0,0,0,3,0,0","2","3","1,2,3,0,0,0,0,0,0","0,0,0,2,0,0,3,1,0","PA_without_intermediate","0","test","","",""
"364","71","poldrack-single-stim","51","110788","0.0-11.0-0.1-1.1","sub-11_ses-03_2","","364","0","to_board","<div class = watt_canvas><div class=""watt_vertical_line""></div></div><div class = watt_your_board><div class = watt_base></div><div class = watt_board_label><strong>Votre Planche</strong></div><div id = watt_peg_1><div class = watt_peg></div></div><div class = special id = watt_peg_1 onclick = ""pegClick(this.id)""><div class = ""watt_ball watt_Green""><div class = watt_ball_label>G</div></div></div><div id = watt_peg_2><div class = watt_peg></div></div><div class = special id = watt_peg_2 onclick = ""pegClick(this.id)""></div><div id = watt_peg_3><div class = watt_peg></div></div><div class = special id = watt_peg_3 onclick = ""pegClick(this.id)""><div class = ""watt_ball watt_Blue""><div class = watt_ball_label>B</div></div></div></div><div class = watt_peg_board><div class = watt_base></div><div class = watt_board_label><strong>Planche Cible</strong></div><div id = watt_peg_1><div class = watt_peg></div></div><div id = watt_peg_1 ></div><div id = watt_peg_2><div class = watt_peg></div></div><div id = watt_peg_2 ><div class = ""watt_ball watt_Red""><div class = watt_ball_label>R</div></div></div><div id = watt_peg_3><div class = watt_peg></div></div><div id = watt_peg_3 ><div class = ""watt_ball watt_Blue""><div class = watt_ball_label>B</div></div><div class = ""watt_ball watt_Green""><div class = watt_ball_label>G</div></div></div></div><div class = watt_hand_box><div class = ""watt_hand_ball watt_Red""><div class = watt_ball_label>R</div></div></div><div class = watt_hand_label><strong>Boule en main</strong></div>","89,71,82","364","1,0,0,2,0,0,3,0,0","2","3","1,2,3,0,0,0,0,0,0","0,0,0,2,0,0,3,1,0","PA_without_intermediate","0","test","","",""
"386","89","poldrack-single-stim","52","111184","0.0-11.0-0.2-0.2","sub-11_ses-03_2","","386","0","to_hand","<div class = watt_canvas><div class=""watt_vertical_line""></div></div><div class = watt_your_board><div class = watt_base></div><div class = watt_board_label><strong>Votre Planche</strong></div><div id = watt_peg_1><div class = watt_peg></div></div><div class = special id = watt_peg_1 onclick = ""pegClick(this.id)""><div class = ""watt_ball watt_Green""><div class = watt_ball_label>G</div></div></div><div id = watt_peg_2><div class = watt_peg></div></div><div class = special id = watt_peg_2 onclick = ""pegClick(this.id)""><div class = ""watt_ball watt_Red""><div class = watt_ball_label>R</div></div></div><div id = watt_peg_3><div class = watt_peg></div></div><div class = special id = watt_peg_3 onclick = ""pegClick(this.id)""><div class = ""watt_ball watt_Blue""><div class = watt_ball_label>B</div></div></div></div><div class = watt_peg_board><div class = watt_base></div><div class = watt_board_label><strong>Planche Cible</strong></div><div id = watt_peg_1><div class = watt_peg></div></div><div id = watt_peg_1 ></div><div id = watt_peg_2><div class = watt_peg></div></div><div id = watt_peg_2 ><div class = ""watt_ball watt_Red""><div class = watt_ball_label>R</div></div></div><div id = watt_peg_3><div class = watt_peg></div></div><div id = watt_peg_3 ><div class = ""watt_ball watt_Blue""><div class = watt_ball_label>B</div></div><div class = ""watt_ball watt_Green""><div class = watt_ball_label>G</div></div></div></div><div class = watt_hand_box></div><div class = watt_hand_label><strong>Boule en main</strong></div>","89,71,82","386","0,0,0,2,0,0,3,0,0","3","3","1,2,3,0,0,0,0,0,0","0,0,0,2,0,0,3,1,0","PA_without_intermediate","0","test","","",""
"622","82","poldrack-single-stim","53","111810","0.0-11.0-0.2-1.2","sub-11_ses-03_2","","622","0","to_board","<div class = watt_canvas><div class=""watt_vertical_line""></div></div><div class = watt_your_board><div class = watt_base></div><div class = watt_board_label><strong>Votre Planche</strong></div><div id = watt_peg_1><div class = watt_peg></div></div><div class = special id = watt_peg_1 onclick = ""pegClick(this.id)""></div><div id = watt_peg_2><div class = watt_peg></div></div><div class = special id = watt_peg_2 onclick = ""pegClick(this.id)""><div class = ""watt_ball watt_Red""><div class = watt_ball_label>R</div></div></div><div id = watt_peg_3><div class = watt_peg></div></div><div class = special id = watt_peg_3 onclick = ""pegClick(this.id)""><div class = ""watt_ball watt_Blue""><div class = watt_ball_label>B</div></div></div></div><div class = watt_peg_board><div class = watt_base></div><div class = watt_board_label><strong>Planche Cible</strong></div><div id = watt_peg_1><div class = watt_peg></div></div><div id = watt_peg_1 ></div><div id = watt_peg_2><div class = watt_peg></div></div><div id = watt_peg_2 ><div class = ""watt_ball watt_Red""><div class = watt_ball_label>R</div></div></div><div id = watt_peg_3><div class = watt_peg></div></div><div id = watt_peg_3 ><div class = ""watt_ball watt_Blue""><div class = watt_ball_label>B</div></div><div class = ""watt_ball watt_Green""><div class = watt_ball_label>G</div></div></div></div><div class = watt_hand_box><div class = ""watt_hand_ball watt_Green""><div class = watt_ball_label>G</div></div></div><div class = watt_hand_label><strong>Boule en main</strong></div>","89,71,82","622","0,0,0,2,0,0,3,1,0","3","3","1,2,3,0,0,0,0,0,0","0,0,0,2,0,0,3,1,0","PA_without_intermediate","0","test","","",""
"-1","-1","poldrack-single-stim","54","114913","0.0-11.0-1.0","sub-11_ses-03_2","","3088","0","feedback","<div class = watt_canvas><div class=""watt_vertical_line""></div></div><div class = watt_your_board><div class = watt_base></div><div class = watt_board_label><strong>Votre Planche</strong></div><div id = watt_peg_1><div class = watt_peg></div></div><div id = watt_peg_1 ></div><div id = watt_peg_2><div class = watt_peg></div></div><div id = watt_peg_2 ><div class = ""watt_ball watt_Red""><div class = watt_ball_label>R</div></div></div><div id = watt_peg_3><div class = watt_peg></div></div><div id = watt_peg_3 ><div class = ""watt_ball watt_Blue""><div class = watt_ball_label>B</div></div><div class = ""watt_ball watt_Green""><div class = watt_ball_label>G</div></div></div></div><div class = watt_peg_board><div class = watt_base></div><div class = watt_board_label><strong>Planche Cible</strong></div><div id = watt_peg_1><div class = watt_peg></div></div><div id = watt_peg_1 ></div><div id = watt_peg_2><div class = watt_peg></div></div><div id = watt_peg_2 ><div class = ""watt_ball watt_Red""><div class = watt_ball_label>R</div></div></div><div id = watt_peg_3><div class = watt_peg></div></div><div id = watt_peg_3 ><div class = ""watt_ball watt_Blue""><div class = watt_ball_label>B</div></div><div class = ""watt_ball watt_Green""><div class = watt_ball_label>G</div></div></div></div><div class = watt_feedbackbox><p class = center-text>Complete</p></div>","none","1000","","3","3","","","","","test","8901","true",""
"3123","82","poldrack-single-stim","55","118047","0.0-11.1-0.3-0.3","sub-11_ses-03_2","","3123","0","to_hand","<div class = watt_canvas><div class=""watt_vertical_line""></div></div><div class = watt_your_board><div class = watt_base></div><div class = watt_board_label><strong>Votre Planche</strong></div><div id = watt_peg_1><div class = watt_peg></div></div><div id = watt_peg_1 onclick = ""pegClick(this.id)""></div><div id = watt_peg_2><div class = watt_peg></div></div><div id = watt_peg_2 onclick = ""pegClick(this.id)""></div><div id = watt_peg_3><div class = watt_peg></div></div><div class = special id = watt_peg_3 onclick = ""pegClick(this.id)""><div class = ""watt_ball watt_Green""><div class = watt_ball_label>G</div></div><div class = ""watt_ball watt_Blue""><div class = watt_ball_label>B</div></div><div class = ""watt_ball watt_Red""><div class = watt_ball_label>R</div></div></div></div><div class = watt_peg_board><div class = watt_base></div><div class = watt_board_label><strong>Planche Cible</strong></div><div id = watt_peg_1><div class = watt_peg></div></div><div id = watt_peg_1 ><div class = ""watt_ball watt_Blue""><div class = watt_ball_label>B</div></div></div><div id = watt_peg_2><div class = watt_peg></div></div><div id = watt_peg_2 ></div><div id = watt_peg_3><div class = watt_peg></div></div><div id = watt_peg_3 ><div class = ""watt_ball watt_Green""><div class = watt_ball_label>G</div></div><div class = ""watt_ball watt_Red""><div class = watt_ball_label>R</div></div></div></div><div class = watt_hand_box></div><div class = watt_hand_label><strong>Boule en main</strong></div>","82","3123","0,0,0,0,0,0,1,2,0","1","3","0,0,0,0,0,0,1,2,3","2,0,0,0,0,0,1,3,0","PA_with_intermediate","1","test","","",""
"475","71","poldrack-single-stim","56","118525","0.0-11.1-0.3-1.3","sub-11_ses-03_2","","475","0","to_board","<div class = watt_canvas><div class=""watt_vertical_line""></div></div><div class = watt_your_board><div class = watt_base></div><div class = watt_board_label><strong>Votre Planche</strong></div><div id = watt_peg_1><div class = watt_peg></div></div><div class = special id = watt_peg_1 onclick = ""pegClick(this.id)""></div><div id = watt_peg_2><div class = watt_peg></div></div><div class = special id = watt_peg_2 onclick = ""pegClick(this.id)""></div><div id = watt_peg_3><div class = watt_peg></div></div><div class = special id = watt_peg_3 onclick = ""pegClick(this.id)""><div class = ""watt_ball watt_Green""><div class = watt_ball_label>G</div></div><div class = ""watt_ball watt_Blue""><div class = watt_ball_label>B</div></div></div></div><div class = watt_peg_board><div class = watt_base></div><div class = watt_board_label><strong>Planche Cible</strong></div><div id = watt_peg_1><div class = watt_peg></div></div><div id = watt_peg_1 ><div class = ""watt_ball watt_Blue""><div class = watt_ball_label>B</div></div></div><div id = watt_peg_2><div class = watt_peg></div></div><div id = watt_peg_2 ></div><div id = watt_peg_3><div class = watt_peg></div></div><div id = watt_peg_3 ><div class = ""watt_ball watt_Green""><div class = watt_ball_label>G</div></div><div class = ""watt_ball watt_Red""><div class = watt_ball_label>R</div></div></div></div><div class = watt_hand_box><div class = ""watt_hand_ball watt_Red""><div class = watt_ball_label>R</div></div></div><div class = watt_hand_label><strong>Boule en main</strong></div>","89,71,82","475","0,0,0,3,0,0,1,2,0","1","3","0,0,0,0,0,0,1,2,3","2,0,0,0,0,0,1,3,0","PA_with_intermediate","1","test","","",""
"684","82","poldrack-single-stim","57","119219","0.0-11.1-0.4-0.4","sub-11_ses-03_2","","684","0","to_hand","<div class = watt_canvas><div class=""watt_vertical_line""></div></div><div class = watt_your_board><div class = watt_base></div><div class = watt_board_label><strong>Votre Planche</strong></div><div id = watt_peg_1><div class = watt_peg></div></div><div id = watt_peg_1 onclick = ""pegClick(this.id)""></div><div id = watt_peg_2><div class = watt_peg></div></div><div class = special id = watt_peg_2 onclick = ""pegClick(this.id)""><div class = ""watt_ball watt_Red""><div class = watt_ball_label>R</div></div></div><div id = watt_peg_3><div class = watt_peg></div></div><div class = special id = watt_peg_3 onclick = ""pegClick(this.id)""><div class = ""watt_ball watt_Green""><div class = watt_ball_label>G</div></div><div class = ""watt_ball watt_Blue""><div class = watt_ball_label>B</div></div></div></div><div class = watt_peg_board><div class = watt_base></div><div class = watt_board_label><strong>Planche Cible</strong></div><div id = watt_peg_1><div class = watt_peg></div></div><div id = watt_peg_1 ><div class = ""watt_ball watt_Blue""><div class = watt_ball_label>B</div></div></div><div id = watt_peg_2><div class = watt_peg></div></div><div id = watt_peg_2 ></div><div id = watt_peg_3><div class = watt_peg></div></div><div id = watt_peg_3 ><div class = ""watt_ball watt_Green""><div class = watt_ball_label>G</div></div><div class = ""watt_ball watt_Red""><div class = watt_ball_label>R</div></div></div></div><div class = watt_hand_box></div><div class = watt_hand_label><strong>Boule en main</strong></div>","71,82","684","0,0,0,3,0,0,1,0,0","2","3","0,0,0,0,0,0,1,2,3","2,0,0,0,0,0,1,3,0","PA_with_intermediate","1","test","","",""
"516","89","poldrack-single-stim","58","119737","0.0-11.1-0.4-1.4","sub-11_ses-03_2","","516","0","to_board","<div class = watt_canvas><div class=""watt_vertical_line""></div></div><div class = watt_your_board><div class = watt_base></div><div class = watt_board_label><strong>Votre Planche</strong></div><div id = watt_peg_1><div class = watt_peg></div></div><div class = special id = watt_peg_1 onclick = ""pegClick(this.id)""></div><div id = watt_peg_2><div class = watt_peg></div></div><div class = special id = watt_peg_2 onclick = ""pegClick(this.id)""><div class = ""watt_ball watt_Red""><div class = watt_ball_label>R</div></div></div><div id = watt_peg_3><div class = watt_peg></div></div><div class = special id = watt_peg_3 onclick = ""pegClick(this.id)""><div class = ""watt_ball watt_Green""><div class = watt_ball_label>G</div></div></div></div><div class = watt_peg_board><div class = watt_base></div><div class = watt_board_label><strong>Planche Cible</strong></div><div id = watt_peg_1><div class = watt_peg></div></div><div id = watt_peg_1 ><div class = ""watt_ball watt_Blue""><div class = watt_ball_label>B</div></div></div><div id = watt_peg_2><div class = watt_peg></div></div><div id = watt_peg_2 ></div><div id = watt_peg_3><div class = watt_peg></div></div><div id = watt_peg_3 ><div class = ""watt_ball watt_Green""><div class = watt_ball_label>G</div></div><div class = ""watt_ball watt_Red""><div class = watt_ball_label>R</div></div></div></div><div class = watt_hand_box><div class = ""watt_hand_ball watt_Blue""><div class = watt_ball_label>B</div></div></div><div class = watt_hand_label><strong>Boule en main</strong></div>","89,71,82","516","2,0,0,3,0,0,1,0,0","2","3","0,0,0,0,0,0,1,2,3","2,0,0,0,0,0,1,3,0","PA_with_intermediate","1","test","","",""
"438","71","poldrack-single-stim","59","120187","0.0-11.1-0.5-0.5","sub-11_ses-03_2","","438","0","to_hand","<div class = watt_canvas><div class=""watt_vertical_line""></div></div><div class = watt_your_board><div class = watt_base></div><div class = watt_board_label><strong>Votre Planche</strong></div><div id = watt_peg_1><div class = watt_peg></div></div><div class = special id = watt_peg_1 onclick = ""pegClick(this.id)""><div class = ""watt_ball watt_Blue""><div class = watt_ball_label>B</div></div></div><div id = watt_peg_2><div class = watt_peg></div></div><div class = special id = watt_peg_2 onclick = ""pegClick(this.id)""><div class = ""watt_ball watt_Red""><div class = watt_ball_label>R</div></div></div><div id = watt_peg_3><div class = watt_peg></div></div><div class = special id = watt_peg_3 onclick = ""pegClick(this.id)""><div class = ""watt_ball watt_Green""><div class = watt_ball_label>G</div></div></div></div><div class = watt_peg_board><div class = watt_base></div><div class = watt_board_label><strong>Planche Cible</strong></div><div id = watt_peg_1><div class = watt_peg></div></div><div id = watt_peg_1 ><div class = ""watt_ball watt_Blue""><div class = watt_ball_label>B</div></div></div><div id = watt_peg_2><div class = watt_peg></div></div><div id = watt_peg_2 ></div><div id = watt_peg_3><div class = watt_peg></div></div><div id = watt_peg_3 ><div class = ""watt_ball watt_Green""><div class = watt_ball_label>G</div></div><div class = ""watt_ball watt_Red""><div class = watt_ball_label>R</div></div></div></div><div class = watt_hand_box></div><div class = watt_hand_label><strong>Boule en main</strong></div>","89,71,82","438","2,0,0,0,0,0,1,0,0","3","3","0,0,0,0,0,0,1,2,3","2,0,0,0,0,0,1,3,0","PA_with_intermediate","1","test","","",""
"571","82","poldrack-single-stim","60","120763","0.0-11.1-0.5-1.5","sub-11_ses-03_2","","571","0","to_board","<div class = watt_canvas><div class=""watt_vertical_line""></div></div><div class = watt_your_board><div class = watt_base></div><div class = watt_board_label><strong>Votre Planche</strong></div><div id = watt_peg_1><div class = watt_peg></div></div><div class = special id = watt_peg_1 onclick = ""pegClick(this.id)""><div class = ""watt_ball watt_Blue""><div class = watt_ball_label>B</div></div></div><div id = watt_peg_2><div class = watt_peg></div></div><div class = special id = watt_peg_2 onclick = ""pegClick(this.id)""></div><div id = watt_peg_3><div class = watt_peg></div></div><div class = special id = watt_peg_3 onclick = ""pegClick(this.id)""><div class = ""watt_ball watt_Green""><div class = watt_ball_label>G</div></div></div></div><div class = watt_peg_board><div class = watt_base></div><div class = watt_board_label><strong>Planche Cible</strong></div><div id = watt_peg_1><div class = watt_peg></div></div><div id = watt_peg_1 ><div class = ""watt_ball watt_Blue""><div class = watt_ball_label>B</div></div></div><div id = watt_peg_2><div class = watt_peg></div></div><div id = watt_peg_2 ></div><div id = watt_peg_3><div class = watt_peg></div></div><div id = watt_peg_3 ><div class = ""watt_ball watt_Green""><div class = watt_ball_label>G</div></div><div class = ""watt_ball watt_Red""><div class = watt_ball_label>R</div></div></div></div><div class = watt_hand_box><div class = ""watt_hand_ball watt_Red""><div class = watt_ball_label>R</div></div></div><div class = watt_hand_label><strong>Boule en main</strong></div>","89,71,82","571","2,0,0,0,0,0,1,3,0","3","3","0,0,0,0,0,0,1,2,3","2,0,0,0,0,0,1,3,0","PA_with_intermediate","1","test","","",""
"-1","-1","poldrack-single-stim","61","122793","0.0-11.1-1.1","sub-11_ses-03_2","","2000","0","feedback","<div class = watt_canvas><div class=""watt_vertical_line""></div></div><div class = watt_your_board><div class = watt_base></div><div class = watt_board_label><strong>Votre Planche</strong></div><div id = watt_peg_1><div class = watt_peg></div></div><div id = watt_peg_1 ><div class = ""watt_ball watt_Blue""><div class = watt_ball_label>B</div></div></div><div id = watt_peg_2><div class = watt_peg></div></div><div id = watt_peg_2 ></div><div id = watt_peg_3><div class = watt_peg></div></div><div id = watt_peg_3 ><div class = ""watt_ball watt_Green""><div class = watt_ball_label>G</div></div><div class = ""watt_ball watt_Red""><div class = watt_ball_label>R</div></div></div></div><div class = watt_peg_board><div class = watt_base></div><div class = watt_board_label><strong>Planche Cible</strong></div><div id = watt_peg_1><div class = watt_peg></div></div><div id = watt_peg_1 ><div class = ""watt_ball watt_Blue""><div class = watt_ball_label>B</div></div></div><div id = watt_peg_2><div class = watt_peg></div></div><div id = watt_peg_2 ></div><div id = watt_peg_3><div class = watt_peg></div></div><div id = watt_peg_3 ><div class = ""watt_ball watt_Green""><div class = watt_ball_label>G</div></div><div class = ""watt_ball watt_Red""><div class = watt_ball_label>R</div></div></div></div><div class = watt_feedbackbox><p class = center-text>Complete</p></div>","none","1000","","3","3","","","","","test","7879","true",""
"1596","71","poldrack-single-stim","62","124404","0.0-11.2-0.6-0.6","sub-11_ses-03_2","","1596","0","to_hand","<div class = watt_canvas><div class=""watt_vertical_line""></div></div><div class = watt_your_board><div class = watt_base></div><div class = watt_board_label><strong>Votre Planche</strong></div><div id = watt_peg_1><div class = watt_peg></div></div><div id = watt_peg_1 onclick = ""pegClick(this.id)""></div><div id = watt_peg_2><div class = watt_peg></div></div><div class = special id = watt_peg_2 onclick = ""pegClick(this.id)""><div class = ""watt_ball watt_Green""><div class = watt_ball_label>G</div></div><div class = ""watt_ball watt_Red""><div class = watt_ball_label>R</div></div><div class = ""watt_ball watt_Blue""><div class = watt_ball_label>B</div></div></div><div id = watt_peg_3><div class = watt_peg></div></div><div id = watt_peg_3 onclick = ""pegClick(this.id)""></div></div><div class = watt_peg_board><div class = watt_base></div><div class = watt_board_label><strong>Planche Cible</strong></div><div id = watt_peg_1><div class = watt_peg></div></div><div id = watt_peg_1 ><div class = ""watt_ball watt_Red""><div class = watt_ball_label>R</div></div></div><div id = watt_peg_2><div class = watt_peg></div></div><div id = watt_peg_2 ></div><div id = watt_peg_3><div class = watt_peg></div></div><div id = watt_peg_3 ><div class = ""watt_ball watt_Blue""><div class = watt_ball_label>B</div></div><div class = ""watt_ball watt_Green""><div class = watt_ball_label>G</div></div></div></div><div class = watt_hand_box></div><div class = watt_hand_label><strong>Boule en main</strong></div>","71","1596","0,0,0,1,2,0,0,0,0","1","3","0,0,0,1,2,3,0,0,0","2,0,0,0,0,0,3,1,0","PA_without_intermediate","2","test","","",""
"553","82","poldrack-single-stim","63","124961","0.0-11.2-0.6-1.6","sub-11_ses-03_2","","553","0","to_board","<div class = watt_canvas><div class=""watt_vertical_line""></div></div><div class = watt_your_board><div class = watt_base></div><div class = watt_board_label><strong>Votre Planche</strong></div><div id = watt_peg_1><div class = watt_peg></div></div><div class = special id = watt_peg_1 onclick = ""pegClick(this.id)""></div><div id = watt_peg_2><div class = watt_peg></div></div><div class = special id = watt_peg_2 onclick = ""pegClick(this.id)""><div class = ""watt_ball watt_Green""><div class = watt_ball_label>G</div></div><div class = ""watt_ball watt_Red""><div class = watt_ball_label>R</div></div></div><div id = watt_peg_3><div class = watt_peg></div></div><div class = special id = watt_peg_3 onclick = ""pegClick(this.id)""></div></div><div class = watt_peg_board><div class = watt_base></div><div class = watt_board_label><strong>Planche Cible</strong></div><div id = watt_peg_1><div class = watt_peg></div></div><div id = watt_peg_1 ><div class = ""watt_ball watt_Red""><div class = watt_ball_label>R</div></div></div><div id = watt_peg_2><div class = watt_peg></div></div><div id = watt_peg_2 ></div><div id = watt_peg_3><div class = watt_peg></div></div><div id = watt_peg_3 ><div class = ""watt_ball watt_Blue""><div class = watt_ball_label>B</div></div><div class = ""watt_ball watt_Green""><div class = watt_ball_label>G</div></div></div></div><div class = watt_hand_box><div class = ""watt_hand_ball watt_Blue""><div class = watt_ball_label>B</div></div></div><div class = watt_hand_label><strong>Boule en main</strong></div>","89,71,82","553","0,0,0,1,2,0,3,0,0","1","3","0,0,0,1,2,3,0,0,0","2,0,0,0,0,0,3,1,0","PA_without_intermediate","2","test","","",""
"548","71","poldrack-single-stim","64","125518","0.0-11.2-0.7-0.7","sub-11_ses-03_2","","548","0","to_hand","<div class = watt_canvas><div class=""watt_vertical_line""></div></div><div class = watt_your_board><div class = watt_base></div><div class = watt_board_label><strong>Votre Planche</strong></div><div id = watt_peg_1><div class = watt_peg></div></div><div id = watt_peg_1 onclick = ""pegClick(this.id)""></div><div id = watt_peg_2><div class = watt_peg></div></div><div class = special id = watt_peg_2 onclick = ""pegClick(this.id)""><div class = ""watt_ball watt_Green""><div class = watt_ball_label>G</div></div><div class = ""watt_ball watt_Red""><div class = watt_ball_label>R</div></div></div><div id = watt_peg_3><div class = watt_peg></div></div><div class = special id = watt_peg_3 onclick = ""pegClick(this.id)""><div class = ""watt_ball watt_Blue""><div class = watt_ball_label>B</div></div></div></div><div class = watt_peg_board><div class = watt_base></div><div class = watt_board_label><strong>Planche Cible</strong></div><div id = watt_peg_1><div class = watt_peg></div></div><div id = watt_peg_1 ><div class = ""watt_ball watt_Red""><div class = watt_ball_label>R</div></div></div><div id = watt_peg_2><div class = watt_peg></div></div><div id = watt_peg_2 ></div><div id = watt_peg_3><div class = watt_peg></div></div><div id = watt_peg_3 ><div class = ""watt_ball watt_Blue""><div class = watt_ball_label>B</div></div><div class = ""watt_ball watt_Green""><div class = watt_ball_label>G</div></div></div></div><div class = watt_hand_box></div><div class = watt_hand_label><strong>Boule en main</strong></div>","71,82","548","0,0,0,1,0,0,3,0,0","2","3","0,0,0,1,2,3,0,0,0","2,0,0,0,0,0,3,1,0","PA_without_intermediate","2","test","","",""
