"rt","key_press","trial_type","trial_index","time_elapsed","internal_node_id","subject","text","block_duration","timing_post_trial","trial_id","responses","stimulus","possible_responses","stim_duration","condition","exp_stage","trial_num","correct_response","correct","exp_id"
"1740","13","text","0","1744","0.0-0.0","sub-13-ses-03_1","","","","","","","","","","","","","",""
"1040","89","poldrack-text","1","3797","0.0-1.0","sub-13-ses-03_1","<div class = centerbox><div style = 'font-size: 50px' class = center-text>Veuillez appuyer avec votre index</p></div>","1040","500","fmri_response_test","","","","","","","","","",""
"629","71","poldrack-text","2","4949","0.0-2.0","sub-13-ses-03_1","<div class = centerbox><div style = 'font-size: 50px' class = center-text>Veuillez appuyer avec votre majeur</p></div>","629","500","fmri_response_test","","","","","","","","","",""
"16927","","survey-text","3","22418","0.0-3.0","sub-13-ses-03_1","","","","task_setup","{""Q0"":""3"",""Q1"":""1""}","","","","","","","","",""
"4283","32","poldrack-single-stim","4","27713","0.0-4.0","sub-13-ses-03_1","","4283","500","instructions","","<div class = centerbox><p style = ""font-size:40px"" class = center-block-text>Paire cible (appuyez sur l'index):</p><p class = center-block-text><img src = ""/static/experiments/dot_pattern_expectancy/images/cue3.png"" ></img>&nbsp&nbsp&nbsp...suivi par...&nbsp&nbsp&nbsp<img src = ""/static/experiments/dot_pattern_expectancy/images/probe1.png"" ></img><br></br></p><p style = ""font-size:40px"" class = center-block-text>Sinon appuyez sur le majeur</div>","32","4283","","","","","",""
"-1","-1","poldrack-single-stim","5","28746","0.0-5.0-0.0","sub-13-ses-03_1","","500","0","cue","","<div class = centerbox><div class = img-container><img src = ""/static/experiments/dot_pattern_expectancy/images/cue3.png""</img></div></div>","none","500","AX","practice","0","","",""
"-1","-1","poldrack-single-stim","6","30763","0.0-5.0-1.0","sub-13-ses-03_1","","2000","0","fixation","","<div class = centerbox><div class = fixation>+</div></div>","none","2000","","practice","","","",""
"535","89","poldrack-single-stim","7","32680","0.0-5.0-2.0","sub-13-ses-03_1","","1900","0","probe","","<div class = centerbox><div class = img-container><img src = ""/static/experiments/dot_pattern_expectancy/images/probe1.png""</img></div></div>","89,71","500","AX","practice","0","89","true",""
"-1","-1","poldrack-single-stim","8","33192","0.0-5.0-3.0","sub-13-ses-03_1","","500","0","feedback","","<div class = centerbox><div style=""color:#4FE829""; class = center-text>Correct!</div></div>","none","500","","practice","1","","",""
"-1","-1","poldrack-single-stim","9","33711","0.0-5.0-4.0","sub-13-ses-03_1","","500","0","cue","","<div class = centerbox><div class = img-container><img src = ""/static/experiments/dot_pattern_expectancy/images/cue3.png""</img></div></div>","none","500","AY","practice","1","","",""
"-1","-1","poldrack-single-stim","10","35723","0.0-5.0-5.0","sub-13-ses-03_1","","2000","0","fixation","","<div class = centerbox><div class = fixation>+</div></div>","none","2000","","practice","","","",""
"979","71","poldrack-single-stim","11","38041","0.0-5.0-6.0","sub-13-ses-03_1","","2300","0","probe","","<div class = centerbox><div class = img-container><img src = ""/static/experiments/dot_pattern_expectancy/images/probe4.png""</img></div></div>","89,71","500","AY","practice","1","71","true",""
"-1","-1","poldrack-single-stim","12","38561","0.0-5.0-7.0","sub-13-ses-03_1","","500","0","feedback","","<div class = centerbox><div style=""color:#4FE829""; class = center-text>Correct!</div></div>","none","500","","practice","2","","",""
"-1","-1","poldrack-single-stim","13","39082","0.0-5.0-8.0","sub-13-ses-03_1","","500","0","cue","","<div class = centerbox><div class = img-container><img src = ""/static/experiments/dot_pattern_expectancy/images/cue2.png""</img></div></div>","none","500","BX","practice","2","","",""
"-1","-1","poldrack-single-stim","14","41091","0.0-5.0-9.0","sub-13-ses-03_1","","2000","0","fixation","","<div class = centerbox><div class = fixation>+</div></div>","none","2000","","practice","","","",""
"321","71","poldrack-single-stim","15","43602","0.0-5.0-10.0","sub-13-ses-03_1","","2500","0","probe","","<div class = centerbox><div class = img-container><img src = ""/static/experiments/dot_pattern_expectancy/images/probe1.png""</img></div></div>","89,71","500","BX","practice","2","71","true",""
"-1","-1","poldrack-single-stim","16","44122","0.0-5.0-11.0","sub-13-ses-03_1","","500","0","feedback","","<div class = centerbox><div style=""color:#4FE829""; class = center-text>Correct!</div></div>","none","500","","practice","3","","",""
"-1","-1","poldrack-single-stim","17","44644","0.0-5.0-12.0","sub-13-ses-03_1","","500","0","cue","","<div class = centerbox><div class = img-container><img src = ""/static/experiments/dot_pattern_expectancy/images/cue6.png""</img></div></div>","none","500","BY","practice","3","","",""
"-1","-1","poldrack-single-stim","18","46659","0.0-5.0-13.0","sub-13-ses-03_1","","2000","0","fixation","","<div class = centerbox><div class = fixation>+</div></div>","none","2000","","practice","","","",""
"496","71","poldrack-single-stim","19","48181","0.0-5.0-14.0","sub-13-ses-03_1","","1500","0","probe","","<div class = centerbox><div class = img-container><img src = ""/static/experiments/dot_pattern_expectancy/images/probe3.png""</img></div></div>","89,71","500","BY","practice","3","71","true",""
"-1","-1","poldrack-single-stim","20","48692","0.0-5.0-15.0","sub-13-ses-03_1","","500","0","feedback","","<div class = centerbox><div style=""color:#4FE829""; class = center-text>Correct!</div></div>","none","500","","practice","4","","",""
"-1","-1","poldrack-single-stim","21","49212","0.0-5.0-16.0","sub-13-ses-03_1","","500","0","cue","","<div class = centerbox><div class = img-container><img src = ""/static/experiments/dot_pattern_expectancy/images/cue5.png""</img></div></div>","none","500","BX","practice","4","","",""
"-1","-1","poldrack-single-stim","22","51222","0.0-5.0-17.0","sub-13-ses-03_1","","2000","0","fixation","","<div class = centerbox><div class = fixation>+</div></div>","none","2000","","practice","","","",""
"286","71","poldrack-single-stim","23","53340","0.0-5.0-18.0","sub-13-ses-03_1","","2100","0","probe","","<div class = centerbox><div class = img-container><img src = ""/static/experiments/dot_pattern_expectancy/images/probe1.png""</img></div></div>","89,71","500","BX","practice","4","71","true",""
"-1","-1","poldrack-single-stim","24","53862","0.0-5.0-19.0","sub-13-ses-03_1","","500","0","feedback","","<div class = centerbox><div style=""color:#4FE829""; class = center-text>Correct!</div></div>","none","500","","practice","5","","",""
"-1","-1","poldrack-single-stim","25","54372","0.0-5.0-20.0","sub-13-ses-03_1","","500","0","cue","","<div class = centerbox><div class = img-container><img src = ""/static/experiments/dot_pattern_expectancy/images/cue3.png""</img></div></div>","none","500","AX","practice","5","","",""
"-1","-1","poldrack-single-stim","26","56391","0.0-5.0-21.0","sub-13-ses-03_1","","2000","0","fixation","","<div class = centerbox><div class = fixation>+</div></div>","none","2000","","practice","","","",""
"361","71","poldrack-single-stim","27","57912","0.0-5.0-22.0","sub-13-ses-03_1","","1500","0","probe","","<div class = centerbox><div class = img-container><img src = ""/static/experiments/dot_pattern_expectancy/images/probe1.png""</img></div></div>","89,71","500","AX","practice","5","89","false",""
"-1","-1","poldrack-single-stim","28","58431","0.0-5.0-23.0","sub-13-ses-03_1","","500","0","feedback","","<div class = centerbox><div style=""color:red""; class = center-text>Incorrect</div></div>","none","500","","practice","6","","",""
"-1","-1","poldrack-single-stim","29","58951","0.0-5.0-24.0","sub-13-ses-03_1","","500","0","cue","","<div class = centerbox><div class = img-container><img src = ""/static/experiments/dot_pattern_expectancy/images/cue3.png""</img></div></div>","none","500","AY","practice","6","","",""
"-1","-1","poldrack-single-stim","30","60963","0.0-5.0-25.0","sub-13-ses-03_1","","2000","0","fixation","","<div class = centerbox><div class = fixation>+</div></div>","none","2000","","practice","","","",""
"900","71","poldrack-single-stim","31","62481","0.0-5.0-26.0","sub-13-ses-03_1","","1500","0","probe","","<div class = centerbox><div class = img-container><img src = ""/static/experiments/dot_pattern_expectancy/images/probe4.png""</img></div></div>","89,71","500","AY","practice","6","71","true",""
"-1","-1","poldrack-single-stim","32","63000","0.0-5.0-27.0","sub-13-ses-03_1","","500","0","feedback","","<div class = centerbox><div style=""color:#4FE829""; class = center-text>Correct!</div></div>","none","500","","practice","7","","",""
"-1","-1","poldrack-single-stim","33","63521","0.0-5.0-28.0","sub-13-ses-03_1","","500","0","cue","","<div class = centerbox><div class = img-container><img src = ""/static/experiments/dot_pattern_expectancy/images/cue3.png""</img></div></div>","none","500","AX","practice","7","","",""
"-1","-1","poldrack-single-stim","34","65542","0.0-5.0-29.0","sub-13-ses-03_1","","2000","0","fixation","","<div class = centerbox><div class = fixation>+</div></div>","none","2000","","practice","","","",""
"558","89","poldrack-single-stim","35","67261","0.0-5.0-30.0","sub-13-ses-03_1","","1700","0","probe","","<div class = centerbox><div class = img-container><img src = ""/static/experiments/dot_pattern_expectancy/images/probe1.png""</img></div></div>","89,71","500","AX","practice","7","89","true",""
"-1","-1","poldrack-single-stim","36","67781","0.0-5.0-31.0","sub-13-ses-03_1","","500","0","feedback","","<div class = centerbox><div style=""color:#4FE829""; class = center-text>Correct!</div></div>","none","500","","practice","8","","",""
"-1","-1","poldrack-single-stim","37","68301","0.0-5.0-32.0","sub-13-ses-03_1","","500","0","cue","","<div class = centerbox><div class = img-container><img src = ""/static/experiments/dot_pattern_expectancy/images/cue3.png""</img></div></div>","none","500","AX","practice","8","","",""
"-1","-1","poldrack-single-stim","38","70322","0.0-5.0-33.0","sub-13-ses-03_1","","2000","0","fixation","","<div class = centerbox><div class = fixation>+</div></div>","none","2000","","practice","","","",""
"634","89","poldrack-single-stim","39","71841","0.0-5.0-34.0","sub-13-ses-03_1","","1500","0","probe","","<div class = centerbox><div class = img-container><img src = ""/static/experiments/dot_pattern_expectancy/images/probe1.png""</img></div></div>","89,71","500","AX","practice","8","89","true",""
"-1","-1","poldrack-single-stim","40","72362","0.0-5.0-35.0","sub-13-ses-03_1","","500","0","feedback","","<div class = centerbox><div style=""color:#4FE829""; class = center-text>Correct!</div></div>","none","500","","practice","9","","",""
"-1","-1","poldrack-single-stim","41","72882","0.0-5.0-36.0","sub-13-ses-03_1","","500","0","cue","","<div class = centerbox><div class = img-container><img src = ""/static/experiments/dot_pattern_expectancy/images/cue6.png""</img></div></div>","none","500","BY","practice","9","","",""
"-1","-1","poldrack-single-stim","42","74892","0.0-5.0-37.0","sub-13-ses-03_1","","2000","0","fixation","","<div class = centerbox><div class = fixation>+</div></div>","none","2000","","practice","","","",""
"368","71","poldrack-single-stim","43","76410","0.0-5.0-38.0","sub-13-ses-03_1","","1500","0","probe","","<div class = centerbox><div class = img-container><img src = ""/static/experiments/dot_pattern_expectancy/images/probe4.png""</img></div></div>","89,71","500","BY","practice","9","71","true",""
"-1","-1","poldrack-single-stim","44","76932","0.0-5.0-39.0","sub-13-ses-03_1","","500","0","feedback","","<div class = centerbox><div style=""color:#4FE829""; class = center-text>Correct!</div></div>","none","500","","practice","10","","",""
"3133","32","poldrack-text","45","80072","0.0-6.0","sub-13-ses-03_1","<div class = centerbox><div  class = center-text>Scanner Setup</div></div>","3133","0","fmri_scanner_wait","","","","","","","","","",""
"54589","84","poldrack-text","46","134664","0.0-7.0","sub-13-ses-03_1","<div class = centerbox><div style='color:red'; class = center-text>+</div></div>","54589","0","fmri_trigger_wait","","","","","","","","","",""
"-1","-1","poldrack-single-stim","47","135682","0.0-8.0","sub-13-ses-03_1","","1000","0","fmri_buffer","","","none","1000","","","","","",""
"-1","-1","poldrack-single-stim","48","137201","0.0-9.0","sub-13-ses-03_1","","1500","500","test_start_block","","<div class = centerbox><div class = center-text>Preparez-vous!</p></div>","none","1500","","","","","",""
"-1","-1","poldrack-single-stim","49","138243","0.0-10.0","sub-13-ses-03_1","","500","0","cue","","<div class = centerbox><div class = img-container><img src = ""/static/experiments/dot_pattern_expectancy/images/cue1.png""</img></div></div>","none","500","BY","test","0","","",""
"-1","-1","poldrack-single-stim","50","140262","0.0-11.0","sub-13-ses-03_1","","2000","0","fixation","","<div class = centerbox><div class = fixation>+</div></div>","none","2000","","test","","","",""
"407","71","poldrack-single-stim","51","141921","0.0-12.0","sub-13-ses-03_1","","1636","0","probe","","<div class = centerbox><div class = img-container><img src = ""/static/experiments/dot_pattern_expectancy/images/probe4.png""</img></div></div>","89,71","500","BY","test","0","71","true",""
"-1","-1","poldrack-single-stim","52","142432","0.0-13.0","sub-13-ses-03_1","","500","0","cue","","<div class = centerbox><div class = img-container><img src = ""/static/experiments/dot_pattern_expectancy/images/cue3.png""</img></div></div>","none","500","AY","test","1","","",""
"-1","-1","poldrack-single-stim","53","144441","0.0-14.0","sub-13-ses-03_1","","2000","0","fixation","","<div class = centerbox><div class = fixation>+</div></div>","none","2000","","test","","","",""
"778","71","poldrack-single-stim","54","145961","0.0-15.0","sub-13-ses-03_1","","1500","0","probe","","<div class = centerbox><div class = img-container><img src = ""/static/experiments/dot_pattern_expectancy/images/probe6.png""</img></div></div>","89,71","500","AY","test","1","71","true",""
"-1","-1","poldrack-single-stim","55","146481","0.0-16.0","sub-13-ses-03_1","","500","0","cue","","<div class = centerbox><div class = img-container><img src = ""/static/experiments/dot_pattern_expectancy/images/cue3.png""</img></div></div>","none","500","AX","test","2","","",""
"-1","-1","poldrack-single-stim","56","148501","0.0-17.0","sub-13-ses-03_1","","2000","0","fixation","","<div class = centerbox><div class = fixation>+</div></div>","none","2000","","test","","","",""
"489","89","poldrack-single-stim","57","150562","0.0-18.0","sub-13-ses-03_1","","2044","0","probe","","<div class = centerbox><div class = img-container><img src = ""/static/experiments/dot_pattern_expectancy/images/probe1.png""</img></div></div>","89,71","500","AX","test","2","89","true",""
"-1","-1","poldrack-single-stim","58","151083","0.0-19.0","sub-13-ses-03_1","","500","0","cue","","<div class = centerbox><div class = img-container><img src = ""/static/experiments/dot_pattern_expectancy/images/cue2.png""</img></div></div>","none","500","BY","test","3","","",""
"-1","-1","poldrack-single-stim","59","153102","0.0-20.0","sub-13-ses-03_1","","2000","0","fixation","","<div class = centerbox><div class = fixation>+</div></div>","none","2000","","test","","","",""
"322","71","poldrack-single-stim","60","154881","0.0-21.0","sub-13-ses-03_1","","1772","0","probe","","<div class = centerbox><div class = img-container><img src = ""/static/experiments/dot_pattern_expectancy/images/probe5.png""</img></div></div>","89,71","500","BY","test","3","71","true",""
"-1","-1","poldrack-single-stim","61","155402","0.0-22.0","sub-13-ses-03_1","","500","0","cue","","<div class = centerbox><div class = img-container><img src = ""/static/experiments/dot_pattern_expectancy/images/cue2.png""</img></div></div>","none","500","BX","test","4","","",""
"-1","-1","poldrack-single-stim","62","157412","0.0-23.0","sub-13-ses-03_1","","2000","0","fixation","","<div class = centerbox><div class = fixation>+</div></div>","none","2000","","test","","","",""
"277","71","poldrack-single-stim","63","159070","0.0-24.0","sub-13-ses-03_1","","1636","0","probe","","<div class = centerbox><div class = img-container><img src = ""/static/experiments/dot_pattern_expectancy/images/probe1.png""</img></div></div>","89,71","500","BX","test","4","71","true",""
"-1","-1","poldrack-single-stim","64","159591","0.0-25.0","sub-13-ses-03_1","","500","0","cue","","<div class = centerbox><div class = img-container><img src = ""/static/experiments/dot_pattern_expectancy/images/cue3.png""</img></div></div>","none","500","AX","test","5","","",""
"-1","-1","poldrack-single-stim","65","161612","0.0-26.0","sub-13-ses-03_1","","2000","0","fixation","","<div class = centerbox><div class = fixation>+</div></div>","none","2000","","test","","","",""
"410","89","poldrack-single-stim","66","163272","0.0-27.0","sub-13-ses-03_1","","1636","0","probe","","<div class = centerbox><div class = img-container><img src = ""/static/experiments/dot_pattern_expectancy/images/probe1.png""</img></div></div>","89,71","500","AX","test","5","89","true",""
"-1","-1","poldrack-single-stim","67","163792","0.0-28.0","sub-13-ses-03_1","","500","0","cue","","<div class = centerbox><div class = img-container><img src = ""/static/experiments/dot_pattern_expectancy/images/cue3.png""</img></div></div>","none","500","AX","test","6","","",""
"-1","-1","poldrack-single-stim","68","165813","0.0-29.0","sub-13-ses-03_1","","2000","0","fixation","","<div class = centerbox><div class = fixation>+</div></div>","none","2000","","test","","","",""
"584","89","poldrack-single-stim","69","167332","0.0-30.0","sub-13-ses-03_1","","1500","0","probe","","<div class = centerbox><div class = img-container><img src = ""/static/experiments/dot_pattern_expectancy/images/probe1.png""</img></div></div>","89,71","500","AX","test","6","89","true",""
"-1","-1","poldrack-single-stim","70","167841","0.0-31.0","sub-13-ses-03_1","","500","0","cue","","<div class = centerbox><div class = img-container><img src = ""/static/experiments/dot_pattern_expectancy/images/cue3.png""</img></div></div>","none","500","AX","test","7","","",""
"-1","-1","poldrack-single-stim","71","169850","0.0-32.0","sub-13-ses-03_1","","2000","0","fixation","","<div class = centerbox><div class = fixation>+</div></div>","none","2000","","test","","","",""
"582","89","poldrack-single-stim","72","171371","0.0-33.0","sub-13-ses-03_1","","1500","0","probe","","<div class = centerbox><div class = img-container><img src = ""/static/experiments/dot_pattern_expectancy/images/probe1.png""</img></div></div>","89,71","500","AX","test","7","89","true",""
"-1","-1","poldrack-single-stim","73","171892","0.0-34.0","sub-13-ses-03_1","","500","0","cue","","<div class = centerbox><div class = img-container><img src = ""/static/experiments/dot_pattern_expectancy/images/cue3.png""</img></div></div>","none","500","AY","test","8","","",""
"-1","-1","poldrack-single-stim","74","173901","0.0-35.0","sub-13-ses-03_1","","2000","0","fixation","","<div class = centerbox><div class = fixation>+</div></div>","none","2000","","test","","","",""
"581","71","poldrack-single-stim","75","175961","0.0-36.0","sub-13-ses-03_1","","2044","0","probe","","<div class = centerbox><div class = img-container><img src = ""/static/experiments/dot_pattern_expectancy/images/probe4.png""</img></div></div>","89,71","500","AY","test","8","71","true",""
"-1","-1","poldrack-single-stim","76","176472","0.0-37.0","sub-13-ses-03_1","","500","0","cue","","<div class = centerbox><div class = img-container><img src = ""/static/experiments/dot_pattern_expectancy/images/cue3.png""</img></div></div>","none","500","AX","test","9","","",""
"-1","-1","poldrack-single-stim","77","178492","0.0-38.0","sub-13-ses-03_1","","2000","0","fixation","","<div class = centerbox><div class = fixation>+</div></div>","none","2000","","test","","","",""
"435","89","poldrack-single-stim","78","180961","0.0-39.0","sub-13-ses-03_1","","2452","0","probe","","<div class = centerbox><div class = img-container><img src = ""/static/experiments/dot_pattern_expectancy/images/probe1.png""</img></div></div>","89,71","500","AX","test","9","89","true",""
"-1","-1","poldrack-single-stim","79","181482","0.0-40.0","sub-13-ses-03_1","","500","0","cue","","<div class = centerbox><div class = img-container><img src = ""/static/experiments/dot_pattern_expectancy/images/cue3.png""</img></div></div>","none","500","AX","test","10","","",""
"-1","-1","poldrack-single-stim","80","183491","0.0-41.0","sub-13-ses-03_1","","2000","0","fixation","","<div class = centerbox><div class = fixation>+</div></div>","none","2000","","test","","","",""
"426","89","poldrack-single-stim","81","185412","0.0-42.0","sub-13-ses-03_1","","1908","0","probe","","<div class = centerbox><div class = img-container><img src = ""/static/experiments/dot_pattern_expectancy/images/probe1.png""</img></div></div>","89,71","500","AX","test","10","89","true",""
"-1","-1","poldrack-single-stim","82","185931","0.0-43.0","sub-13-ses-03_1","","500","0","cue","","<div class = centerbox><div class = img-container><img src = ""/static/experiments/dot_pattern_expectancy/images/cue3.png""</img></div></div>","none","500","AX","test","11","","",""
"-1","-1","poldrack-single-stim","83","187952","0.0-44.0","sub-13-ses-03_1","","2000","0","fixation","","<div class = centerbox><div class = fixation>+</div></div>","none","2000","","test","","","",""
"629","89","poldrack-single-stim","84","189470","0.0-45.0","sub-13-ses-03_1","","1500","0","probe","","<div class = centerbox><div class = img-container><img src = ""/static/experiments/dot_pattern_expectancy/images/probe1.png""</img></div></div>","89,71","500","AX","test","11","89","true",""
"-1","-1","poldrack-single-stim","85","190039","0.0-46.0","sub-13-ses-03_1","","500","0","cue","","<div class = centerbox><div class = img-container><img src = ""/static/experiments/dot_pattern_expectancy/images/cue3.png""</img></div></div>","none","500","AX","test","12","","",""
"-1","-1","poldrack-single-stim","86","192052","0.0-47.0","sub-13-ses-03_1","","2000","0","fixation","","<div class = centerbox><div class = fixation>+</div></div>","none","2000","","test","","","",""
"527","89","poldrack-single-stim","87","193970","0.0-48.0","sub-13-ses-03_1","","1908","0","probe","","<div class = centerbox><div class = img-container><img src = ""/static/experiments/dot_pattern_expectancy/images/probe1.png""</img></div></div>","89,71","500","AX","test","12","89","true",""
"-1","-1","poldrack-single-stim","88","194483","0.0-49.0","sub-13-ses-03_1","","500","0","cue","","<div class = centerbox><div class = img-container><img src = ""/static/experiments/dot_pattern_expectancy/images/cue6.png""</img></div></div>","none","500","BX","test","13","","",""
"-1","-1","poldrack-single-stim","89","196501","0.0-50.0","sub-13-ses-03_1","","2000","0","fixation","","<div class = centerbox><div class = fixation>+</div></div>","none","2000","","test","","","",""
"279","71","poldrack-single-stim","90","198691","0.0-51.0","sub-13-ses-03_1","","2180","0","probe","","<div class = centerbox><div class = img-container><img src = ""/static/experiments/dot_pattern_expectancy/images/probe1.png""</img></div></div>","89,71","500","BX","test","13","71","true",""
"-1","-1","poldrack-single-stim","91","199211","0.0-52.0","sub-13-ses-03_1","","500","0","cue","","<div class = centerbox><div class = img-container><img src = ""/static/experiments/dot_pattern_expectancy/images/cue3.png""</img></div></div>","none","500","AX","test","14","","",""
"-1","-1","poldrack-single-stim","92","201232","0.0-53.0","sub-13-ses-03_1","","2000","0","fixation","","<div class = centerbox><div class = fixation>+</div></div>","none","2000","","test","","","",""
"443","89","poldrack-single-stim","93","202752","0.0-54.0","sub-13-ses-03_1","","1500","0","probe","","<div class = centerbox><div class = img-container><img src = ""/static/experiments/dot_pattern_expectancy/images/probe1.png""</img></div></div>","89,71","500","AX","test","14","89","true",""
"-1","-1","poldrack-single-stim","94","203272","0.0-55.0","sub-13-ses-03_1","","500","0","cue","","<div class = centerbox><div class = img-container><img src = ""/static/experiments/dot_pattern_expectancy/images/cue5.png""</img></div></div>","none","500","BY","test","15","","",""
"-1","-1","poldrack-single-stim","95","205291","0.0-56.0","sub-13-ses-03_1","","2000","0","fixation","","<div class = centerbox><div class = fixation>+</div></div>","none","2000","","test","","","",""
"332","71","poldrack-single-stim","96","207223","0.0-57.0","sub-13-ses-03_1","","1908","0","probe","","<div class = centerbox><div class = img-container><img src = ""/static/experiments/dot_pattern_expectancy/images/probe3.png""</img></div></div>","89,71","500","BY","test","15","71","true",""
"-1","-1","poldrack-single-stim","97","207741","0.0-58.0","sub-13-ses-03_1","","500","0","cue","","<div class = centerbox><div class = img-container><img src = ""/static/experiments/dot_pattern_expectancy/images/cue6.png""</img></div></div>","none","500","BX","test","16","","",""
"-1","-1","poldrack-single-stim","98","209760","0.0-59.0","sub-13-ses-03_1","","2000","0","fixation","","<div class = centerbox><div class = fixation>+</div></div>","none","2000","","test","","","",""
"287","71","poldrack-single-stim","99","212081","0.0-60.0","sub-13-ses-03_1","","2316","0","probe","","<div class = centerbox><div class = img-container><img src = ""/static/experiments/dot_pattern_expectancy/images/probe1.png""</img></div></div>","89,71","500","BX","test","16","71","true",""
"-1","-1","poldrack-single-stim","100","212602","0.0-61.0","sub-13-ses-03_1","","500","0","cue","","<div class = centerbox><div class = img-container><img src = ""/static/experiments/dot_pattern_expectancy/images/cue3.png""</img></div></div>","none","500","AY","test","17","","",""
"-1","-1","poldrack-single-stim","101","214622","0.0-62.0","sub-13-ses-03_1","","2000","0","fixation","","<div class = centerbox><div class = fixation>+</div></div>","none","2000","","test","","","",""
"581","71","poldrack-single-stim","102","216960","0.0-63.0","sub-13-ses-03_1","","2316","0","probe","","<div class = centerbox><div class = img-container><img src = ""/static/experiments/dot_pattern_expectancy/images/probe2.png""</img></div></div>","89,71","500","AY","test","17","71","true",""
"-1","-1","poldrack-single-stim","103","217482","0.0-64.0","sub-13-ses-03_1","","500","0","cue","","<div class = centerbox><div class = img-container><img src = ""/static/experiments/dot_pattern_expectancy/images/cue2.png""</img></div></div>","none","500","BX","test","18","","",""
"-1","-1","poldrack-single-stim","104","219492","0.0-65.0","sub-13-ses-03_1","","2000","0","fixation","","<div class = centerbox><div class = fixation>+</div></div>","none","2000","","test","","","",""
"289","71","poldrack-single-stim","105","221131","0.0-66.0","sub-13-ses-03_1","","1636","0","probe","","<div class = centerbox><div class = img-container><img src = ""/static/experiments/dot_pattern_expectancy/images/probe1.png""</img></div></div>","89,71","500","BX","test","18","71","true",""
"-1","-1","poldrack-single-stim","106","221651","0.0-67.0","sub-13-ses-03_1","","500","0","cue","","<div class = centerbox><div class = img-container><img src = ""/static/experiments/dot_pattern_expectancy/images/cue3.png""</img></div></div>","none","500","AY","test","19","","",""
"-1","-1","poldrack-single-stim","107","223672","0.0-68.0","sub-13-ses-03_1","","2000","0","fixation","","<div class = centerbox><div class = fixation>+</div></div>","none","2000","","test","","","",""
"641","71","poldrack-single-stim","108","225191","0.0-69.0","sub-13-ses-03_1","","1500","0","probe","","<div class = centerbox><div class = img-container><img src = ""/static/experiments/dot_pattern_expectancy/images/probe4.png""</img></div></div>","89,71","500","AY","test","19","71","true",""
"-1","-1","poldrack-single-stim","109","225711","0.0-70.0","sub-13-ses-03_1","","500","0","cue","","<div class = centerbox><div class = img-container><img src = ""/static/experiments/dot_pattern_expectancy/images/cue5.png""</img></div></div>","none","500","BY","test","20","","",""
"-1","-1","poldrack-single-stim","110","227732","0.0-71.0","sub-13-ses-03_1","","2000","0","fixation","","<div class = centerbox><div class = fixation>+</div></div>","none","2000","","test","","","",""
"320","71","poldrack-single-stim","111","229651","0.0-72.0","sub-13-ses-03_1","","1908","0","probe","","<div class = centerbox><div class = img-container><img src = ""/static/experiments/dot_pattern_expectancy/images/probe6.png""</img></div></div>","89,71","500","BY","test","20","71","true",""
"-1","-1","poldrack-single-stim","112","230172","0.0-73.0","sub-13-ses-03_1","","500","0","cue","","<div class = centerbox><div class = img-container><img src = ""/static/experiments/dot_pattern_expectancy/images/cue3.png""</img></div></div>","none","500","AX","test","21","","",""
"-1","-1","poldrack-single-stim","113","232192","0.0-74.0","sub-13-ses-03_1","","2000","0","fixation","","<div class = centerbox><div class = fixation>+</div></div>","none","2000","","test","","","",""
"419","89","poldrack-single-stim","114","233701","0.0-75.0","sub-13-ses-03_1","","1500","0","probe","","<div class = centerbox><div class = img-container><img src = ""/static/experiments/dot_pattern_expectancy/images/probe1.png""</img></div></div>","89,71","500","AX","test","21","89","true",""
"-1","-1","poldrack-single-stim","115","234223","0.0-76.0","sub-13-ses-03_1","","500","0","cue","","<div class = centerbox><div class = img-container><img src = ""/static/experiments/dot_pattern_expectancy/images/cue3.png""</img></div></div>","none","500","AY","test","22","","",""
"-1","-1","poldrack-single-stim","116","236242","0.0-77.0","sub-13-ses-03_1","","2000","0","fixation","","<div class = centerbox><div class = fixation>+</div></div>","none","2000","","test","","","",""
"555","71","poldrack-single-stim","117","238571","0.0-78.0","sub-13-ses-03_1","","2316","0","probe","","<div class = centerbox><div class = img-container><img src = ""/static/experiments/dot_pattern_expectancy/images/probe4.png""</img></div></div>","89,71","500","AY","test","22","71","true",""
"-1","-1","poldrack-single-stim","118","239092","0.0-79.0","sub-13-ses-03_1","","500","0","cue","","<div class = centerbox><div class = img-container><img src = ""/static/experiments/dot_pattern_expectancy/images/cue3.png""</img></div></div>","none","500","AX","test","23","","",""
"-1","-1","poldrack-single-stim","119","241103","0.0-80.0","sub-13-ses-03_1","","2000","0","fixation","","<div class = centerbox><div class = fixation>+</div></div>","none","2000","","test","","","",""
"363","89","poldrack-single-stim","120","242620","0.0-81.0","sub-13-ses-03_1","","1500","0","probe","","<div class = centerbox><div class = img-container><img src = ""/static/experiments/dot_pattern_expectancy/images/probe1.png""</img></div></div>","89,71","500","AX","test","23","89","true",""
"-1","-1","poldrack-single-stim","121","243149","0.0-82.0","sub-13-ses-03_1","","500","0","cue","","<div class = centerbox><div class = img-container><img src = ""/static/experiments/dot_pattern_expectancy/images/cue3.png""</img></div></div>","none","500","AY","test","24","","",""
"-1","-1","poldrack-single-stim","122","245163","0.0-83.0","sub-13-ses-03_1","","2000","0","fixation","","<div class = centerbox><div class = fixation>+</div></div>","none","2000","","test","","","",""
"607","71","poldrack-single-stim","123","247890","0.0-84.0","sub-13-ses-03_1","","2724","0","probe","","<div class = centerbox><div class = img-container><img src = ""/static/experiments/dot_pattern_expectancy/images/probe3.png""</img></div></div>","89,71","500","AY","test","24","71","true",""
"-1","-1","poldrack-single-stim","124","248412","0.0-85.0","sub-13-ses-03_1","","500","0","cue","","<div class = centerbox><div class = img-container><img src = ""/static/experiments/dot_pattern_expectancy/images/cue3.png""</img></div></div>","none","500","AX","test","25","","",""
"-1","-1","poldrack-single-stim","125","250431","0.0-86.0","sub-13-ses-03_1","","2000","0","fixation","","<div class = centerbox><div class = fixation>+</div></div>","none","2000","","test","","","",""
"510","89","poldrack-single-stim","126","251942","0.0-87.0","sub-13-ses-03_1","","1500","0","probe","","<div class = centerbox><div class = img-container><img src = ""/static/experiments/dot_pattern_expectancy/images/probe1.png""</img></div></div>","89,71","500","AX","test","25","89","true",""
"-1","-1","poldrack-single-stim","127","252462","0.0-88.0","sub-13-ses-03_1","","500","0","cue","","<div class = centerbox><div class = img-container><img src = ""/static/experiments/dot_pattern_expectancy/images/cue3.png""</img></div></div>","none","500","AX","test","26","","",""
"-1","-1","poldrack-single-stim","128","254472","0.0-89.0","sub-13-ses-03_1","","2000","0","fixation","","<div class = centerbox><div class = fixation>+</div></div>","none","2000","","test","","","",""
"527","89","poldrack-single-stim","129","256120","0.0-90.0","sub-13-ses-03_1","","1636","0","probe","","<div class = centerbox><div class = img-container><img src = ""/static/experiments/dot_pattern_expectancy/images/probe1.png""</img></div></div>","89,71","500","AX","test","26","89","true",""
"-1","-1","poldrack-single-stim","130","256643","0.0-91.0","sub-13-ses-03_1","","500","0","cue","","<div class = centerbox><div class = img-container><img src = ""/static/experiments/dot_pattern_expectancy/images/cue3.png""</img></div></div>","none","500","AX","test","27","","",""
"-1","-1","poldrack-single-stim","131","258662","0.0-92.0","sub-13-ses-03_1","","2000","0","fixation","","<div class = centerbox><div class = fixation>+</div></div>","none","2000","","test","","","",""
"465","89","poldrack-single-stim","132","260321","0.0-93.0","sub-13-ses-03_1","","1636","0","probe","","<div class = centerbox><div class = img-container><img src = ""/static/experiments/dot_pattern_expectancy/images/probe1.png""</img></div></div>","89,71","500","AX","test","27","89","true",""
"-1","-1","poldrack-single-stim","133","260842","0.0-94.0","sub-13-ses-03_1","","500","0","cue","","<div class = centerbox><div class = img-container><img src = ""/static/experiments/dot_pattern_expectancy/images/cue3.png""</img></div></div>","none","500","AX","test","28","","",""
"-1","-1","poldrack-single-stim","134","262861","0.0-95.0","sub-13-ses-03_1","","2000","0","fixation","","<div class = centerbox><div class = fixation>+</div></div>","none","2000","","test","","","",""
"537","89","poldrack-single-stim","135","264641","0.0-96.0","sub-13-ses-03_1","","1772","0","probe","","<div class = centerbox><div class = img-container><img src = ""/static/experiments/dot_pattern_expectancy/images/probe1.png""</img></div></div>","89,71","500","AX","test","28","89","true",""
"-1","-1","poldrack-single-stim","136","265161","0.0-97.0","sub-13-ses-03_1","","500","0","cue","","<div class = centerbox><div class = img-container><img src = ""/static/experiments/dot_pattern_expectancy/images/cue1.png""</img></div></div>","none","500","BY","test","29","","",""
"-1","-1","poldrack-single-stim","137","267182","0.0-98.0","sub-13-ses-03_1","","2000","0","fixation","","<div class = centerbox><div class = fixation>+</div></div>","none","2000","","test","","","",""
"380","71","poldrack-single-stim","138","268961","0.0-99.0","sub-13-ses-03_1","","1772","0","probe","","<div class = centerbox><div class = img-container><img src = ""/static/experiments/dot_pattern_expectancy/images/probe5.png""</img></div></div>","89,71","500","BY","test","29","71","true",""
"-1","-1","poldrack-single-stim","139","269482","0.0-100.0","sub-13-ses-03_1","","500","0","cue","","<div class = centerbox><div class = img-container><img src = ""/static/experiments/dot_pattern_expectancy/images/cue3.png""</img></div></div>","none","500","AX","test","30","","",""
"-1","-1","poldrack-single-stim","140","271502","0.0-101.0","sub-13-ses-03_1","","2000","0","fixation","","<div class = centerbox><div class = fixation>+</div></div>","none","2000","","test","","","",""
"545","89","poldrack-single-stim","141","273021","0.0-102.0","sub-13-ses-03_1","","1500","0","probe","","<div class = centerbox><div class = img-container><img src = ""/static/experiments/dot_pattern_expectancy/images/probe1.png""</img></div></div>","89,71","500","AX","test","30","89","true",""
"-1","-1","poldrack-single-stim","142","273541","0.0-103.0","sub-13-ses-03_1","","500","0","cue","","<div class = centerbox><div class = img-container><img src = ""/static/experiments/dot_pattern_expectancy/images/cue5.png""</img></div></div>","none","500","BY","test","31","","",""
"-1","-1","poldrack-single-stim","143","275560","0.0-104.0","sub-13-ses-03_1","","2000","0","fixation","","<div class = centerbox><div class = fixation>+</div></div>","none","2000","","test","","","",""
"1802","71","poldrack-single-stim","144","278022","0.0-105.0","sub-13-ses-03_1","","2452","0","probe","","<div class = centerbox><div class = img-container><img src = ""/static/experiments/dot_pattern_expectancy/images/probe5.png""</img></div></div>","89,71","500","BY","test","31","71","true",""
"-1","-1","poldrack-single-stim","145","278532","0.0-106.0","sub-13-ses-03_1","","500","0","cue","","<div class = centerbox><div class = img-container><img src = ""/static/experiments/dot_pattern_expectancy/images/cue3.png""</img></div></div>","none","500","AX","test","32","","",""
"-1","-1","poldrack-single-stim","146","280551","0.0-107.0","sub-13-ses-03_1","","2000","0","fixation","","<div class = centerbox><div class = fixation>+</div></div>","none","2000","","test","","","",""
"622","89","poldrack-single-stim","147","282190","0.0-108.0","sub-13-ses-03_1","","1636","0","probe","","<div class = centerbox><div class = img-container><img src = ""/static/experiments/dot_pattern_expectancy/images/probe1.png""</img></div></div>","89,71","500","AX","test","32","89","true",""
"-1","-1","poldrack-single-stim","148","282712","0.0-109.0","sub-13-ses-03_1","","500","0","cue","","<div class = centerbox><div class = img-container><img src = ""/static/experiments/dot_pattern_expectancy/images/cue3.png""</img></div></div>","none","500","AX","test","33","","",""
"-1","-1","poldrack-single-stim","149","284732","0.0-110.0","sub-13-ses-03_1","","2000","0","fixation","","<div class = centerbox><div class = fixation>+</div></div>","none","2000","","test","","","",""
"800","89","poldrack-single-stim","150","286371","0.0-111.0","sub-13-ses-03_1","","1636","0","probe","","<div class = centerbox><div class = img-container><img src = ""/static/experiments/dot_pattern_expectancy/images/probe1.png""</img></div></div>","89,71","500","AX","test","33","89","true",""
"-1","-1","poldrack-single-stim","151","286892","0.0-112.0","sub-13-ses-03_1","","500","0","cue","","<div class = centerbox><div class = img-container><img src = ""/static/experiments/dot_pattern_expectancy/images/cue4.png""</img></div></div>","none","500","BX","test","34","","",""
"-1","-1","poldrack-single-stim","152","288911","0.0-113.0","sub-13-ses-03_1","","2000","0","fixation","","<div class = centerbox><div class = fixation>+</div></div>","none","2000","","test","","","",""
"379","71","poldrack-single-stim","153","290431","0.0-114.0","sub-13-ses-03_1","","1500","0","probe","","<div class = centerbox><div class = img-container><img src = ""/static/experiments/dot_pattern_expectancy/images/probe1.png""</img></div></div>","89,71","500","BX","test","34","71","true",""
"-1","-1","poldrack-single-stim","154","290952","0.0-115.0","sub-13-ses-03_1","","500","0","cue","","<div class = centerbox><div class = img-container><img src = ""/static/experiments/dot_pattern_expectancy/images/cue1.png""</img></div></div>","none","500","BX","test","35","","",""
"-1","-1","poldrack-single-stim","155","292973","0.0-116.0","sub-13-ses-03_1","","2000","0","fixation","","<div class = centerbox><div class = fixation>+</div></div>","none","2000","","test","","","",""
"302","71","poldrack-single-stim","156","294480","0.0-117.0","sub-13-ses-03_1","","1500","0","probe","","<div class = centerbox><div class = img-container><img src = ""/static/experiments/dot_pattern_expectancy/images/probe1.png""</img></div></div>","89,71","500","BX","test","35","71","true",""
"-1","-1","poldrack-single-stim","157","295001","0.0-118.0","sub-13-ses-03_1","","500","0","cue","","<div class = centerbox><div class = img-container><img src = ""/static/experiments/dot_pattern_expectancy/images/cue3.png""</img></div></div>","none","500","AX","test","36","","",""
"-1","-1","poldrack-single-stim","158","297023","0.0-119.0","sub-13-ses-03_1","","2000","0","fixation","","<div class = centerbox><div class = fixation>+</div></div>","none","2000","","test","","","",""
"423","89","poldrack-single-stim","159","299361","0.0-120.0","sub-13-ses-03_1","","2316","0","probe","","<div class = centerbox><div class = img-container><img src = ""/static/experiments/dot_pattern_expectancy/images/probe1.png""</img></div></div>","89,71","500","AX","test","36","89","true",""
"-1","-1","poldrack-single-stim","160","299881","0.0-121.0","sub-13-ses-03_1","","500","0","cue","","<div class = centerbox><div class = img-container><img src = ""/static/experiments/dot_pattern_expectancy/images/cue3.png""</img></div></div>","none","500","AY","test","37","","",""
"-1","-1","poldrack-single-stim","161","301902","0.0-122.0","sub-13-ses-03_1","","2000","0","fixation","","<div class = centerbox><div class = fixation>+</div></div>","none","2000","","test","","","",""
"589","71","poldrack-single-stim","162","303952","0.0-123.0","sub-13-ses-03_1","","2044","0","probe","","<div class = centerbox><div class = img-container><img src = ""/static/experiments/dot_pattern_expectancy/images/probe2.png""</img></div></div>","89,71","500","AY","test","37","71","true",""
"-1","-1","poldrack-single-stim","163","304472","0.0-124.0","sub-13-ses-03_1","","500","0","cue","","<div class = centerbox><div class = img-container><img src = ""/static/experiments/dot_pattern_expectancy/images/cue3.png""</img></div></div>","none","500","AX","test","38","","",""
"-1","-1","poldrack-single-stim","164","306492","0.0-125.0","sub-13-ses-03_1","","2000","0","fixation","","<div class = centerbox><div class = fixation>+</div></div>","none","2000","","test","","","",""
"500","89","poldrack-single-stim","165","310465","0.0-126.0","sub-13-ses-03_1","","3948","0","probe","","<div class = centerbox><div class = img-container><img src = ""/static/experiments/dot_pattern_expectancy/images/probe1.png""</img></div></div>","89,71","500","AX","test","38","89","true",""
"-1","-1","poldrack-single-stim","166","310982","0.0-127.0","sub-13-ses-03_1","","500","0","cue","","<div class = centerbox><div class = img-container><img src = ""/static/experiments/dot_pattern_expectancy/images/cue3.png""</img></div></div>","none","500","AX","test","39","","",""
"-1","-1","poldrack-single-stim","167","313002","0.0-128.0","sub-13-ses-03_1","","2000","0","fixation","","<div class = centerbox><div class = fixation>+</div></div>","none","2000","","test","","","",""
"379","89","poldrack-single-stim","168","314660","0.0-129.0","sub-13-ses-03_1","","1636","0","probe","","<div class = centerbox><div class = img-container><img src = ""/static/experiments/dot_pattern_expectancy/images/probe1.png""</img></div></div>","89,71","500","AX","test","39","89","true",""
"-1","-1","poldrack-single-stim","169","322180","0.0-130.0","sub-13-ses-03_1","","7500","1000","rest_block","","<div class = centerbox><div class = center-text>+</div></div>","none","7500","","","","","",""
"-1","-1","poldrack-single-stim","170","324721","0.0-131.0","sub-13-ses-03_1","","1500","500","test_start_block","","<div class = centerbox><div class = center-text>Preparez-vous!</p></div>","none","1500","","","","","",""
"-1","-1","poldrack-single-stim","171","325763","0.0-132.0","sub-13-ses-03_1","","500","0","cue","","<div class = centerbox><div class = img-container><img src = ""/static/experiments/dot_pattern_expectancy/images/cue3.png""</img></div></div>","none","500","AY","test","0","","",""
"-1","-1","poldrack-single-stim","172","327773","0.0-133.0","sub-13-ses-03_1","","2000","0","fixation","","<div class = centerbox><div class = fixation>+</div></div>","none","2000","","test","","","",""
"1038","71","poldrack-single-stim","173","329431","0.0-134.0","sub-13-ses-03_1","","1636","0","probe","","<div class = centerbox><div class = img-container><img src = ""/static/experiments/dot_pattern_expectancy/images/probe4.png""</img></div></div>","89,71","500","AY","test","0","71","true",""
"-1","-1","poldrack-single-stim","174","329953","0.0-135.0","sub-13-ses-03_1","","500","0","cue","","<div class = centerbox><div class = img-container><img src = ""/static/experiments/dot_pattern_expectancy/images/cue3.png""</img></div></div>","none","500","AX","test","1","","",""
"-1","-1","poldrack-single-stim","175","331972","0.0-136.0","sub-13-ses-03_1","","2000","0","fixation","","<div class = centerbox><div class = fixation>+</div></div>","none","2000","","test","","","",""
"843","89","poldrack-single-stim","176","333630","0.0-137.0","sub-13-ses-03_1","","1636","0","probe","","<div class = centerbox><div class = img-container><img src = ""/static/experiments/dot_pattern_expectancy/images/probe1.png""</img></div></div>","89,71","500","AX","test","1","89","true",""
"-1","-1","poldrack-single-stim","177","334150","0.0-138.0","sub-13-ses-03_1","","500","0","cue","","<div class = centerbox><div class = img-container><img src = ""/static/experiments/dot_pattern_expectancy/images/cue3.png""</img></div></div>","none","500","AX","test","2","","",""
"-1","-1","poldrack-single-stim","178","336172","0.0-139.0","sub-13-ses-03_1","","2000","0","fixation","","<div class = centerbox><div class = fixation>+</div></div>","none","2000","","test","","","",""
"676","89","poldrack-single-stim","179","337691","0.0-140.0","sub-13-ses-03_1","","1500","0","probe","","<div class = centerbox><div class = img-container><img src = ""/static/experiments/dot_pattern_expectancy/images/probe1.png""</img></div></div>","89,71","500","AX","test","2","89","true",""
"-1","-1","poldrack-single-stim","180","338203","0.0-141.0","sub-13-ses-03_1","","500","0","cue","","<div class = centerbox><div class = img-container><img src = ""/static/experiments/dot_pattern_expectancy/images/cue3.png""</img></div></div>","none","500","AX","test","3","","",""
"-1","-1","poldrack-single-stim","181","340211","0.0-142.0","sub-13-ses-03_1","","2000","0","fixation","","<div class = centerbox><div class = fixation>+</div></div>","none","2000","","test","","","",""
"542","89","poldrack-single-stim","182","341721","0.0-143.0","sub-13-ses-03_1","","1500","0","probe","","<div class = centerbox><div class = img-container><img src = ""/static/experiments/dot_pattern_expectancy/images/probe1.png""</img></div></div>","89,71","500","AX","test","3","89","true",""
"-1","-1","poldrack-single-stim","183","342241","0.0-144.0","sub-13-ses-03_1","","500","0","cue","","<div class = centerbox><div class = img-container><img src = ""/static/experiments/dot_pattern_expectancy/images/cue3.png""</img></div></div>","none","500","AX","test","4","","",""
"-1","-1","poldrack-single-stim","184","344260","0.0-145.0","sub-13-ses-03_1","","2000","0","fixation","","<div class = centerbox><div class = fixation>+</div></div>","none","2000","","test","","","",""
"722","89","poldrack-single-stim","185","346170","0.0-146.0","sub-13-ses-03_1","","1908","0","probe","","<div class = centerbox><div class = img-container><img src = ""/static/experiments/dot_pattern_expectancy/images/probe1.png""</img></div></div>","89,71","500","AX","test","4","89","true",""
"-1","-1","poldrack-single-stim","186","346681","0.0-147.0","sub-13-ses-03_1","","500","0","cue","","<div class = centerbox><div class = img-container><img src = ""/static/experiments/dot_pattern_expectancy/images/cue2.png""</img></div></div>","none","500","BX","test","5","","",""
"-1","-1","poldrack-single-stim","187","348704","0.0-148.0","sub-13-ses-03_1","","2000","0","fixation","","<div class = centerbox><div class = fixation>+</div></div>","none","2000","","test","","","",""
"316","71","poldrack-single-stim","188","350360","0.0-149.0","sub-13-ses-03_1","","1636","0","probe","","<div class = centerbox><div class = img-container><img src = ""/static/experiments/dot_pattern_expectancy/images/probe1.png""</img></div></div>","89,71","500","BX","test","5","71","true",""
"-1","-1","poldrack-single-stim","189","350882","0.0-150.0","sub-13-ses-03_1","","500","0","cue","","<div class = centerbox><div class = img-container><img src = ""/static/experiments/dot_pattern_expectancy/images/cue3.png""</img></div></div>","none","500","AX","test","6","","",""
"-1","-1","poldrack-single-stim","190","352902","0.0-151.0","sub-13-ses-03_1","","2000","0","fixation","","<div class = centerbox><div class = fixation>+</div></div>","none","2000","","test","","","",""
"473","89","poldrack-single-stim","191","354960","0.0-152.0","sub-13-ses-03_1","","2044","0","probe","","<div class = centerbox><div class = img-container><img src = ""/static/experiments/dot_pattern_expectancy/images/probe1.png""</img></div></div>","89,71","500","AX","test","6","89","true",""
"-1","-1","poldrack-single-stim","192","355482","0.0-153.0","sub-13-ses-03_1","","500","0","cue","","<div class = centerbox><div class = img-container><img src = ""/static/experiments/dot_pattern_expectancy/images/cue3.png""</img></div></div>","none","500","AX","test","7","","",""
"-1","-1","poldrack-single-stim","193","357491","0.0-154.0","sub-13-ses-03_1","","2000","0","fixation","","<div class = centerbox><div class = fixation>+</div></div>","none","2000","","test","","","",""
"603","89","poldrack-single-stim","194","359271","0.0-155.0","sub-13-ses-03_1","","1772","0","probe","","<div class = centerbox><div class = img-container><img src = ""/static/experiments/dot_pattern_expectancy/images/probe1.png""</img></div></div>","89,71","500","AX","test","7","89","true",""
"-1","-1","poldrack-single-stim","195","359782","0.0-156.0","sub-13-ses-03_1","","500","0","cue","","<div class = centerbox><div class = img-container><img src = ""/static/experiments/dot_pattern_expectancy/images/cue3.png""</img></div></div>","none","500","AX","test","8","","",""
"-1","-1","poldrack-single-stim","196","361813","0.0-157.0","sub-13-ses-03_1","","2000","0","fixation","","<div class = centerbox><div class = fixation>+</div></div>","none","2000","","test","","","",""
"526","89","poldrack-single-stim","197","363329","0.0-158.0","sub-13-ses-03_1","","1500","0","probe","","<div class = centerbox><div class = img-container><img src = ""/static/experiments/dot_pattern_expectancy/images/probe1.png""</img></div></div>","89,71","500","AX","test","8","89","true",""
"-1","-1","poldrack-single-stim","198","363851","0.0-159.0","sub-13-ses-03_1","","500","0","cue","","<div class = centerbox><div class = img-container><img src = ""/static/experiments/dot_pattern_expectancy/images/cue3.png""</img></div></div>","none","500","AX","test","9","","",""
"-1","-1","poldrack-single-stim","199","365871","0.0-160.0","sub-13-ses-03_1","","2000","0","fixation","","<div class = centerbox><div class = fixation>+</div></div>","none","2000","","test","","","",""
"503","89","poldrack-single-stim","200","368070","0.0-161.0","sub-13-ses-03_1","","2180","0","probe","","<div class = centerbox><div class = img-container><img src = ""/static/experiments/dot_pattern_expectancy/images/probe1.png""</img></div></div>","89,71","500","AX","test","9","89","true",""
"-1","-1","poldrack-single-stim","201","368592","0.0-162.0","sub-13-ses-03_1","","500","0","cue","","<div class = centerbox><div class = img-container><img src = ""/static/experiments/dot_pattern_expectancy/images/cue3.png""</img></div></div>","none","500","AX","test","10","","",""
"-1","-1","poldrack-single-stim","202","370601","0.0-163.0","sub-13-ses-03_1","","2000","0","fixation","","<div class = centerbox><div class = fixation>+</div></div>","none","2000","","test","","","",""
"386","89","poldrack-single-stim","203","372112","0.0-164.0","sub-13-ses-03_1","","1500","0","probe","","<div class = centerbox><div class = img-container><img src = ""/static/experiments/dot_pattern_expectancy/images/probe1.png""</img></div></div>","89,71","500","AX","test","10","89","true",""
"-1","-1","poldrack-single-stim","204","372629","0.0-165.0","sub-13-ses-03_1","","500","0","cue","","<div class = centerbox><div class = img-container><img src = ""/static/experiments/dot_pattern_expectancy/images/cue5.png""</img></div></div>","none","500","BX","test","11","","",""
"-1","-1","poldrack-single-stim","205","374651","0.0-166.0","sub-13-ses-03_1","","2000","0","fixation","","<div class = centerbox><div class = fixation>+</div></div>","none","2000","","test","","","",""
"282","71","poldrack-single-stim","206","378349","0.0-167.0","sub-13-ses-03_1","","3676","0","probe","","<div class = centerbox><div class = img-container><img src = ""/static/experiments/dot_pattern_expectancy/images/probe1.png""</img></div></div>","89,71","500","BX","test","11","71","true",""
"-1","-1","poldrack-single-stim","207","378870","0.0-168.0","sub-13-ses-03_1","","500","0","cue","","<div class = centerbox><div class = img-container><img src = ""/static/experiments/dot_pattern_expectancy/images/cue2.png""</img></div></div>","none","500","BY","test","12","","",""
"-1","-1","poldrack-single-stim","208","380892","0.0-169.0","sub-13-ses-03_1","","2000","0","fixation","","<div class = centerbox><div class = fixation>+</div></div>","none","2000","","test","","","",""
"369","71","poldrack-single-stim","209","382532","0.0-170.0","sub-13-ses-03_1","","1636","0","probe","","<div class = centerbox><div class = img-container><img src = ""/static/experiments/dot_pattern_expectancy/images/probe3.png""</img></div></div>","89,71","500","BY","test","12","71","true",""
"-1","-1","poldrack-single-stim","210","383052","0.0-171.0","sub-13-ses-03_1","","500","0","cue","","<div class = centerbox><div class = img-container><img src = ""/static/experiments/dot_pattern_expectancy/images/cue1.png""</img></div></div>","none","500","BY","test","13","","",""
"-1","-1","poldrack-single-stim","211","385072","0.0-172.0","sub-13-ses-03_1","","2000","0","fixation","","<div class = centerbox><div class = fixation>+</div></div>","none","2000","","test","","","",""
"673","71","poldrack-single-stim","212","386710","0.0-173.0","sub-13-ses-03_1","","1636","0","probe","","<div class = centerbox><div class = img-container><img src = ""/static/experiments/dot_pattern_expectancy/images/probe6.png""</img></div></div>","89,71","500","BY","test","13","71","true",""
"-1","-1","poldrack-single-stim","213","387231","0.0-174.0","sub-13-ses-03_1","","500","0","cue","","<div class = centerbox><div class = img-container><img src = ""/static/experiments/dot_pattern_expectancy/images/cue4.png""</img></div></div>","none","500","BX","test","14","","",""
"-1","-1","poldrack-single-stim","214","389252","0.0-175.0","sub-13-ses-03_1","","2000","0","fixation","","<div class = centerbox><div class = fixation>+</div></div>","none","2000","","test","","","",""
"308","71","poldrack-single-stim","215","390771","0.0-176.0","sub-13-ses-03_1","","1500","0","probe","","<div class = centerbox><div class = img-container><img src = ""/static/experiments/dot_pattern_expectancy/images/probe1.png""</img></div></div>","89,71","500","BX","test","14","71","true",""
"-1","-1","poldrack-single-stim","216","391292","0.0-177.0","sub-13-ses-03_1","","500","0","cue","","<div class = centerbox><div class = img-container><img src = ""/static/experiments/dot_pattern_expectancy/images/cue3.png""</img></div></div>","none","500","AX","test","15","","",""
"-1","-1","poldrack-single-stim","217","393310","0.0-178.0","sub-13-ses-03_1","","2000","0","fixation","","<div class = centerbox><div class = fixation>+</div></div>","none","2000","","test","","","",""
"447","89","poldrack-single-stim","218","395230","0.0-179.0","sub-13-ses-03_1","","1908","0","probe","","<div class = centerbox><div class = img-container><img src = ""/static/experiments/dot_pattern_expectancy/images/probe1.png""</img></div></div>","89,71","500","AX","test","15","89","true",""
"-1","-1","poldrack-single-stim","219","395752","0.0-180.0","sub-13-ses-03_1","","500","0","cue","","<div class = centerbox><div class = img-container><img src = ""/static/experiments/dot_pattern_expectancy/images/cue3.png""</img></div></div>","none","500","AX","test","16","","",""
"-1","-1","poldrack-single-stim","220","397772","0.0-181.0","sub-13-ses-03_1","","2000","0","fixation","","<div class = centerbox><div class = fixation>+</div></div>","none","2000","","test","","","",""
"270","89","poldrack-single-stim","221","399411","0.0-182.0","sub-13-ses-03_1","","1636","0","probe","","<div class = centerbox><div class = img-container><img src = ""/static/experiments/dot_pattern_expectancy/images/probe1.png""</img></div></div>","89,71","500","AX","test","16","89","true",""
"-1","-1","poldrack-single-stim","222","399931","0.0-183.0","sub-13-ses-03_1","","500","0","cue","","<div class = centerbox><div class = img-container><img src = ""/static/experiments/dot_pattern_expectancy/images/cue5.png""</img></div></div>","none","500","BX","test","17","","",""
"-1","-1","poldrack-single-stim","223","401952","0.0-184.0","sub-13-ses-03_1","","2000","0","fixation","","<div class = centerbox><div class = fixation>+</div></div>","none","2000","","test","","","",""
"542","71","poldrack-single-stim","224","403471","0.0-185.0","sub-13-ses-03_1","","1500","0","probe","","<div class = centerbox><div class = img-container><img src = ""/static/experiments/dot_pattern_expectancy/images/probe1.png""</img></div></div>","89,71","500","BX","test","17","71","true",""
"-1","-1","poldrack-single-stim","225","403992","0.0-186.0","sub-13-ses-03_1","","500","0","cue","","<div class = centerbox><div class = img-container><img src = ""/static/experiments/dot_pattern_expectancy/images/cue3.png""</img></div></div>","none","500","AX","test","18","","",""
"-1","-1","poldrack-single-stim","226","406012","0.0-187.0","sub-13-ses-03_1","","2000","0","fixation","","<div class = centerbox><div class = fixation>+</div></div>","none","2000","","test","","","",""
"950","71","poldrack-single-stim","227","407930","0.0-188.0","sub-13-ses-03_1","","1908","0","probe","","<div class = centerbox><div class = img-container><img src = ""/static/experiments/dot_pattern_expectancy/images/probe1.png""</img></div></div>","89,71","500","AX","test","18","89","false",""
"-1","-1","poldrack-single-stim","228","408452","0.0-189.0","sub-13-ses-03_1","","500","0","cue","","<div class = centerbox><div class = img-container><img src = ""/static/experiments/dot_pattern_expectancy/images/cue6.png""</img></div></div>","none","500","BY","test","19","","",""
"-1","-1","poldrack-single-stim","229","410472","0.0-190.0","sub-13-ses-03_1","","2000","0","fixation","","<div class = centerbox><div class = fixation>+</div></div>","none","2000","","test","","","",""
"291","71","poldrack-single-stim","230","412671","0.0-191.0","sub-13-ses-03_1","","2180","0","probe","","<div class = centerbox><div class = img-container><img src = ""/static/experiments/dot_pattern_expectancy/images/probe3.png""</img></div></div>","89,71","500","BY","test","19","71","true",""
"-1","-1","poldrack-single-stim","231","413193","0.0-192.0","sub-13-ses-03_1","","500","0","cue","","<div class = centerbox><div class = img-container><img src = ""/static/experiments/dot_pattern_expectancy/images/cue3.png""</img></div></div>","none","500","AX","test","20","","",""
"-1","-1","poldrack-single-stim","232","415212","0.0-193.0","sub-13-ses-03_1","","2000","0","fixation","","<div class = centerbox><div class = fixation>+</div></div>","none","2000","","test","","","",""
"335","89","poldrack-single-stim","233","417002","0.0-194.0","sub-13-ses-03_1","","1772","0","probe","","<div class = centerbox><div class = img-container><img src = ""/static/experiments/dot_pattern_expectancy/images/probe1.png""</img></div></div>","89,71","500","AX","test","20","89","true",""
"-1","-1","poldrack-single-stim","234","417522","0.0-195.0","sub-13-ses-03_1","","500","0","cue","","<div class = centerbox><div class = img-container><img src = ""/static/experiments/dot_pattern_expectancy/images/cue3.png""</img></div></div>","none","500","AX","test","21","","",""
"-1","-1","poldrack-single-stim","235","419540","0.0-196.0","sub-13-ses-03_1","","2000","0","fixation","","<div class = centerbox><div class = fixation>+</div></div>","none","2000","","test","","","",""
"449","89","poldrack-single-stim","236","421062","0.0-197.0","sub-13-ses-03_1","","1500","0","probe","","<div class = centerbox><div class = img-container><img src = ""/static/experiments/dot_pattern_expectancy/images/probe1.png""</img></div></div>","89,71","500","AX","test","21","89","true",""
"-1","-1","poldrack-single-stim","237","421582","0.0-198.0","sub-13-ses-03_1","","500","0","cue","","<div class = centerbox><div class = img-container><img src = ""/static/experiments/dot_pattern_expectancy/images/cue3.png""</img></div></div>","none","500","AX","test","22","","",""
"-1","-1","poldrack-single-stim","238","423591","0.0-199.0","sub-13-ses-03_1","","2000","0","fixation","","<div class = centerbox><div class = fixation>+</div></div>","none","2000","","test","","","",""
"434","89","poldrack-single-stim","239","425112","0.0-200.0","sub-13-ses-03_1","","1500","0","probe","","<div class = centerbox><div class = img-container><img src = ""/static/experiments/dot_pattern_expectancy/images/probe1.png""</img></div></div>","89,71","500","AX","test","22","89","true",""
"-1","-1","poldrack-single-stim","240","425632","0.0-201.0","sub-13-ses-03_1","","500","0","cue","","<div class = centerbox><div class = img-container><img src = ""/static/experiments/dot_pattern_expectancy/images/cue3.png""</img></div></div>","none","500","AX","test","23","","",""
"-1","-1","poldrack-single-stim","241","427642","0.0-202.0","sub-13-ses-03_1","","2000","0","fixation","","<div class = centerbox><div class = fixation>+</div></div>","none","2000","","test","","","",""
"446","89","poldrack-single-stim","242","429702","0.0-203.0","sub-13-ses-03_1","","2044","0","probe","","<div class = centerbox><div class = img-container><img src = ""/static/experiments/dot_pattern_expectancy/images/probe1.png""</img></div></div>","89,71","500","AX","test","23","89","true",""
"-1","-1","poldrack-single-stim","243","430222","0.0-204.0","sub-13-ses-03_1","","500","0","cue","","<div class = centerbox><div class = img-container><img src = ""/static/experiments/dot_pattern_expectancy/images/cue3.png""</img></div></div>","none","500","AX","test","24","","",""
"-1","-1","poldrack-single-stim","244","432239","0.0-205.0","sub-13-ses-03_1","","2000","0","fixation","","<div class = centerbox><div class = fixation>+</div></div>","none","2000","","test","","","",""
"436","89","poldrack-single-stim","245","435120","0.0-206.0","sub-13-ses-03_1","","2860","0","probe","","<div class = centerbox><div class = img-container><img src = ""/static/experiments/dot_pattern_expectancy/images/probe1.png""</img></div></div>","89,71","500","AX","test","24","89","true",""
"-1","-1","poldrack-single-stim","246","435642","0.0-207.0","sub-13-ses-03_1","","500","0","cue","","<div class = centerbox><div class = img-container><img src = ""/static/experiments/dot_pattern_expectancy/images/cue6.png""</img></div></div>","none","500","BX","test","25","","",""
"-1","-1","poldrack-single-stim","247","437652","0.0-208.0","sub-13-ses-03_1","","2000","0","fixation","","<div class = centerbox><div class = fixation>+</div></div>","none","2000","","test","","","",""
"250","71","poldrack-single-stim","248","439172","0.0-209.0","sub-13-ses-03_1","","1500","0","probe","","<div class = centerbox><div class = img-container><img src = ""/static/experiments/dot_pattern_expectancy/images/probe1.png""</img></div></div>","89,71","500","BX","test","25","71","true",""
"-1","-1","poldrack-single-stim","249","439692","0.0-210.0","sub-13-ses-03_1","","500","0","cue","","<div class = centerbox><div class = img-container><img src = ""/static/experiments/dot_pattern_expectancy/images/cue5.png""</img></div></div>","none","500","BY","test","26","","",""
"-1","-1","poldrack-single-stim","250","441713","0.0-211.0","sub-13-ses-03_1","","2000","0","fixation","","<div class = centerbox><div class = fixation>+</div></div>","none","2000","","test","","","",""
"332","71","poldrack-single-stim","251","443511","0.0-212.0","sub-13-ses-03_1","","1772","0","probe","","<div class = centerbox><div class = img-container><img src = ""/static/experiments/dot_pattern_expectancy/images/probe5.png""</img></div></div>","89,71","500","BY","test","26","71","true",""
"-1","-1","poldrack-single-stim","252","444033","0.0-213.0","sub-13-ses-03_1","","500","0","cue","","<div class = centerbox><div class = img-container><img src = ""/static/experiments/dot_pattern_expectancy/images/cue3.png""</img></div></div>","none","500","AX","test","27","","",""
"-1","-1","poldrack-single-stim","253","446042","0.0-214.0","sub-13-ses-03_1","","2000","0","fixation","","<div class = centerbox><div class = fixation>+</div></div>","none","2000","","test","","","",""
"384","89","poldrack-single-stim","254","447820","0.0-215.0","sub-13-ses-03_1","","1772","0","probe","","<div class = centerbox><div class = img-container><img src = ""/static/experiments/dot_pattern_expectancy/images/probe1.png""</img></div></div>","89,71","500","AX","test","27","89","true",""
"-1","-1","poldrack-single-stim","255","448341","0.0-216.0","sub-13-ses-03_1","","500","0","cue","","<div class = centerbox><div class = img-container><img src = ""/static/experiments/dot_pattern_expectancy/images/cue3.png""</img></div></div>","none","500","AX","test","28","","",""
"-1","-1","poldrack-single-stim","256","450350","0.0-217.0","sub-13-ses-03_1","","2000","0","fixation","","<div class = centerbox><div class = fixation>+</div></div>","none","2000","","test","","","",""
"671","89","poldrack-single-stim","257","453232","0.0-218.0","sub-13-ses-03_1","","2860","0","probe","","<div class = centerbox><div class = img-container><img src = ""/static/experiments/dot_pattern_expectancy/images/probe1.png""</img></div></div>","89,71","500","AX","test","28","89","true",""
"-1","-1","poldrack-single-stim","258","453753","0.0-219.0","sub-13-ses-03_1","","500","0","cue","","<div class = centerbox><div class = img-container><img src = ""/static/experiments/dot_pattern_expectancy/images/cue3.png""</img></div></div>","none","500","AX","test","29","","",""
"-1","-1","poldrack-single-stim","259","455770","0.0-220.0","sub-13-ses-03_1","","2000","0","fixation","","<div class = centerbox><div class = fixation>+</div></div>","none","2000","","test","","","",""
"772","89","poldrack-single-stim","260","457552","0.0-221.0","sub-13-ses-03_1","","1772","0","probe","","<div class = centerbox><div class = img-container><img src = ""/static/experiments/dot_pattern_expectancy/images/probe1.png""</img></div></div>","89,71","500","AX","test","29","89","true",""
"-1","-1","poldrack-single-stim","261","458059","0.0-222.0","sub-13-ses-03_1","","500","0","cue","","<div class = centerbox><div class = img-container><img src = ""/static/experiments/dot_pattern_expectancy/images/cue5.png""</img></div></div>","none","500","BX","test","30","","",""
"-1","-1","poldrack-single-stim","262","460081","0.0-223.0","sub-13-ses-03_1","","2000","0","fixation","","<div class = centerbox><div class = fixation>+</div></div>","none","2000","","test","","","",""
"597","71","poldrack-single-stim","263","461721","0.0-224.0","sub-13-ses-03_1","","1636","0","probe","","<div class = centerbox><div class = img-container><img src = ""/static/experiments/dot_pattern_expectancy/images/probe1.png""</img></div></div>","89,71","500","BX","test","30","71","true",""
"-1","-1","poldrack-single-stim","264","462241","0.0-225.0","sub-13-ses-03_1","","500","0","cue","","<div class = centerbox><div class = img-container><img src = ""/static/experiments/dot_pattern_expectancy/images/cue5.png""</img></div></div>","none","500","BX","test","31","","",""
"-1","-1","poldrack-single-stim","265","464253","0.0-226.0","sub-13-ses-03_1","","2000","0","fixation","","<div class = centerbox><div class = fixation>+</div></div>","none","2000","","test","","","",""
"272","71","poldrack-single-stim","266","466712","0.0-227.0","sub-13-ses-03_1","","2452","0","probe","","<div class = centerbox><div class = img-container><img src = ""/static/experiments/dot_pattern_expectancy/images/probe1.png""</img></div></div>","89,71","500","BX","test","31","71","true",""
"-1","-1","poldrack-single-stim","267","467232","0.0-228.0","sub-13-ses-03_1","","500","0","cue","","<div class = centerbox><div class = img-container><img src = ""/static/experiments/dot_pattern_expectancy/images/cue3.png""</img></div></div>","none","500","AX","test","32","","",""
"-1","-1","poldrack-single-stim","268","469251","0.0-229.0","sub-13-ses-03_1","","2000","0","fixation","","<div class = centerbox><div class = fixation>+</div></div>","none","2000","","test","","","",""
"432","89","poldrack-single-stim","269","470891","0.0-230.0","sub-13-ses-03_1","","1636","0","probe","","<div class = centerbox><div class = img-container><img src = ""/static/experiments/dot_pattern_expectancy/images/probe1.png""</img></div></div>","89,71","500","AX","test","32","89","true",""
"-1","-1","poldrack-single-stim","270","471412","0.0-231.0","sub-13-ses-03_1","","500","0","cue","","<div class = centerbox><div class = img-container><img src = ""/static/experiments/dot_pattern_expectancy/images/cue6.png""</img></div></div>","none","500","BX","test","33","","",""
"-1","-1","poldrack-single-stim","271","473431","0.0-232.0","sub-13-ses-03_1","","2000","0","fixation","","<div class = centerbox><div class = fixation>+</div></div>","none","2000","","test","","","",""
"369","71","poldrack-single-stim","272","474951","0.0-233.0","sub-13-ses-03_1","","1500","0","probe","","<div class = centerbox><div class = img-container><img src = ""/static/experiments/dot_pattern_expectancy/images/probe1.png""</img></div></div>","89,71","500","BX","test","33","71","true",""
"-1","-1","poldrack-single-stim","273","475472","0.0-234.0","sub-13-ses-03_1","","500","0","cue","","<div class = centerbox><div class = img-container><img src = ""/static/experiments/dot_pattern_expectancy/images/cue3.png""</img></div></div>","none","500","AX","test","34","","",""
"-1","-1","poldrack-single-stim","274","477491","0.0-235.0","sub-13-ses-03_1","","2000","0","fixation","","<div class = centerbox><div class = fixation>+</div></div>","none","2000","","test","","","",""
"429","89","poldrack-single-stim","275","479131","0.0-236.0","sub-13-ses-03_1","","1636","0","probe","","<div class = centerbox><div class = img-container><img src = ""/static/experiments/dot_pattern_expectancy/images/probe1.png""</img></div></div>","89,71","500","AX","test","34","89","true",""
"-1","-1","poldrack-single-stim","276","479651","0.0-237.0","sub-13-ses-03_1","","500","0","cue","","<div class = centerbox><div class = img-container><img src = ""/static/experiments/dot_pattern_expectancy/images/cue3.png""</img></div></div>","none","500","AX","test","35","","",""
"-1","-1","poldrack-single-stim","277","481667","0.0-238.0","sub-13-ses-03_1","","2000","0","fixation","","<div class = centerbox><div class = fixation>+</div></div>","none","2000","","test","","","",""
"386","89","poldrack-single-stim","278","483320","0.0-239.0","sub-13-ses-03_1","","1636","0","probe","","<div class = centerbox><div class = img-container><img src = ""/static/experiments/dot_pattern_expectancy/images/probe1.png""</img></div></div>","89,71","500","AX","test","35","89","true",""
"-1","-1","poldrack-single-stim","279","483841","0.0-240.0","sub-13-ses-03_1","","500","0","cue","","<div class = centerbox><div class = img-container><img src = ""/static/experiments/dot_pattern_expectancy/images/cue4.png""</img></div></div>","none","500","BY","test","36","","",""
"-1","-1","poldrack-single-stim","280","485861","0.0-241.0","sub-13-ses-03_1","","2000","0","fixation","","<div class = centerbox><div class = fixation>+</div></div>","none","2000","","test","","","",""
"265","71","poldrack-single-stim","281","488050","0.0-242.0","sub-13-ses-03_1","","2180","0","probe","","<div class = centerbox><div class = img-container><img src = ""/static/experiments/dot_pattern_expectancy/images/probe3.png""</img></div></div>","89,71","500","BY","test","36","71","true",""
"-1","-1","poldrack-single-stim","282","488562","0.0-243.0","sub-13-ses-03_1","","500","0","cue","","<div class = centerbox><div class = img-container><img src = ""/static/experiments/dot_pattern_expectancy/images/cue3.png""</img></div></div>","none","500","AX","test","37","","",""
"-1","-1","poldrack-single-stim","283","490581","0.0-244.0","sub-13-ses-03_1","","2000","0","fixation","","<div class = centerbox><div class = fixation>+</div></div>","none","2000","","test","","","",""
"489","89","poldrack-single-stim","284","492099","0.0-245.0","sub-13-ses-03_1","","1500","0","probe","","<div class = centerbox><div class = img-container><img src = ""/static/experiments/dot_pattern_expectancy/images/probe1.png""</img></div></div>","89,71","500","AX","test","37","89","true",""
"-1","-1","poldrack-single-stim","285","492621","0.0-246.0","sub-13-ses-03_1","","500","0","cue","","<div class = centerbox><div class = img-container><img src = ""/static/experiments/dot_pattern_expectancy/images/cue3.png""</img></div></div>","none","500","AY","test","38","","",""
"-1","-1","poldrack-single-stim","286","494643","0.0-247.0","sub-13-ses-03_1","","2000","0","fixation","","<div class = centerbox><div class = fixation>+</div></div>","none","2000","","test","","","",""
"504","71","poldrack-single-stim","287","496301","0.0-248.0","sub-13-ses-03_1","","1636","0","probe","","<div class = centerbox><div class = img-container><img src = ""/static/experiments/dot_pattern_expectancy/images/probe6.png""</img></div></div>","89,71","500","AY","test","38","71","true",""
"-1","-1","poldrack-single-stim","288","496812","0.0-249.0","sub-13-ses-03_1","","500","0","cue","","<div class = centerbox><div class = img-container><img src = ""/static/experiments/dot_pattern_expectancy/images/cue3.png""</img></div></div>","none","500","AX","test","39","","",""
"-1","-1","poldrack-single-stim","289","498832","0.0-250.0","sub-13-ses-03_1","","2000","0","fixation","","<div class = centerbox><div class = fixation>+</div></div>","none","2000","","test","","","",""
"647","89","poldrack-single-stim","290","500470","0.0-251.0","sub-13-ses-03_1","","1636","0","probe","","<div class = centerbox><div class = img-container><img src = ""/static/experiments/dot_pattern_expectancy/images/probe1.png""</img></div></div>","89,71","500","AX","test","39","89","true",""
"-1","-1","poldrack-single-stim","291","507980","0.0-252.0","sub-13-ses-03_1","","7500","1000","rest_block","","<div class = centerbox><div class = center-text>+</div></div>","none","7500","","","","","",""
"-1","-1","poldrack-single-stim","292","510522","0.0-253.0","sub-13-ses-03_1","","1500","500","test_start_block","","<div class = centerbox><div class = center-text>Preparez-vous!</p></div>","none","1500","","","","","",""
"-1","-1","poldrack-single-stim","293","511551","0.0-254.0","sub-13-ses-03_1","","500","0","cue","","<div class = centerbox><div class = img-container><img src = ""/static/experiments/dot_pattern_expectancy/images/cue3.png""</img></div></div>","none","500","AX","test","0","","",""
"-1","-1","poldrack-single-stim","294","513561","0.0-255.0","sub-13-ses-03_1","","2000","0","fixation","","<div class = centerbox><div class = fixation>+</div></div>","none","2000","","test","","","",""
"653","89","poldrack-single-stim","295","515752","0.0-256.0","sub-13-ses-03_1","","2180","0","probe","","<div class = centerbox><div class = img-container><img src = ""/static/experiments/dot_pattern_expectancy/images/probe1.png""</img></div></div>","89,71","500","AX","test","0","89","true",""
"-1","-1","poldrack-single-stim","296","516272","0.0-257.0","sub-13-ses-03_1","","500","0","cue","","<div class = centerbox><div class = img-container><img src = ""/static/experiments/dot_pattern_expectancy/images/cue3.png""</img></div></div>","none","500","AY","test","1","","",""
"-1","-1","poldrack-single-stim","297","518291","0.0-258.0","sub-13-ses-03_1","","2000","0","fixation","","<div class = centerbox><div class = fixation>+</div></div>","none","2000","","test","","","",""
"656","71","poldrack-single-stim","298","520611","0.0-259.0","sub-13-ses-03_1","","2316","0","probe","","<div class = centerbox><div class = img-container><img src = ""/static/experiments/dot_pattern_expectancy/images/probe6.png""</img></div></div>","89,71","500","AY","test","1","71","true",""
"-1","-1","poldrack-single-stim","299","521131","0.0-260.0","sub-13-ses-03_1","","500","0","cue","","<div class = centerbox><div class = img-container><img src = ""/static/experiments/dot_pattern_expectancy/images/cue3.png""</img></div></div>","none","500","AY","test","2","","",""
"-1","-1","poldrack-single-stim","300","523142","0.0-261.0","sub-13-ses-03_1","","2000","0","fixation","","<div class = centerbox><div class = fixation>+</div></div>","none","2000","","test","","","",""
"450","71","poldrack-single-stim","301","524801","0.0-262.0","sub-13-ses-03_1","","1636","0","probe","","<div class = centerbox><div class = img-container><img src = ""/static/experiments/dot_pattern_expectancy/images/probe4.png""</img></div></div>","89,71","500","AY","test","2","71","true",""
"-1","-1","poldrack-single-stim","302","525319","0.0-263.0","sub-13-ses-03_1","","500","0","cue","","<div class = centerbox><div class = img-container><img src = ""/static/experiments/dot_pattern_expectancy/images/cue5.png""</img></div></div>","none","500","BX","test","3","","",""
"-1","-1","poldrack-single-stim","303","527341","0.0-264.0","sub-13-ses-03_1","","2000","0","fixation","","<div class = centerbox><div class = fixation>+</div></div>","none","2000","","test","","","",""
"230","71","poldrack-single-stim","304","529260","0.0-265.0","sub-13-ses-03_1","","1908","0","probe","","<div class = centerbox><div class = img-container><img src = ""/static/experiments/dot_pattern_expectancy/images/probe1.png""</img></div></div>","89,71","500","BX","test","3","71","true",""
"-1","-1","poldrack-single-stim","305","529782","0.0-266.0","sub-13-ses-03_1","","500","0","cue","","<div class = centerbox><div class = img-container><img src = ""/static/experiments/dot_pattern_expectancy/images/cue3.png""</img></div></div>","none","500","AX","test","4","","",""
"-1","-1","poldrack-single-stim","306","531801","0.0-267.0","sub-13-ses-03_1","","2000","0","fixation","","<div class = centerbox><div class = fixation>+</div></div>","none","2000","","test","","","",""
"470","89","poldrack-single-stim","307","535361","0.0-268.0","sub-13-ses-03_1","","3540","0","probe","","<div class = centerbox><div class = img-container><img src = ""/static/experiments/dot_pattern_expectancy/images/probe1.png""</img></div></div>","89,71","500","AX","test","4","89","true",""
"-1","-1","poldrack-single-stim","308","535882","0.0-269.0","sub-13-ses-03_1","","500","0","cue","","<div class = centerbox><div class = img-container><img src = ""/static/experiments/dot_pattern_expectancy/images/cue1.png""</img></div></div>","none","500","BX","test","5","","",""
"-1","-1","poldrack-single-stim","309","537891","0.0-270.0","sub-13-ses-03_1","","2000","0","fixation","","<div class = centerbox><div class = fixation>+</div></div>","none","2000","","test","","","",""
"411","71","poldrack-single-stim","310","539531","0.0-271.0","sub-13-ses-03_1","","1636","0","probe","","<div class = centerbox><div class = img-container><img src = ""/static/experiments/dot_pattern_expectancy/images/probe1.png""</img></div></div>","89,71","500","BX","test","5","71","true",""
"-1","-1","poldrack-single-stim","311","540051","0.0-272.0","sub-13-ses-03_1","","500","0","cue","","<div class = centerbox><div class = img-container><img src = ""/static/experiments/dot_pattern_expectancy/images/cue6.png""</img></div></div>","none","500","BY","test","6","","",""
"-1","-1","poldrack-single-stim","312","542072","0.0-273.0","sub-13-ses-03_1","","2000","0","fixation","","<div class = centerbox><div class = fixation>+</div></div>","none","2000","","test","","","",""
"-1","-1","poldrack-single-stim","313","543591","0.0-274.0","sub-13-ses-03_1","","1500","0","probe","","<div class = centerbox><div class = img-container><img src = ""/static/experiments/dot_pattern_expectancy/images/probe2.png""</img></div></div>","89,71","500","BY","test","6","71","false",""
"-1","-1","poldrack-single-stim","314","544112","0.0-275.0","sub-13-ses-03_1","","500","0","cue","","<div class = centerbox><div class = img-container><img src = ""/static/experiments/dot_pattern_expectancy/images/cue3.png""</img></div></div>","none","500","AX","test","7","","",""
"-1","-1","poldrack-single-stim","315","546121","0.0-276.0","sub-13-ses-03_1","","2000","0","fixation","","<div class = centerbox><div class = fixation>+</div></div>","none","2000","","test","","","",""
"515","89","poldrack-single-stim","316","547641","0.0-277.0","sub-13-ses-03_1","","1500","0","probe","","<div class = centerbox><div class = img-container><img src = ""/static/experiments/dot_pattern_expectancy/images/probe1.png""</img></div></div>","89,71","500","AX","test","7","89","true",""
"-1","-1","poldrack-single-stim","317","548161","0.0-278.0","sub-13-ses-03_1","","500","0","cue","","<div class = centerbox><div class = img-container><img src = ""/static/experiments/dot_pattern_expectancy/images/cue3.png""</img></div></div>","none","500","AX","test","8","","",""
"-1","-1","poldrack-single-stim","318","550171","0.0-279.0","sub-13-ses-03_1","","2000","0","fixation","","<div class = centerbox><div class = fixation>+</div></div>","none","2000","","test","","","",""
"510","89","poldrack-single-stim","319","551961","0.0-280.0","sub-13-ses-03_1","","1772","0","probe","","<div class = centerbox><div class = img-container><img src = ""/static/experiments/dot_pattern_expectancy/images/probe1.png""</img></div></div>","89,71","500","AX","test","8","89","true",""
"-1","-1","poldrack-single-stim","320","552482","0.0-281.0","sub-13-ses-03_1","","500","0","cue","","<div class = centerbox><div class = img-container><img src = ""/static/experiments/dot_pattern_expectancy/images/cue4.png""</img></div></div>","none","500","BY","test","9","","",""
"-1","-1","poldrack-single-stim","321","554503","0.0-282.0","sub-13-ses-03_1","","2000","0","fixation","","<div class = centerbox><div class = fixation>+</div></div>","none","2000","","test","","","",""
"306","71","poldrack-single-stim","322","556960","0.0-283.0","sub-13-ses-03_1","","2452","0","probe","","<div class = centerbox><div class = img-container><img src = ""/static/experiments/dot_pattern_expectancy/images/probe4.png""</img></div></div>","89,71","500","BY","test","9","71","true",""
"-1","-1","poldrack-single-stim","323","557482","0.0-284.0","sub-13-ses-03_1","","500","0","cue","","<div class = centerbox><div class = img-container><img src = ""/static/experiments/dot_pattern_expectancy/images/cue3.png""</img></div></div>","none","500","AX","test","10","","",""
"-1","-1","poldrack-single-stim","324","559502","0.0-285.0","sub-13-ses-03_1","","2000","0","fixation","","<div class = centerbox><div class = fixation>+</div></div>","none","2000","","test","","","",""
"565","89","poldrack-single-stim","325","561420","0.0-286.0","sub-13-ses-03_1","","1908","0","probe","","<div class = centerbox><div class = img-container><img src = ""/static/experiments/dot_pattern_expectancy/images/probe1.png""</img></div></div>","89,71","500","AX","test","10","89","true",""
"-1","-1","poldrack-single-stim","326","561943","0.0-287.0","sub-13-ses-03_1","","500","0","cue","","<div class = centerbox><div class = img-container><img src = ""/static/experiments/dot_pattern_expectancy/images/cue2.png""</img></div></div>","none","500","BX","test","11","","",""
"-1","-1","poldrack-single-stim","327","563949","0.0-288.0","sub-13-ses-03_1","","2000","0","fixation","","<div class = centerbox><div class = fixation>+</div></div>","none","2000","","test","","","",""
"318","71","poldrack-single-stim","328","565591","0.0-289.0","sub-13-ses-03_1","","1636","0","probe","","<div class = centerbox><div class = img-container><img src = ""/static/experiments/dot_pattern_expectancy/images/probe1.png""</img></div></div>","89,71","500","BX","test","11","71","true",""
"-1","-1","poldrack-single-stim","329","566112","0.0-290.0","sub-13-ses-03_1","","500","0","cue","","<div class = centerbox><div class = img-container><img src = ""/static/experiments/dot_pattern_expectancy/images/cue3.png""</img></div></div>","none","500","AX","test","12","","",""
"-1","-1","poldrack-single-stim","330","568132","0.0-291.0","sub-13-ses-03_1","","2000","0","fixation","","<div class = centerbox><div class = fixation>+</div></div>","none","2000","","test","","","",""
"410","89","poldrack-single-stim","331","569641","0.0-292.0","sub-13-ses-03_1","","1500","0","probe","","<div class = centerbox><div class = img-container><img src = ""/static/experiments/dot_pattern_expectancy/images/probe1.png""</img></div></div>","89,71","500","AX","test","12","89","true",""
"-1","-1","poldrack-single-stim","332","570161","0.0-293.0","sub-13-ses-03_1","","500","0","cue","","<div class = centerbox><div class = img-container><img src = ""/static/experiments/dot_pattern_expectancy/images/cue3.png""</img></div></div>","none","500","AX","test","13","","",""
"-1","-1","poldrack-single-stim","333","572182","0.0-294.0","sub-13-ses-03_1","","2000","0","fixation","","<div class = centerbox><div class = fixation>+</div></div>","none","2000","","test","","","",""
"437","89","poldrack-single-stim","334","573840","0.0-295.0","sub-13-ses-03_1","","1636","0","probe","","<div class = centerbox><div class = img-container><img src = ""/static/experiments/dot_pattern_expectancy/images/probe1.png""</img></div></div>","89,71","500","AX","test","13","89","true",""
"-1","-1","poldrack-single-stim","335","574362","0.0-296.0","sub-13-ses-03_1","","500","0","cue","","<div class = centerbox><div class = img-container><img src = ""/static/experiments/dot_pattern_expectancy/images/cue3.png""</img></div></div>","none","500","AX","test","14","","",""
"-1","-1","poldrack-single-stim","336","576386","0.0-297.0","sub-13-ses-03_1","","2000","0","fixation","","<div class = centerbox><div class = fixation>+</div></div>","none","2000","","test","","","",""
"535","89","poldrack-single-stim","337","578041","0.0-298.0","sub-13-ses-03_1","","1636","0","probe","","<div class = centerbox><div class = img-container><img src = ""/static/experiments/dot_pattern_expectancy/images/probe1.png""</img></div></div>","89,71","500","AX","test","14","89","true",""
"-1","-1","poldrack-single-stim","338","578561","0.0-299.0","sub-13-ses-03_1","","500","0","cue","","<div class = centerbox><div class = img-container><img src = ""/static/experiments/dot_pattern_expectancy/images/cue2.png""</img></div></div>","none","500","BY","test","15","","",""
"-1","-1","poldrack-single-stim","339","580573","0.0-300.0","sub-13-ses-03_1","","2000","0","fixation","","<div class = centerbox><div class = fixation>+</div></div>","none","2000","","test","","","",""
"632","71","poldrack-single-stim","340","583040","0.0-301.0","sub-13-ses-03_1","","2452","0","probe","","<div class = centerbox><div class = img-container><img src = ""/static/experiments/dot_pattern_expectancy/images/probe5.png""</img></div></div>","89,71","500","BY","test","15","71","true",""
"-1","-1","poldrack-single-stim","341","583562","0.0-302.0","sub-13-ses-03_1","","500","0","cue","","<div class = centerbox><div class = img-container><img src = ""/static/experiments/dot_pattern_expectancy/images/cue3.png""</img></div></div>","none","500","AX","test","16","","",""
"-1","-1","poldrack-single-stim","342","585581","0.0-303.0","sub-13-ses-03_1","","2000","0","fixation","","<div class = centerbox><div class = fixation>+</div></div>","none","2000","","test","","","",""
"588","89","poldrack-single-stim","343","587100","0.0-304.0","sub-13-ses-03_1","","1500","0","probe","","<div class = centerbox><div class = img-container><img src = ""/static/experiments/dot_pattern_expectancy/images/probe1.png""</img></div></div>","89,71","500","AX","test","16","89","true",""
"-1","-1","poldrack-single-stim","344","587620","0.0-305.0","sub-13-ses-03_1","","500","0","cue","","<div class = centerbox><div class = img-container><img src = ""/static/experiments/dot_pattern_expectancy/images/cue1.png""</img></div></div>","none","500","BY","test","17","","",""
"-1","-1","poldrack-single-stim","345","589642","0.0-306.0","sub-13-ses-03_1","","2000","0","fixation","","<div class = centerbox><div class = fixation>+</div></div>","none","2000","","test","","","",""
"461","71","poldrack-single-stim","346","591162","0.0-307.0","sub-13-ses-03_1","","1500","0","probe","","<div class = centerbox><div class = img-container><img src = ""/static/experiments/dot_pattern_expectancy/images/probe3.png""</img></div></div>","89,71","500","BY","test","17","71","true",""
"-1","-1","poldrack-single-stim","347","591682","0.0-308.0","sub-13-ses-03_1","","500","0","cue","","<div class = centerbox><div class = img-container><img src = ""/static/experiments/dot_pattern_expectancy/images/cue3.png""</img></div></div>","none","500","AX","test","18","","",""
"-1","-1","poldrack-single-stim","348","593703","0.0-309.0","sub-13-ses-03_1","","2000","0","fixation","","<div class = centerbox><div class = fixation>+</div></div>","none","2000","","test","","","",""
"499","89","poldrack-single-stim","349","595341","0.0-310.0","sub-13-ses-03_1","","1636","0","probe","","<div class = centerbox><div class = img-container><img src = ""/static/experiments/dot_pattern_expectancy/images/probe1.png""</img></div></div>","89,71","500","AX","test","18","89","true",""
"-1","-1","poldrack-single-stim","350","595861","0.0-311.0","sub-13-ses-03_1","","500","0","cue","","<div class = centerbox><div class = img-container><img src = ""/static/experiments/dot_pattern_expectancy/images/cue3.png""</img></div></div>","none","500","AX","test","19","","",""
"-1","-1","poldrack-single-stim","351","597882","0.0-312.0","sub-13-ses-03_1","","2000","0","fixation","","<div class = centerbox><div class = fixation>+</div></div>","none","2000","","test","","","",""
"661","89","poldrack-single-stim","352","599532","0.0-313.0","sub-13-ses-03_1","","1636","0","probe","","<div class = centerbox><div class = img-container><img src = ""/static/experiments/dot_pattern_expectancy/images/probe1.png""</img></div></div>","89,71","500","AX","test","19","89","true",""
"-1","-1","poldrack-single-stim","353","600052","0.0-314.0","sub-13-ses-03_1","","500","0","cue","","<div class = centerbox><div class = img-container><img src = ""/static/experiments/dot_pattern_expectancy/images/cue3.png""</img></div></div>","none","500","AY","test","20","","",""
"-1","-1","poldrack-single-stim","354","602072","0.0-315.0","sub-13-ses-03_1","","2000","0","fixation","","<div class = centerbox><div class = fixation>+</div></div>","none","2000","","test","","","",""
"551","71","poldrack-single-stim","355","603731","0.0-316.0","sub-13-ses-03_1","","1636","0","probe","","<div class = centerbox><div class = img-container><img src = ""/static/experiments/dot_pattern_expectancy/images/probe6.png""</img></div></div>","89,71","500","AY","test","20","71","true",""
"-1","-1","poldrack-single-stim","356","604251","0.0-317.0","sub-13-ses-03_1","","500","0","cue","","<div class = centerbox><div class = img-container><img src = ""/static/experiments/dot_pattern_expectancy/images/cue3.png""</img></div></div>","none","500","AX","test","21","","",""
"-1","-1","poldrack-single-stim","357","606271","0.0-318.0","sub-13-ses-03_1","","2000","0","fixation","","<div class = centerbox><div class = fixation>+</div></div>","none","2000","","test","","","",""
"467","89","poldrack-single-stim","358","607790","0.0-319.0","sub-13-ses-03_1","","1500","0","probe","","<div class = centerbox><div class = img-container><img src = ""/static/experiments/dot_pattern_expectancy/images/probe1.png""</img></div></div>","89,71","500","AX","test","21","89","true",""
"-1","-1","poldrack-single-stim","359","608310","0.0-320.0","sub-13-ses-03_1","","500","0","cue","","<div class = centerbox><div class = img-container><img src = ""/static/experiments/dot_pattern_expectancy/images/cue3.png""</img></div></div>","none","500","AX","test","22","","",""
"-1","-1","poldrack-single-stim","360","610330","0.0-321.0","sub-13-ses-03_1","","2000","0","fixation","","<div class = centerbox><div class = fixation>+</div></div>","none","2000","","test","","","",""
"339","89","poldrack-single-stim","361","611850","0.0-322.0","sub-13-ses-03_1","","1500","0","probe","","<div class = centerbox><div class = img-container><img src = ""/static/experiments/dot_pattern_expectancy/images/probe1.png""</img></div></div>","89,71","500","AX","test","22","89","true",""
"-1","-1","poldrack-single-stim","362","612370","0.0-323.0","sub-13-ses-03_1","","500","0","cue","","<div class = centerbox><div class = img-container><img src = ""/static/experiments/dot_pattern_expectancy/images/cue3.png""</img></div></div>","none","500","AX","test","23","","",""
"-1","-1","poldrack-single-stim","363","614390","0.0-324.0","sub-13-ses-03_1","","2000","0","fixation","","<div class = centerbox><div class = fixation>+</div></div>","none","2000","","test","","","",""
"437","89","poldrack-single-stim","364","616170","0.0-325.0","sub-13-ses-03_1","","1772","0","probe","","<div class = centerbox><div class = img-container><img src = ""/static/experiments/dot_pattern_expectancy/images/probe1.png""</img></div></div>","89,71","500","AX","test","23","89","true",""
"-1","-1","poldrack-single-stim","365","616690","0.0-326.0","sub-13-ses-03_1","","500","0","cue","","<div class = centerbox><div class = img-container><img src = ""/static/experiments/dot_pattern_expectancy/images/cue3.png""</img></div></div>","none","500","AX","test","24","","",""
"-1","-1","poldrack-single-stim","366","618709","0.0-327.0","sub-13-ses-03_1","","2000","0","fixation","","<div class = centerbox><div class = fixation>+</div></div>","none","2000","","test","","","",""
"516","89","poldrack-single-stim","367","620899","0.0-328.0","sub-13-ses-03_1","","2180","0","probe","","<div class = centerbox><div class = img-container><img src = ""/static/experiments/dot_pattern_expectancy/images/probe1.png""</img></div></div>","89,71","500","AX","test","24","89","true",""
"-1","-1","poldrack-single-stim","368","621420","0.0-329.0","sub-13-ses-03_1","","500","0","cue","","<div class = centerbox><div class = img-container><img src = ""/static/experiments/dot_pattern_expectancy/images/cue1.png""</img></div></div>","none","500","BX","test","25","","",""
"-1","-1","poldrack-single-stim","369","623440","0.0-330.0","sub-13-ses-03_1","","2000","0","fixation","","<div class = centerbox><div class = fixation>+</div></div>","none","2000","","test","","","",""
"320","71","poldrack-single-stim","370","625219","0.0-331.0","sub-13-ses-03_1","","1772","0","probe","","<div class = centerbox><div class = img-container><img src = ""/static/experiments/dot_pattern_expectancy/images/probe1.png""</img></div></div>","89,71","500","BX","test","25","71","true",""
"-1","-1","poldrack-single-stim","371","625740","0.0-332.0","sub-13-ses-03_1","","500","0","cue","","<div class = centerbox><div class = img-container><img src = ""/static/experiments/dot_pattern_expectancy/images/cue5.png""</img></div></div>","none","500","BY","test","26","","",""
"-1","-1","poldrack-single-stim","372","627749","0.0-333.0","sub-13-ses-03_1","","2000","0","fixation","","<div class = centerbox><div class = fixation>+</div></div>","none","2000","","test","","","",""
"525","71","poldrack-single-stim","373","629270","0.0-334.0","sub-13-ses-03_1","","1500","0","probe","","<div class = centerbox><div class = img-container><img src = ""/static/experiments/dot_pattern_expectancy/images/probe2.png""</img></div></div>","89,71","500","BY","test","26","71","true",""
"-1","-1","poldrack-single-stim","374","629780","0.0-335.0","sub-13-ses-03_1","","500","0","cue","","<div class = centerbox><div class = img-container><img src = ""/static/experiments/dot_pattern_expectancy/images/cue3.png""</img></div></div>","none","500","AX","test","27","","",""
"-1","-1","poldrack-single-stim","375","631800","0.0-336.0","sub-13-ses-03_1","","2000","0","fixation","","<div class = centerbox><div class = fixation>+</div></div>","none","2000","","test","","","",""
"681","89","poldrack-single-stim","376","633319","0.0-337.0","sub-13-ses-03_1","","1500","0","probe","","<div class = centerbox><div class = img-container><img src = ""/static/experiments/dot_pattern_expectancy/images/probe1.png""</img></div></div>","89,71","500","AX","test","27","89","true",""
"-1","-1","poldrack-single-stim","377","633829","0.0-338.0","sub-13-ses-03_1","","500","0","cue","","<div class = centerbox><div class = img-container><img src = ""/static/experiments/dot_pattern_expectancy/images/cue3.png""</img></div></div>","none","500","AX","test","28","","",""
"-1","-1","poldrack-single-stim","378","635848","0.0-339.0","sub-13-ses-03_1","","2000","0","fixation","","<div class = centerbox><div class = fixation>+</div></div>","none","2000","","test","","","",""
"468","89","poldrack-single-stim","379","637489","0.0-340.0","sub-13-ses-03_1","","1636","0","probe","","<div class = centerbox><div class = img-container><img src = ""/static/experiments/dot_pattern_expectancy/images/probe1.png""</img></div></div>","89,71","500","AX","test","28","89","true",""
"-1","-1","poldrack-single-stim","380","638000","0.0-341.0","sub-13-ses-03_1","","500","0","cue","","<div class = centerbox><div class = img-container><img src = ""/static/experiments/dot_pattern_expectancy/images/cue3.png""</img></div></div>","none","500","AY","test","29","","",""
"-1","-1","poldrack-single-stim","381","640020","0.0-342.0","sub-13-ses-03_1","","2000","0","fixation","","<div class = centerbox><div class = fixation>+</div></div>","none","2000","","test","","","",""
"566","71","poldrack-single-stim","382","642220","0.0-343.0","sub-13-ses-03_1","","2180","0","probe","","<div class = centerbox><div class = img-container><img src = ""/static/experiments/dot_pattern_expectancy/images/probe2.png""</img></div></div>","89,71","500","AY","test","29","71","true",""
"-1","-1","poldrack-single-stim","383","642730","0.0-344.0","sub-13-ses-03_1","","500","0","cue","","<div class = centerbox><div class = img-container><img src = ""/static/experiments/dot_pattern_expectancy/images/cue3.png""</img></div></div>","none","500","AY","test","30","","",""
"-1","-1","poldrack-single-stim","384","644750","0.0-345.0","sub-13-ses-03_1","","2000","0","fixation","","<div class = centerbox><div class = fixation>+</div></div>","none","2000","","test","","","",""
