"rt","key_press","trial_type","trial_index","time_elapsed","internal_node_id","subject","text","block_duration","timing_post_trial","trial_id","responses","stimulus","possible_responses","stim_duration","exp_stage","condition","trial_num","correct_response","correct","exp_id"
"2441","13","text","0","2446","0.0-0.0","sub-06_sess-03_2","","","","","","","","","","","","","",""
"1087","89","poldrack-text","1","4542","0.0-1.0","sub-06_sess-03_2","<div class = centerbox><div style = 'font-size: 50px' class = center-text>Veuillez appuyer avec votre index</p></div>","1087","500","fmri_response_test","","","","","","","","","",""
"314","71","poldrack-text","2","5377","0.0-2.0","sub-06_sess-03_2","<div class = centerbox><div style = 'font-size: 50px' class = center-text>Veuillez appuyer avec votre majeur</p></div>","314","500","fmri_response_test","","","","","","","","","",""
"7170","","survey-text","3","13076","0.0-3.0","sub-06_sess-03_2","","","","task_setup","{""Q0"":""6"",""Q1"":""5""}","","","","","","","","",""
"3448","32","poldrack-single-stim","4","17553","0.0-4.0","sub-06_sess-03_2","","3448","500","instructions","","<div class = centerbox><p style = ""font-size:40px"" class = center-block-text>Paire cible (appuyez sur l'index):</p><p class = center-block-text><img src = ""/static/experiments/dot_pattern_expectancy/images/cue6.png"" ></img>&nbsp&nbsp&nbsp...suivi par...&nbsp&nbsp&nbsp<img src = ""/static/experiments/dot_pattern_expectancy/images/probe5.png"" ></img><br></br></p><p style = ""font-size:40px"" class = center-block-text>Sinon appuyez sur le majeur</div>","32","3448","","","","","",""
"-1","-1","poldrack-single-stim","5","18589","0.0-5.0-0.0","sub-06_sess-03_2","","500","0","cue","","<div class = centerbox><div class = img-container><img src = ""/static/experiments/dot_pattern_expectancy/images/cue3.png""</img></div></div>","none","500","practice","BY","0","","",""
"-1","-1","poldrack-single-stim","6","20609","0.0-5.0-1.0","sub-06_sess-03_2","","2000","0","fixation","","<div class = centerbox><div class = fixation>+</div></div>","none","2000","practice","","","","",""
"381","71","poldrack-single-stim","7","22329","0.0-5.0-2.0","sub-06_sess-03_2","","1700","0","probe","","<div class = centerbox><div class = img-container><img src = ""/static/experiments/dot_pattern_expectancy/images/probe4.png""</img></div></div>","89,71","500","practice","BY","0","71","true",""
"-1","-1","poldrack-single-stim","8","22848","0.0-5.0-3.0","sub-06_sess-03_2","","500","0","feedback","","<div class = centerbox><div style=""color:#4FE829""; class = center-text>Correct!</div></div>","none","500","practice","","1","","",""
"-1","-1","poldrack-single-stim","9","23369","0.0-5.0-4.0","sub-06_sess-03_2","","500","0","cue","","<div class = centerbox><div class = img-container><img src = ""/static/experiments/dot_pattern_expectancy/images/cue6.png""</img></div></div>","none","500","practice","AX","1","","",""
"-1","-1","poldrack-single-stim","10","25389","0.0-5.0-5.0","sub-06_sess-03_2","","2000","0","fixation","","<div class = centerbox><div class = fixation>+</div></div>","none","2000","practice","","","","",""
"407","89","poldrack-single-stim","11","27707","0.0-5.0-6.0","sub-06_sess-03_2","","2300","0","probe","","<div class = centerbox><div class = img-container><img src = ""/static/experiments/dot_pattern_expectancy/images/probe5.png""</img></div></div>","89,71","500","practice","AX","1","89","true",""
"-1","-1","poldrack-single-stim","12","28228","0.0-5.0-7.0","sub-06_sess-03_2","","500","0","feedback","","<div class = centerbox><div style=""color:#4FE829""; class = center-text>Correct!</div></div>","none","500","practice","","2","","",""
"-1","-1","poldrack-single-stim","13","28748","0.0-5.0-8.0","sub-06_sess-03_2","","500","0","cue","","<div class = centerbox><div class = img-container><img src = ""/static/experiments/dot_pattern_expectancy/images/cue6.png""</img></div></div>","none","500","practice","AX","2","","",""
"-1","-1","poldrack-single-stim","14","30767","0.0-5.0-9.0","sub-06_sess-03_2","","2000","0","fixation","","<div class = centerbox><div class = fixation>+</div></div>","none","2000","practice","","","","",""
"473","89","poldrack-single-stim","15","32277","0.0-5.0-10.0","sub-06_sess-03_2","","1500","0","probe","","<div class = centerbox><div class = img-container><img src = ""/static/experiments/dot_pattern_expectancy/images/probe5.png""</img></div></div>","89,71","500","practice","AX","2","89","true",""
"-1","-1","poldrack-single-stim","16","32797","0.0-5.0-11.0","sub-06_sess-03_2","","500","0","feedback","","<div class = centerbox><div style=""color:#4FE829""; class = center-text>Correct!</div></div>","none","500","practice","","3","","",""
"-1","-1","poldrack-single-stim","17","33318","0.0-5.0-12.0","sub-06_sess-03_2","","500","0","cue","","<div class = centerbox><div class = img-container><img src = ""/static/experiments/dot_pattern_expectancy/images/cue2.png""</img></div></div>","none","500","practice","BX","3","","",""
"-1","-1","poldrack-single-stim","18","35338","0.0-5.0-13.0","sub-06_sess-03_2","","2000","0","fixation","","<div class = centerbox><div class = fixation>+</div></div>","none","2000","practice","","","","",""
"339","71","poldrack-single-stim","19","36857","0.0-5.0-14.0","sub-06_sess-03_2","","1500","0","probe","","<div class = centerbox><div class = img-container><img src = ""/static/experiments/dot_pattern_expectancy/images/probe5.png""</img></div></div>","89,71","500","practice","BX","3","71","true",""
"-1","-1","poldrack-single-stim","20","37377","0.0-5.0-15.0","sub-06_sess-03_2","","500","0","feedback","","<div class = centerbox><div style=""color:#4FE829""; class = center-text>Correct!</div></div>","none","500","practice","","4","","",""
"-1","-1","poldrack-single-stim","21","37897","0.0-5.0-16.0","sub-06_sess-03_2","","500","0","cue","","<div class = centerbox><div class = img-container><img src = ""/static/experiments/dot_pattern_expectancy/images/cue6.png""</img></div></div>","none","500","practice","AX","4","","",""
"-1","-1","poldrack-single-stim","22","39917","0.0-5.0-17.0","sub-06_sess-03_2","","2000","0","fixation","","<div class = centerbox><div class = fixation>+</div></div>","none","2000","practice","","","","",""
"389","89","poldrack-single-stim","23","42036","0.0-5.0-18.0","sub-06_sess-03_2","","2100","0","probe","","<div class = centerbox><div class = img-container><img src = ""/static/experiments/dot_pattern_expectancy/images/probe5.png""</img></div></div>","89,71","500","practice","AX","4","89","true",""
"-1","-1","poldrack-single-stim","24","42557","0.0-5.0-19.0","sub-06_sess-03_2","","500","0","feedback","","<div class = centerbox><div style=""color:#4FE829""; class = center-text>Correct!</div></div>","none","500","practice","","5","","",""
"-1","-1","poldrack-single-stim","25","43079","0.0-5.0-20.0","sub-06_sess-03_2","","500","0","cue","","<div class = centerbox><div class = img-container><img src = ""/static/experiments/dot_pattern_expectancy/images/cue4.png""</img></div></div>","none","500","practice","BX","5","","",""
"-1","-1","poldrack-single-stim","26","45087","0.0-5.0-21.0","sub-06_sess-03_2","","2000","0","fixation","","<div class = centerbox><div class = fixation>+</div></div>","none","2000","practice","","","","",""
"417","71","poldrack-single-stim","27","46607","0.0-5.0-22.0","sub-06_sess-03_2","","1500","0","probe","","<div class = centerbox><div class = img-container><img src = ""/static/experiments/dot_pattern_expectancy/images/probe5.png""</img></div></div>","89,71","500","practice","BX","5","71","true",""
"-1","-1","poldrack-single-stim","28","47128","0.0-5.0-23.0","sub-06_sess-03_2","","500","0","feedback","","<div class = centerbox><div style=""color:#4FE829""; class = center-text>Correct!</div></div>","none","500","practice","","6","","",""
"-1","-1","poldrack-single-stim","29","47649","0.0-5.0-24.0","sub-06_sess-03_2","","500","0","cue","","<div class = centerbox><div class = img-container><img src = ""/static/experiments/dot_pattern_expectancy/images/cue5.png""</img></div></div>","none","500","practice","BY","6","","",""
"-1","-1","poldrack-single-stim","30","49667","0.0-5.0-25.0","sub-06_sess-03_2","","2000","0","fixation","","<div class = centerbox><div class = fixation>+</div></div>","none","2000","practice","","","","",""
"603","71","poldrack-single-stim","31","51577","0.0-5.0-26.0","sub-06_sess-03_2","","1900","0","probe","","<div class = centerbox><div class = img-container><img src = ""/static/experiments/dot_pattern_expectancy/images/probe1.png""</img></div></div>","89,71","500","practice","BY","6","71","true",""
"-1","-1","poldrack-single-stim","32","52090","0.0-5.0-27.0","sub-06_sess-03_2","","500","0","feedback","","<div class = centerbox><div style=""color:#4FE829""; class = center-text>Correct!</div></div>","none","500","practice","","7","","",""
"-1","-1","poldrack-single-stim","33","52609","0.0-5.0-28.0","sub-06_sess-03_2","","500","0","cue","","<div class = centerbox><div class = img-container><img src = ""/static/experiments/dot_pattern_expectancy/images/cue6.png""</img></div></div>","none","500","practice","AX","7","","",""
"-1","-1","poldrack-single-stim","34","54629","0.0-5.0-29.0","sub-06_sess-03_2","","2000","0","fixation","","<div class = centerbox><div class = fixation>+</div></div>","none","2000","practice","","","","",""
"396","89","poldrack-single-stim","35","57147","0.0-5.0-30.0","sub-06_sess-03_2","","2500","0","probe","","<div class = centerbox><div class = img-container><img src = ""/static/experiments/dot_pattern_expectancy/images/probe5.png""</img></div></div>","89,71","500","practice","AX","7","89","true",""
"-1","-1","poldrack-single-stim","36","57668","0.0-5.0-31.0","sub-06_sess-03_2","","500","0","feedback","","<div class = centerbox><div style=""color:#4FE829""; class = center-text>Correct!</div></div>","none","500","practice","","8","","",""
"-1","-1","poldrack-single-stim","37","58188","0.0-5.0-32.0","sub-06_sess-03_2","","500","0","cue","","<div class = centerbox><div class = img-container><img src = ""/static/experiments/dot_pattern_expectancy/images/cue6.png""</img></div></div>","none","500","practice","AY","8","","",""
"-1","-1","poldrack-single-stim","38","60206","0.0-5.0-33.0","sub-06_sess-03_2","","2000","0","fixation","","<div class = centerbox><div class = fixation>+</div></div>","none","2000","practice","","","","",""
"552","71","poldrack-single-stim","39","61727","0.0-5.0-34.0","sub-06_sess-03_2","","1500","0","probe","","<div class = centerbox><div class = img-container><img src = ""/static/experiments/dot_pattern_expectancy/images/probe4.png""</img></div></div>","89,71","500","practice","AY","8","71","true",""
"-1","-1","poldrack-single-stim","40","62249","0.0-5.0-35.0","sub-06_sess-03_2","","500","0","feedback","","<div class = centerbox><div style=""color:#4FE829""; class = center-text>Correct!</div></div>","none","500","practice","","9","","",""
"-1","-1","poldrack-single-stim","41","62768","0.0-5.0-36.0","sub-06_sess-03_2","","500","0","cue","","<div class = centerbox><div class = img-container><img src = ""/static/experiments/dot_pattern_expectancy/images/cue6.png""</img></div></div>","none","500","practice","AY","9","","",""
"-1","-1","poldrack-single-stim","42","64790","0.0-5.0-37.0","sub-06_sess-03_2","","2000","0","fixation","","<div class = centerbox><div class = fixation>+</div></div>","none","2000","practice","","","","",""
"686","71","poldrack-single-stim","43","66297","0.0-5.0-38.0","sub-06_sess-03_2","","1500","0","probe","","<div class = centerbox><div class = img-container><img src = ""/static/experiments/dot_pattern_expectancy/images/probe1.png""</img></div></div>","89,71","500","practice","AY","9","71","true",""
"-1","-1","poldrack-single-stim","44","66817","0.0-5.0-39.0","sub-06_sess-03_2","","500","0","feedback","","<div class = centerbox><div style=""color:#4FE829""; class = center-text>Correct!</div></div>","none","500","practice","","10","","",""
"1640","32","poldrack-text","45","68463","0.0-6.0","sub-06_sess-03_2","<div class = centerbox><div  class = center-text>Scanner Setup</div></div>","1640","0","fmri_scanner_wait","","","","","","","","","",""
"57399","84","poldrack-text","46","125865","0.0-7.0","sub-06_sess-03_2","<div class = centerbox><div style='color:red'; class = center-text>+</div></div>","57399","0","fmri_trigger_wait","","","","","","","","","",""
"-1","-1","poldrack-single-stim","47","126877","0.0-8.0","sub-06_sess-03_2","","1000","0","fmri_buffer","","","none","1000","","","","","",""
"-1","-1","poldrack-single-stim","48","128398","0.0-9.0","sub-06_sess-03_2","","1500","500","test_start_block","","<div class = centerbox><div class = center-text>Preparez-vous!</p></div>","none","1500","","","","","",""
"-1","-1","poldrack-single-stim","49","129429","0.0-10.0","sub-06_sess-03_2","","500","0","cue","","<div class = centerbox><div class = img-container><img src = ""/static/experiments/dot_pattern_expectancy/images/cue3.png""</img></div></div>","none","500","test","BY","0","","",""
"-1","-1","poldrack-single-stim","50","131447","0.0-11.0","sub-06_sess-03_2","","2000","0","fixation","","<div class = centerbox><div class = fixation>+</div></div>","none","2000","test","","","","",""
"438","71","poldrack-single-stim","51","133087","0.0-12.0","sub-06_sess-03_2","","1636","0","probe","","<div class = centerbox><div class = img-container><img src = ""/static/experiments/dot_pattern_expectancy/images/probe4.png""</img></div></div>","89,71","500","test","BY","0","71","true",""
"-1","-1","poldrack-single-stim","52","133608","0.0-13.0","sub-06_sess-03_2","","500","0","cue","","<div class = centerbox><div class = img-container><img src = ""/static/experiments/dot_pattern_expectancy/images/cue6.png""</img></div></div>","none","500","test","AY","1","","",""
"-1","-1","poldrack-single-stim","53","135627","0.0-14.0","sub-06_sess-03_2","","2000","0","fixation","","<div class = centerbox><div class = fixation>+</div></div>","none","2000","test","","","","",""
"527","71","poldrack-single-stim","54","137137","0.0-15.0","sub-06_sess-03_2","","1500","0","probe","","<div class = centerbox><div class = img-container><img src = ""/static/experiments/dot_pattern_expectancy/images/probe2.png""</img></div></div>","89,71","500","test","AY","1","71","true",""
"-1","-1","poldrack-single-stim","55","137648","0.0-16.0","sub-06_sess-03_2","","500","0","cue","","<div class = centerbox><div class = img-container><img src = ""/static/experiments/dot_pattern_expectancy/images/cue6.png""</img></div></div>","none","500","test","AX","2","","",""
"-1","-1","poldrack-single-stim","56","139658","0.0-17.0","sub-06_sess-03_2","","2000","0","fixation","","<div class = centerbox><div class = fixation>+</div></div>","none","2000","test","","","","",""
"397","89","poldrack-single-stim","57","141718","0.0-18.0","sub-06_sess-03_2","","2044","0","probe","","<div class = centerbox><div class = img-container><img src = ""/static/experiments/dot_pattern_expectancy/images/probe5.png""</img></div></div>","89,71","500","test","AX","2","89","true",""
"-1","-1","poldrack-single-stim","58","142237","0.0-19.0","sub-06_sess-03_2","","500","0","cue","","<div class = centerbox><div class = img-container><img src = ""/static/experiments/dot_pattern_expectancy/images/cue5.png""</img></div></div>","none","500","test","BY","3","","",""
"-1","-1","poldrack-single-stim","59","144257","0.0-20.0","sub-06_sess-03_2","","2000","0","fixation","","<div class = centerbox><div class = fixation>+</div></div>","none","2000","test","","","","",""
"110","71","poldrack-single-stim","60","146038","0.0-21.0","sub-06_sess-03_2","","1772","0","probe","","<div class = centerbox><div class = img-container><img src = ""/static/experiments/dot_pattern_expectancy/images/probe1.png""</img></div></div>","89,71","500","test","BY","3","71","true",""
"-1","-1","poldrack-single-stim","61","146557","0.0-22.0","sub-06_sess-03_2","","500","0","cue","","<div class = centerbox><div class = img-container><img src = ""/static/experiments/dot_pattern_expectancy/images/cue3.png""</img></div></div>","none","500","test","BX","4","","",""
"-1","-1","poldrack-single-stim","62","148579","0.0-23.0","sub-06_sess-03_2","","2000","0","fixation","","<div class = centerbox><div class = fixation>+</div></div>","none","2000","test","","","","",""
"404","71","poldrack-single-stim","63","150237","0.0-24.0","sub-06_sess-03_2","","1636","0","probe","","<div class = centerbox><div class = img-container><img src = ""/static/experiments/dot_pattern_expectancy/images/probe5.png""</img></div></div>","89,71","500","test","BX","4","71","true",""
"-1","-1","poldrack-single-stim","64","150747","0.0-25.0","sub-06_sess-03_2","","500","0","cue","","<div class = centerbox><div class = img-container><img src = ""/static/experiments/dot_pattern_expectancy/images/cue6.png""</img></div></div>","none","500","test","AX","5","","",""
"-1","-1","poldrack-single-stim","65","152758","0.0-26.0","sub-06_sess-03_2","","2000","0","fixation","","<div class = centerbox><div class = fixation>+</div></div>","none","2000","test","","","","",""
"365","89","poldrack-single-stim","66","154407","0.0-27.0","sub-06_sess-03_2","","1636","0","probe","","<div class = centerbox><div class = img-container><img src = ""/static/experiments/dot_pattern_expectancy/images/probe5.png""</img></div></div>","89,71","500","test","AX","5","89","true",""
"-1","-1","poldrack-single-stim","67","154927","0.0-28.0","sub-06_sess-03_2","","500","0","cue","","<div class = centerbox><div class = img-container><img src = ""/static/experiments/dot_pattern_expectancy/images/cue6.png""</img></div></div>","none","500","test","AX","6","","",""
"-1","-1","poldrack-single-stim","68","156947","0.0-29.0","sub-06_sess-03_2","","2000","0","fixation","","<div class = centerbox><div class = fixation>+</div></div>","none","2000","test","","","","",""
"554","89","poldrack-single-stim","69","158467","0.0-30.0","sub-06_sess-03_2","","1500","0","probe","","<div class = centerbox><div class = img-container><img src = ""/static/experiments/dot_pattern_expectancy/images/probe5.png""</img></div></div>","89,71","500","test","AX","6","89","true",""
"-1","-1","poldrack-single-stim","70","158987","0.0-31.0","sub-06_sess-03_2","","500","0","cue","","<div class = centerbox><div class = img-container><img src = ""/static/experiments/dot_pattern_expectancy/images/cue6.png""</img></div></div>","none","500","test","AX","7","","",""
"-1","-1","poldrack-single-stim","71","161008","0.0-32.0","sub-06_sess-03_2","","2000","0","fixation","","<div class = centerbox><div class = fixation>+</div></div>","none","2000","test","","","","",""
"424","89","poldrack-single-stim","72","162527","0.0-33.0","sub-06_sess-03_2","","1500","0","probe","","<div class = centerbox><div class = img-container><img src = ""/static/experiments/dot_pattern_expectancy/images/probe5.png""</img></div></div>","89,71","500","test","AX","7","89","true",""
"-1","-1","poldrack-single-stim","73","163047","0.0-34.0","sub-06_sess-03_2","","500","0","cue","","<div class = centerbox><div class = img-container><img src = ""/static/experiments/dot_pattern_expectancy/images/cue6.png""</img></div></div>","none","500","test","AY","8","","",""
"-1","-1","poldrack-single-stim","74","165067","0.0-35.0","sub-06_sess-03_2","","2000","0","fixation","","<div class = centerbox><div class = fixation>+</div></div>","none","2000","test","","","","",""
"551","71","poldrack-single-stim","75","167126","0.0-36.0","sub-06_sess-03_2","","2044","0","probe","","<div class = centerbox><div class = img-container><img src = ""/static/experiments/dot_pattern_expectancy/images/probe2.png""</img></div></div>","89,71","500","test","AY","8","71","true",""
"-1","-1","poldrack-single-stim","76","167648","0.0-37.0","sub-06_sess-03_2","","500","0","cue","","<div class = centerbox><div class = img-container><img src = ""/static/experiments/dot_pattern_expectancy/images/cue6.png""</img></div></div>","none","500","test","AX","9","","",""
"-1","-1","poldrack-single-stim","77","169668","0.0-38.0","sub-06_sess-03_2","","2000","0","fixation","","<div class = centerbox><div class = fixation>+</div></div>","none","2000","test","","","","",""
"407","89","poldrack-single-stim","78","172137","0.0-39.0","sub-06_sess-03_2","","2452","0","probe","","<div class = centerbox><div class = img-container><img src = ""/static/experiments/dot_pattern_expectancy/images/probe5.png""</img></div></div>","89,71","500","test","AX","9","89","true",""
"-1","-1","poldrack-single-stim","79","172657","0.0-40.0","sub-06_sess-03_2","","500","0","cue","","<div class = centerbox><div class = img-container><img src = ""/static/experiments/dot_pattern_expectancy/images/cue6.png""</img></div></div>","none","500","test","AX","10","","",""
"-1","-1","poldrack-single-stim","80","174667","0.0-41.0","sub-06_sess-03_2","","2000","0","fixation","","<div class = centerbox><div class = fixation>+</div></div>","none","2000","test","","","","",""
"361","89","poldrack-single-stim","81","176596","0.0-42.0","sub-06_sess-03_2","","1908","0","probe","","<div class = centerbox><div class = img-container><img src = ""/static/experiments/dot_pattern_expectancy/images/probe5.png""</img></div></div>","89,71","500","test","AX","10","89","true",""
"-1","-1","poldrack-single-stim","82","177117","0.0-43.0","sub-06_sess-03_2","","500","0","cue","","<div class = centerbox><div class = img-container><img src = ""/static/experiments/dot_pattern_expectancy/images/cue6.png""</img></div></div>","none","500","test","AX","11","","",""
"-1","-1","poldrack-single-stim","83","179126","0.0-44.0","sub-06_sess-03_2","","2000","0","fixation","","<div class = centerbox><div class = fixation>+</div></div>","none","2000","test","","","","",""
"402","89","poldrack-single-stim","84","180645","0.0-45.0","sub-06_sess-03_2","","1500","0","probe","","<div class = centerbox><div class = img-container><img src = ""/static/experiments/dot_pattern_expectancy/images/probe5.png""</img></div></div>","89,71","500","test","AX","11","89","true",""
"-1","-1","poldrack-single-stim","85","181168","0.0-46.0","sub-06_sess-03_2","","500","0","cue","","<div class = centerbox><div class = img-container><img src = ""/static/experiments/dot_pattern_expectancy/images/cue6.png""</img></div></div>","none","500","test","AX","12","","",""
"-1","-1","poldrack-single-stim","86","183188","0.0-47.0","sub-06_sess-03_2","","2000","0","fixation","","<div class = centerbox><div class = fixation>+</div></div>","none","2000","test","","","","",""
"578","89","poldrack-single-stim","87","185107","0.0-48.0","sub-06_sess-03_2","","1908","0","probe","","<div class = centerbox><div class = img-container><img src = ""/static/experiments/dot_pattern_expectancy/images/probe5.png""</img></div></div>","89,71","500","test","AX","12","89","true",""
"-1","-1","poldrack-single-stim","88","185628","0.0-49.0","sub-06_sess-03_2","","500","0","cue","","<div class = centerbox><div class = img-container><img src = ""/static/experiments/dot_pattern_expectancy/images/cue1.png""</img></div></div>","none","500","test","BX","13","","",""
"-1","-1","poldrack-single-stim","89","187637","0.0-50.0","sub-06_sess-03_2","","2000","0","fixation","","<div class = centerbox><div class = fixation>+</div></div>","none","2000","test","","","","",""
"745","71","poldrack-single-stim","90","189836","0.0-51.0","sub-06_sess-03_2","","2180","0","probe","","<div class = centerbox><div class = img-container><img src = ""/static/experiments/dot_pattern_expectancy/images/probe5.png""</img></div></div>","89,71","500","test","BX","13","71","true",""
"-1","-1","poldrack-single-stim","91","190358","0.0-52.0","sub-06_sess-03_2","","500","0","cue","","<div class = centerbox><div class = img-container><img src = ""/static/experiments/dot_pattern_expectancy/images/cue6.png""</img></div></div>","none","500","test","AX","14","","",""
"-1","-1","poldrack-single-stim","92","192367","0.0-53.0","sub-06_sess-03_2","","2000","0","fixation","","<div class = centerbox><div class = fixation>+</div></div>","none","2000","test","","","","",""
"415","89","poldrack-single-stim","93","193887","0.0-54.0","sub-06_sess-03_2","","1500","0","probe","","<div class = centerbox><div class = img-container><img src = ""/static/experiments/dot_pattern_expectancy/images/probe5.png""</img></div></div>","89,71","500","test","AX","14","89","true",""
"-1","-1","poldrack-single-stim","94","194405","0.0-55.0","sub-06_sess-03_2","","500","0","cue","","<div class = centerbox><div class = img-container><img src = ""/static/experiments/dot_pattern_expectancy/images/cue4.png""</img></div></div>","none","500","test","BY","15","","",""
"-1","-1","poldrack-single-stim","95","196427","0.0-56.0","sub-06_sess-03_2","","2000","0","fixation","","<div class = centerbox><div class = fixation>+</div></div>","none","2000","test","","","","",""
"504","71","poldrack-single-stim","96","198346","0.0-57.0","sub-06_sess-03_2","","1908","0","probe","","<div class = centerbox><div class = img-container><img src = ""/static/experiments/dot_pattern_expectancy/images/probe2.png""</img></div></div>","89,71","500","test","BY","15","71","true",""
"-1","-1","poldrack-single-stim","97","198866","0.0-58.0","sub-06_sess-03_2","","500","0","cue","","<div class = centerbox><div class = img-container><img src = ""/static/experiments/dot_pattern_expectancy/images/cue3.png""</img></div></div>","none","500","test","BX","16","","",""
"-1","-1","poldrack-single-stim","98","200887","0.0-59.0","sub-06_sess-03_2","","2000","0","fixation","","<div class = centerbox><div class = fixation>+</div></div>","none","2000","test","","","","",""
"411","71","poldrack-single-stim","99","203206","0.0-60.0","sub-06_sess-03_2","","2316","0","probe","","<div class = centerbox><div class = img-container><img src = ""/static/experiments/dot_pattern_expectancy/images/probe5.png""</img></div></div>","89,71","500","test","BX","16","71","true",""
"-1","-1","poldrack-single-stim","100","203727","0.0-61.0","sub-06_sess-03_2","","500","0","cue","","<div class = centerbox><div class = img-container><img src = ""/static/experiments/dot_pattern_expectancy/images/cue6.png""</img></div></div>","none","500","test","AY","17","","",""
"-1","-1","poldrack-single-stim","101","205747","0.0-62.0","sub-06_sess-03_2","","2000","0","fixation","","<div class = centerbox><div class = fixation>+</div></div>","none","2000","test","","","","",""
"582","71","poldrack-single-stim","102","208086","0.0-63.0","sub-06_sess-03_2","","2316","0","probe","","<div class = centerbox><div class = img-container><img src = ""/static/experiments/dot_pattern_expectancy/images/probe6.png""</img></div></div>","89,71","500","test","AY","17","71","true",""
"-1","-1","poldrack-single-stim","103","208597","0.0-64.0","sub-06_sess-03_2","","500","0","cue","","<div class = centerbox><div class = img-container><img src = ""/static/experiments/dot_pattern_expectancy/images/cue1.png""</img></div></div>","none","500","test","BX","18","","",""
"-1","-1","poldrack-single-stim","104","210606","0.0-65.0","sub-06_sess-03_2","","2000","0","fixation","","<div class = centerbox><div class = fixation>+</div></div>","none","2000","test","","","","",""
"332","71","poldrack-single-stim","105","212245","0.0-66.0","sub-06_sess-03_2","","1636","0","probe","","<div class = centerbox><div class = img-container><img src = ""/static/experiments/dot_pattern_expectancy/images/probe5.png""</img></div></div>","89,71","500","test","BX","18","71","true",""
"-1","-1","poldrack-single-stim","106","212766","0.0-67.0","sub-06_sess-03_2","","500","0","cue","","<div class = centerbox><div class = img-container><img src = ""/static/experiments/dot_pattern_expectancy/images/cue6.png""</img></div></div>","none","500","test","AY","19","","",""
"-1","-1","poldrack-single-stim","107","214788","0.0-68.0","sub-06_sess-03_2","","2000","0","fixation","","<div class = centerbox><div class = fixation>+</div></div>","none","2000","test","","","","",""
"618","71","poldrack-single-stim","108","216307","0.0-69.0","sub-06_sess-03_2","","1500","0","probe","","<div class = centerbox><div class = img-container><img src = ""/static/experiments/dot_pattern_expectancy/images/probe4.png""</img></div></div>","89,71","500","test","AY","19","71","true",""
"-1","-1","poldrack-single-stim","109","216827","0.0-70.0","sub-06_sess-03_2","","500","0","cue","","<div class = centerbox><div class = img-container><img src = ""/static/experiments/dot_pattern_expectancy/images/cue2.png""</img></div></div>","none","500","test","BY","20","","",""
"-1","-1","poldrack-single-stim","110","218847","0.0-71.0","sub-06_sess-03_2","","2000","0","fixation","","<div class = centerbox><div class = fixation>+</div></div>","none","2000","test","","","","",""
"374","71","poldrack-single-stim","111","220767","0.0-72.0","sub-06_sess-03_2","","1908","0","probe","","<div class = centerbox><div class = img-container><img src = ""/static/experiments/dot_pattern_expectancy/images/probe6.png""</img></div></div>","89,71","500","test","BY","20","71","true",""
"-1","-1","poldrack-single-stim","112","221288","0.0-73.0","sub-06_sess-03_2","","500","0","cue","","<div class = centerbox><div class = img-container><img src = ""/static/experiments/dot_pattern_expectancy/images/cue6.png""</img></div></div>","none","500","test","AX","21","","",""
"-1","-1","poldrack-single-stim","113","223306","0.0-74.0","sub-06_sess-03_2","","2000","0","fixation","","<div class = centerbox><div class = fixation>+</div></div>","none","2000","test","","","","",""
"449","89","poldrack-single-stim","114","224826","0.0-75.0","sub-06_sess-03_2","","1500","0","probe","","<div class = centerbox><div class = img-container><img src = ""/static/experiments/dot_pattern_expectancy/images/probe5.png""</img></div></div>","89,71","500","test","AX","21","89","true",""
"-1","-1","poldrack-single-stim","115","225346","0.0-76.0","sub-06_sess-03_2","","500","0","cue","","<div class = centerbox><div class = img-container><img src = ""/static/experiments/dot_pattern_expectancy/images/cue6.png""</img></div></div>","none","500","test","AY","22","","",""
"-1","-1","poldrack-single-stim","116","227367","0.0-77.0","sub-06_sess-03_2","","2000","0","fixation","","<div class = centerbox><div class = fixation>+</div></div>","none","2000","test","","","","",""
"555","71","poldrack-single-stim","117","229696","0.0-78.0","sub-06_sess-03_2","","2316","0","probe","","<div class = centerbox><div class = img-container><img src = ""/static/experiments/dot_pattern_expectancy/images/probe4.png""</img></div></div>","89,71","500","test","AY","22","71","true",""
"-1","-1","poldrack-single-stim","118","230217","0.0-79.0","sub-06_sess-03_2","","500","0","cue","","<div class = centerbox><div class = img-container><img src = ""/static/experiments/dot_pattern_expectancy/images/cue6.png""</img></div></div>","none","500","test","AX","23","","",""
"-1","-1","poldrack-single-stim","119","232296","0.0-80.0","sub-06_sess-03_2","","2000","0","fixation","","<div class = centerbox><div class = fixation>+</div></div>","none","2000","test","","","","",""
"474","89","poldrack-single-stim","120","233817","0.0-81.0","sub-06_sess-03_2","","1500","0","probe","","<div class = centerbox><div class = img-container><img src = ""/static/experiments/dot_pattern_expectancy/images/probe5.png""</img></div></div>","89,71","500","test","AX","23","89","true",""
"-1","-1","poldrack-single-stim","121","234337","0.0-82.0","sub-06_sess-03_2","","500","0","cue","","<div class = centerbox><div class = img-container><img src = ""/static/experiments/dot_pattern_expectancy/images/cue6.png""</img></div></div>","none","500","test","AY","24","","",""
"-1","-1","poldrack-single-stim","122","236358","0.0-83.0","sub-06_sess-03_2","","2000","0","fixation","","<div class = centerbox><div class = fixation>+</div></div>","none","2000","test","","","","",""
"630","71","poldrack-single-stim","123","239096","0.0-84.0","sub-06_sess-03_2","","2724","0","probe","","<div class = centerbox><div class = img-container><img src = ""/static/experiments/dot_pattern_expectancy/images/probe6.png""</img></div></div>","89,71","500","test","AY","24","71","true",""
"-1","-1","poldrack-single-stim","124","239616","0.0-85.0","sub-06_sess-03_2","","500","0","cue","","<div class = centerbox><div class = img-container><img src = ""/static/experiments/dot_pattern_expectancy/images/cue6.png""</img></div></div>","none","500","test","AX","25","","",""
"-1","-1","poldrack-single-stim","125","241627","0.0-86.0","sub-06_sess-03_2","","2000","0","fixation","","<div class = centerbox><div class = fixation>+</div></div>","none","2000","test","","","","",""
"866","89","poldrack-single-stim","126","243146","0.0-87.0","sub-06_sess-03_2","","1500","0","probe","","<div class = centerbox><div class = img-container><img src = ""/static/experiments/dot_pattern_expectancy/images/probe5.png""</img></div></div>","89,71","500","test","AX","25","89","true",""
"-1","-1","poldrack-single-stim","127","243666","0.0-88.0","sub-06_sess-03_2","","500","0","cue","","<div class = centerbox><div class = img-container><img src = ""/static/experiments/dot_pattern_expectancy/images/cue6.png""</img></div></div>","none","500","test","AX","26","","",""
"-1","-1","poldrack-single-stim","128","245686","0.0-89.0","sub-06_sess-03_2","","2000","0","fixation","","<div class = centerbox><div class = fixation>+</div></div>","none","2000","test","","","","",""
"505","89","poldrack-single-stim","129","247327","0.0-90.0","sub-06_sess-03_2","","1636","0","probe","","<div class = centerbox><div class = img-container><img src = ""/static/experiments/dot_pattern_expectancy/images/probe5.png""</img></div></div>","89,71","500","test","AX","26","89","true",""
"-1","-1","poldrack-single-stim","130","247846","0.0-91.0","sub-06_sess-03_2","","500","0","cue","","<div class = centerbox><div class = img-container><img src = ""/static/experiments/dot_pattern_expectancy/images/cue6.png""</img></div></div>","none","500","test","AX","27","","",""
"-1","-1","poldrack-single-stim","131","249872","0.0-92.0","sub-06_sess-03_2","","2000","0","fixation","","<div class = centerbox><div class = fixation>+</div></div>","none","2000","test","","","","",""
"384","89","poldrack-single-stim","132","251526","0.0-93.0","sub-06_sess-03_2","","1636","0","probe","","<div class = centerbox><div class = img-container><img src = ""/static/experiments/dot_pattern_expectancy/images/probe5.png""</img></div></div>","89,71","500","test","AX","27","89","true",""
"-1","-1","poldrack-single-stim","133","252047","0.0-94.0","sub-06_sess-03_2","","500","0","cue","","<div class = centerbox><div class = img-container><img src = ""/static/experiments/dot_pattern_expectancy/images/cue6.png""</img></div></div>","none","500","test","AX","28","","",""
"-1","-1","poldrack-single-stim","134","254056","0.0-95.0","sub-06_sess-03_2","","2000","0","fixation","","<div class = centerbox><div class = fixation>+</div></div>","none","2000","test","","","","",""
"470","89","poldrack-single-stim","135","255836","0.0-96.0","sub-06_sess-03_2","","1772","0","probe","","<div class = centerbox><div class = img-container><img src = ""/static/experiments/dot_pattern_expectancy/images/probe5.png""</img></div></div>","89,71","500","test","AX","28","89","true",""
"-1","-1","poldrack-single-stim","136","256357","0.0-97.0","sub-06_sess-03_2","","500","0","cue","","<div class = centerbox><div class = img-container><img src = ""/static/experiments/dot_pattern_expectancy/images/cue4.png""</img></div></div>","none","500","test","BY","29","","",""
"-1","-1","poldrack-single-stim","137","258367","0.0-98.0","sub-06_sess-03_2","","2000","0","fixation","","<div class = centerbox><div class = fixation>+</div></div>","none","2000","test","","","","",""
"850","71","poldrack-single-stim","138","260146","0.0-99.0","sub-06_sess-03_2","","1772","0","probe","","<div class = centerbox><div class = img-container><img src = ""/static/experiments/dot_pattern_expectancy/images/probe6.png""</img></div></div>","89,71","500","test","BY","29","71","true",""
"-1","-1","poldrack-single-stim","139","260666","0.0-100.0","sub-06_sess-03_2","","500","0","cue","","<div class = centerbox><div class = img-container><img src = ""/static/experiments/dot_pattern_expectancy/images/cue6.png""</img></div></div>","none","500","test","AX","30","","",""
"-1","-1","poldrack-single-stim","140","262687","0.0-101.0","sub-06_sess-03_2","","2000","0","fixation","","<div class = centerbox><div class = fixation>+</div></div>","none","2000","test","","","","",""
"558","89","poldrack-single-stim","141","264205","0.0-102.0","sub-06_sess-03_2","","1500","0","probe","","<div class = centerbox><div class = img-container><img src = ""/static/experiments/dot_pattern_expectancy/images/probe5.png""</img></div></div>","89,71","500","test","AX","30","89","true",""
"-1","-1","poldrack-single-stim","142","264726","0.0-103.0","sub-06_sess-03_2","","500","0","cue","","<div class = centerbox><div class = img-container><img src = ""/static/experiments/dot_pattern_expectancy/images/cue4.png""</img></div></div>","none","500","test","BY","31","","",""
"-1","-1","poldrack-single-stim","143","266747","0.0-104.0","sub-06_sess-03_2","","2000","0","fixation","","<div class = centerbox><div class = fixation>+</div></div>","none","2000","test","","","","",""
"274","71","poldrack-single-stim","144","269206","0.0-105.0","sub-06_sess-03_2","","2452","0","probe","","<div class = centerbox><div class = img-container><img src = ""/static/experiments/dot_pattern_expectancy/images/probe6.png""</img></div></div>","89,71","500","test","BY","31","71","true",""
"-1","-1","poldrack-single-stim","145","269717","0.0-106.0","sub-06_sess-03_2","","500","0","cue","","<div class = centerbox><div class = img-container><img src = ""/static/experiments/dot_pattern_expectancy/images/cue6.png""</img></div></div>","none","500","test","AX","32","","",""
"-1","-1","poldrack-single-stim","146","271732","0.0-107.0","sub-06_sess-03_2","","2000","0","fixation","","<div class = centerbox><div class = fixation>+</div></div>","none","2000","test","","","","",""
"505","89","poldrack-single-stim","147","273377","0.0-108.0","sub-06_sess-03_2","","1636","0","probe","","<div class = centerbox><div class = img-container><img src = ""/static/experiments/dot_pattern_expectancy/images/probe5.png""</img></div></div>","89,71","500","test","AX","32","89","true",""
"-1","-1","poldrack-single-stim","148","273898","0.0-109.0","sub-06_sess-03_2","","500","0","cue","","<div class = centerbox><div class = img-container><img src = ""/static/experiments/dot_pattern_expectancy/images/cue6.png""</img></div></div>","none","500","test","AX","33","","",""
"-1","-1","poldrack-single-stim","149","275917","0.0-110.0","sub-06_sess-03_2","","2000","0","fixation","","<div class = centerbox><div class = fixation>+</div></div>","none","2000","test","","","","",""
"408","89","poldrack-single-stim","150","277577","0.0-111.0","sub-06_sess-03_2","","1636","0","probe","","<div class = centerbox><div class = img-container><img src = ""/static/experiments/dot_pattern_expectancy/images/probe5.png""</img></div></div>","89,71","500","test","AX","33","89","true",""
"-1","-1","poldrack-single-stim","151","278097","0.0-112.0","sub-06_sess-03_2","","500","0","cue","","<div class = centerbox><div class = img-container><img src = ""/static/experiments/dot_pattern_expectancy/images/cue5.png""</img></div></div>","none","500","test","BX","34","","",""
"-1","-1","poldrack-single-stim","152","280106","0.0-113.0","sub-06_sess-03_2","","2000","0","fixation","","<div class = centerbox><div class = fixation>+</div></div>","none","2000","test","","","","",""
"745","71","poldrack-single-stim","153","281616","0.0-114.0","sub-06_sess-03_2","","1500","0","probe","","<div class = centerbox><div class = img-container><img src = ""/static/experiments/dot_pattern_expectancy/images/probe5.png""</img></div></div>","89,71","500","test","BX","34","71","true",""
"-1","-1","poldrack-single-stim","154","282138","0.0-115.0","sub-06_sess-03_2","","500","0","cue","","<div class = centerbox><div class = img-container><img src = ""/static/experiments/dot_pattern_expectancy/images/cue2.png""</img></div></div>","none","500","test","BX","35","","",""
"-1","-1","poldrack-single-stim","155","284146","0.0-116.0","sub-06_sess-03_2","","2000","0","fixation","","<div class = centerbox><div class = fixation>+</div></div>","none","2000","test","","","","",""
"812","71","poldrack-single-stim","156","285666","0.0-117.0","sub-06_sess-03_2","","1500","0","probe","","<div class = centerbox><div class = img-container><img src = ""/static/experiments/dot_pattern_expectancy/images/probe5.png""</img></div></div>","89,71","500","test","BX","35","71","true",""
"-1","-1","poldrack-single-stim","157","286187","0.0-118.0","sub-06_sess-03_2","","500","0","cue","","<div class = centerbox><div class = img-container><img src = ""/static/experiments/dot_pattern_expectancy/images/cue6.png""</img></div></div>","none","500","test","AX","36","","",""
"-1","-1","poldrack-single-stim","158","288210","0.0-119.0","sub-06_sess-03_2","","2000","0","fixation","","<div class = centerbox><div class = fixation>+</div></div>","none","2000","test","","","","",""
"487","89","poldrack-single-stim","159","290545","0.0-120.0","sub-06_sess-03_2","","2316","0","probe","","<div class = centerbox><div class = img-container><img src = ""/static/experiments/dot_pattern_expectancy/images/probe5.png""</img></div></div>","89,71","500","test","AX","36","89","true",""
"-1","-1","poldrack-single-stim","160","291066","0.0-121.0","sub-06_sess-03_2","","500","0","cue","","<div class = centerbox><div class = img-container><img src = ""/static/experiments/dot_pattern_expectancy/images/cue6.png""</img></div></div>","none","500","test","AY","37","","",""
"-1","-1","poldrack-single-stim","161","293086","0.0-122.0","sub-06_sess-03_2","","2000","0","fixation","","<div class = centerbox><div class = fixation>+</div></div>","none","2000","test","","","","",""
"599","71","poldrack-single-stim","162","295136","0.0-123.0","sub-06_sess-03_2","","2044","0","probe","","<div class = centerbox><div class = img-container><img src = ""/static/experiments/dot_pattern_expectancy/images/probe3.png""</img></div></div>","89,71","500","test","AY","37","71","true",""
"-1","-1","poldrack-single-stim","163","295657","0.0-124.0","sub-06_sess-03_2","","500","0","cue","","<div class = centerbox><div class = img-container><img src = ""/static/experiments/dot_pattern_expectancy/images/cue6.png""</img></div></div>","none","500","test","AX","38","","",""
"-1","-1","poldrack-single-stim","164","297677","0.0-125.0","sub-06_sess-03_2","","2000","0","fixation","","<div class = centerbox><div class = fixation>+</div></div>","none","2000","test","","","","",""
"688","89","poldrack-single-stim","165","301646","0.0-126.0","sub-06_sess-03_2","","3948","0","probe","","<div class = centerbox><div class = img-container><img src = ""/static/experiments/dot_pattern_expectancy/images/probe5.png""</img></div></div>","89,71","500","test","AX","38","89","true",""
"-1","-1","poldrack-single-stim","166","302167","0.0-127.0","sub-06_sess-03_2","","500","0","cue","","<div class = centerbox><div class = img-container><img src = ""/static/experiments/dot_pattern_expectancy/images/cue6.png""</img></div></div>","none","500","test","AX","39","","",""
"-1","-1","poldrack-single-stim","167","304187","0.0-128.0","sub-06_sess-03_2","","2000","0","fixation","","<div class = centerbox><div class = fixation>+</div></div>","none","2000","test","","","","",""
"604","89","poldrack-single-stim","168","305826","0.0-129.0","sub-06_sess-03_2","","1636","0","probe","","<div class = centerbox><div class = img-container><img src = ""/static/experiments/dot_pattern_expectancy/images/probe5.png""</img></div></div>","89,71","500","test","AX","39","89","true",""
"-1","-1","poldrack-single-stim","169","313337","0.0-130.0","sub-06_sess-03_2","","7500","1000","rest_block","","<div class = centerbox><div class = center-text>+</div></div>","none","7500","","","","","",""
"-1","-1","poldrack-single-stim","170","315877","0.0-131.0","sub-06_sess-03_2","","1500","500","test_start_block","","<div class = centerbox><div class = center-text>Preparez-vous!</p></div>","none","1500","","","","","",""
"-1","-1","poldrack-single-stim","171","316917","0.0-132.0","sub-06_sess-03_2","","500","0","cue","","<div class = centerbox><div class = img-container><img src = ""/static/experiments/dot_pattern_expectancy/images/cue6.png""</img></div></div>","none","500","test","AY","0","","",""
"-1","-1","poldrack-single-stim","172","318927","0.0-133.0","sub-06_sess-03_2","","2000","0","fixation","","<div class = centerbox><div class = fixation>+</div></div>","none","2000","test","","","","",""
"653","71","poldrack-single-stim","173","320576","0.0-134.0","sub-06_sess-03_2","","1636","0","probe","","<div class = centerbox><div class = img-container><img src = ""/static/experiments/dot_pattern_expectancy/images/probe1.png""</img></div></div>","89,71","500","test","AY","0","71","true",""
"-1","-1","poldrack-single-stim","174","321087","0.0-135.0","sub-06_sess-03_2","","500","0","cue","","<div class = centerbox><div class = img-container><img src = ""/static/experiments/dot_pattern_expectancy/images/cue6.png""</img></div></div>","none","500","test","AX","1","","",""
"-1","-1","poldrack-single-stim","175","323097","0.0-136.0","sub-06_sess-03_2","","2000","0","fixation","","<div class = centerbox><div class = fixation>+</div></div>","none","2000","test","","","","",""
"553","89","poldrack-single-stim","176","324746","0.0-137.0","sub-06_sess-03_2","","1636","0","probe","","<div class = centerbox><div class = img-container><img src = ""/static/experiments/dot_pattern_expectancy/images/probe5.png""</img></div></div>","89,71","500","test","AX","1","89","true",""
"-1","-1","poldrack-single-stim","177","325266","0.0-138.0","sub-06_sess-03_2","","500","0","cue","","<div class = centerbox><div class = img-container><img src = ""/static/experiments/dot_pattern_expectancy/images/cue6.png""</img></div></div>","none","500","test","AX","2","","",""
"-1","-1","poldrack-single-stim","178","327278","0.0-139.0","sub-06_sess-03_2","","2000","0","fixation","","<div class = centerbox><div class = fixation>+</div></div>","none","2000","test","","","","",""
"717","89","poldrack-single-stim","179","328796","0.0-140.0","sub-06_sess-03_2","","1500","0","probe","","<div class = centerbox><div class = img-container><img src = ""/static/experiments/dot_pattern_expectancy/images/probe5.png""</img></div></div>","89,71","500","test","AX","2","89","true",""
"-1","-1","poldrack-single-stim","180","329317","0.0-141.0","sub-06_sess-03_2","","500","0","cue","","<div class = centerbox><div class = img-container><img src = ""/static/experiments/dot_pattern_expectancy/images/cue6.png""</img></div></div>","none","500","test","AX","3","","",""
"-1","-1","poldrack-single-stim","181","331338","0.0-142.0","sub-06_sess-03_2","","2000","0","fixation","","<div class = centerbox><div class = fixation>+</div></div>","none","2000","test","","","","",""
"535","89","poldrack-single-stim","182","332846","0.0-143.0","sub-06_sess-03_2","","1500","0","probe","","<div class = centerbox><div class = img-container><img src = ""/static/experiments/dot_pattern_expectancy/images/probe5.png""</img></div></div>","89,71","500","test","AX","3","89","true",""
"-1","-1","poldrack-single-stim","183","333355","0.0-144.0","sub-06_sess-03_2","","500","0","cue","","<div class = centerbox><div class = img-container><img src = ""/static/experiments/dot_pattern_expectancy/images/cue6.png""</img></div></div>","none","500","test","AX","4","","",""
"-1","-1","poldrack-single-stim","184","335377","0.0-145.0","sub-06_sess-03_2","","2000","0","fixation","","<div class = centerbox><div class = fixation>+</div></div>","none","2000","test","","","","",""
"469","89","poldrack-single-stim","185","337296","0.0-146.0","sub-06_sess-03_2","","1908","0","probe","","<div class = centerbox><div class = img-container><img src = ""/static/experiments/dot_pattern_expectancy/images/probe5.png""</img></div></div>","89,71","500","test","AX","4","89","true",""
"-1","-1","poldrack-single-stim","186","337818","0.0-147.0","sub-06_sess-03_2","","500","0","cue","","<div class = centerbox><div class = img-container><img src = ""/static/experiments/dot_pattern_expectancy/images/cue5.png""</img></div></div>","none","500","test","BX","5","","",""
"-1","-1","poldrack-single-stim","187","339837","0.0-148.0","sub-06_sess-03_2","","2000","0","fixation","","<div class = centerbox><div class = fixation>+</div></div>","none","2000","test","","","","",""
"407","71","poldrack-single-stim","188","341497","0.0-149.0","sub-06_sess-03_2","","1636","0","probe","","<div class = centerbox><div class = img-container><img src = ""/static/experiments/dot_pattern_expectancy/images/probe5.png""</img></div></div>","89,71","500","test","BX","5","71","true",""
"-1","-1","poldrack-single-stim","189","342007","0.0-150.0","sub-06_sess-03_2","","500","0","cue","","<div class = centerbox><div class = img-container><img src = ""/static/experiments/dot_pattern_expectancy/images/cue6.png""</img></div></div>","none","500","test","AX","6","","",""
"-1","-1","poldrack-single-stim","190","344027","0.0-151.0","sub-06_sess-03_2","","2000","0","fixation","","<div class = centerbox><div class = fixation>+</div></div>","none","2000","test","","","","",""
"421","89","poldrack-single-stim","191","346076","0.0-152.0","sub-06_sess-03_2","","2044","0","probe","","<div class = centerbox><div class = img-container><img src = ""/static/experiments/dot_pattern_expectancy/images/probe5.png""</img></div></div>","89,71","500","test","AX","6","89","true",""
"-1","-1","poldrack-single-stim","192","346593","0.0-153.0","sub-06_sess-03_2","","500","0","cue","","<div class = centerbox><div class = img-container><img src = ""/static/experiments/dot_pattern_expectancy/images/cue6.png""</img></div></div>","none","500","test","AX","7","","",""
"-1","-1","poldrack-single-stim","193","348597","0.0-154.0","sub-06_sess-03_2","","2000","0","fixation","","<div class = centerbox><div class = fixation>+</div></div>","none","2000","test","","","","",""
"382","89","poldrack-single-stim","194","350376","0.0-155.0","sub-06_sess-03_2","","1772","0","probe","","<div class = centerbox><div class = img-container><img src = ""/static/experiments/dot_pattern_expectancy/images/probe5.png""</img></div></div>","89,71","500","test","AX","7","89","true",""
"-1","-1","poldrack-single-stim","195","350897","0.0-156.0","sub-06_sess-03_2","","500","0","cue","","<div class = centerbox><div class = img-container><img src = ""/static/experiments/dot_pattern_expectancy/images/cue6.png""</img></div></div>","none","500","test","AX","8","","",""
"-1","-1","poldrack-single-stim","196","352917","0.0-157.0","sub-06_sess-03_2","","2000","0","fixation","","<div class = centerbox><div class = fixation>+</div></div>","none","2000","test","","","","",""
"393","89","poldrack-single-stim","197","354435","0.0-158.0","sub-06_sess-03_2","","1500","0","probe","","<div class = centerbox><div class = img-container><img src = ""/static/experiments/dot_pattern_expectancy/images/probe5.png""</img></div></div>","89,71","500","test","AX","8","89","true",""
"-1","-1","poldrack-single-stim","198","354947","0.0-159.0","sub-06_sess-03_2","","500","0","cue","","<div class = centerbox><div class = img-container><img src = ""/static/experiments/dot_pattern_expectancy/images/cue6.png""</img></div></div>","none","500","test","AX","9","","",""
"-1","-1","poldrack-single-stim","199","356968","0.0-160.0","sub-06_sess-03_2","","2000","0","fixation","","<div class = centerbox><div class = fixation>+</div></div>","none","2000","test","","","","",""
"386","89","poldrack-single-stim","200","359166","0.0-161.0","sub-06_sess-03_2","","2180","0","probe","","<div class = centerbox><div class = img-container><img src = ""/static/experiments/dot_pattern_expectancy/images/probe5.png""</img></div></div>","89,71","500","test","AX","9","89","true",""
"-1","-1","poldrack-single-stim","201","359676","0.0-162.0","sub-06_sess-03_2","","500","0","cue","","<div class = centerbox><div class = img-container><img src = ""/static/experiments/dot_pattern_expectancy/images/cue6.png""</img></div></div>","none","500","test","AX","10","","",""
"-1","-1","poldrack-single-stim","202","361696","0.0-163.0","sub-06_sess-03_2","","2000","0","fixation","","<div class = centerbox><div class = fixation>+</div></div>","none","2000","test","","","","",""
"374","89","poldrack-single-stim","203","363216","0.0-164.0","sub-06_sess-03_2","","1500","0","probe","","<div class = centerbox><div class = img-container><img src = ""/static/experiments/dot_pattern_expectancy/images/probe5.png""</img></div></div>","89,71","500","test","AX","10","89","true",""
"-1","-1","poldrack-single-stim","204","363727","0.0-165.0","sub-06_sess-03_2","","500","0","cue","","<div class = centerbox><div class = img-container><img src = ""/static/experiments/dot_pattern_expectancy/images/cue5.png""</img></div></div>","none","500","test","BX","11","","",""
"-1","-1","poldrack-single-stim","205","365746","0.0-166.0","sub-06_sess-03_2","","2000","0","fixation","","<div class = centerbox><div class = fixation>+</div></div>","none","2000","test","","","","",""
"264","71","poldrack-single-stim","206","369426","0.0-167.0","sub-06_sess-03_2","","3676","0","probe","","<div class = centerbox><div class = img-container><img src = ""/static/experiments/dot_pattern_expectancy/images/probe5.png""</img></div></div>","89,71","500","test","BX","11","71","true",""
"-1","-1","poldrack-single-stim","207","369947","0.0-168.0","sub-06_sess-03_2","","500","0","cue","","<div class = centerbox><div class = img-container><img src = ""/static/experiments/dot_pattern_expectancy/images/cue2.png""</img></div></div>","none","500","test","BY","12","","",""
"-1","-1","poldrack-single-stim","208","371956","0.0-169.0","sub-06_sess-03_2","","2000","0","fixation","","<div class = centerbox><div class = fixation>+</div></div>","none","2000","test","","","","",""
"405","71","poldrack-single-stim","209","373596","0.0-170.0","sub-06_sess-03_2","","1636","0","probe","","<div class = centerbox><div class = img-container><img src = ""/static/experiments/dot_pattern_expectancy/images/probe4.png""</img></div></div>","89,71","500","test","BY","12","71","true",""
"-1","-1","poldrack-single-stim","210","374116","0.0-171.0","sub-06_sess-03_2","","500","0","cue","","<div class = centerbox><div class = img-container><img src = ""/static/experiments/dot_pattern_expectancy/images/cue1.png""</img></div></div>","none","500","test","BY","13","","",""
"-1","-1","poldrack-single-stim","211","376127","0.0-172.0","sub-06_sess-03_2","","2000","0","fixation","","<div class = centerbox><div class = fixation>+</div></div>","none","2000","test","","","","",""
"726","71","poldrack-single-stim","212","377776","0.0-173.0","sub-06_sess-03_2","","1636","0","probe","","<div class = centerbox><div class = img-container><img src = ""/static/experiments/dot_pattern_expectancy/images/probe3.png""</img></div></div>","89,71","500","test","BY","13","71","true",""
"-1","-1","poldrack-single-stim","213","378297","0.0-174.0","sub-06_sess-03_2","","500","0","cue","","<div class = centerbox><div class = img-container><img src = ""/static/experiments/dot_pattern_expectancy/images/cue3.png""</img></div></div>","none","500","test","BX","14","","",""
"-1","-1","poldrack-single-stim","214","380317","0.0-175.0","sub-06_sess-03_2","","2000","0","fixation","","<div class = centerbox><div class = fixation>+</div></div>","none","2000","test","","","","",""
"376","71","poldrack-single-stim","215","381836","0.0-176.0","sub-06_sess-03_2","","1500","0","probe","","<div class = centerbox><div class = img-container><img src = ""/static/experiments/dot_pattern_expectancy/images/probe5.png""</img></div></div>","89,71","500","test","BX","14","71","true",""
"-1","-1","poldrack-single-stim","216","382356","0.0-177.0","sub-06_sess-03_2","","500","0","cue","","<div class = centerbox><div class = img-container><img src = ""/static/experiments/dot_pattern_expectancy/images/cue6.png""</img></div></div>","none","500","test","AX","15","","",""
"-1","-1","poldrack-single-stim","217","384366","0.0-178.0","sub-06_sess-03_2","","2000","0","fixation","","<div class = centerbox><div class = fixation>+</div></div>","none","2000","test","","","","",""
"534","89","poldrack-single-stim","218","386286","0.0-179.0","sub-06_sess-03_2","","1908","0","probe","","<div class = centerbox><div class = img-container><img src = ""/static/experiments/dot_pattern_expectancy/images/probe5.png""</img></div></div>","89,71","500","test","AX","15","89","true",""
"-1","-1","poldrack-single-stim","219","386806","0.0-180.0","sub-06_sess-03_2","","500","0","cue","","<div class = centerbox><div class = img-container><img src = ""/static/experiments/dot_pattern_expectancy/images/cue6.png""</img></div></div>","none","500","test","AX","16","","",""
"-1","-1","poldrack-single-stim","220","388827","0.0-181.0","sub-06_sess-03_2","","2000","0","fixation","","<div class = centerbox><div class = fixation>+</div></div>","none","2000","test","","","","",""
"426","89","poldrack-single-stim","221","390466","0.0-182.0","sub-06_sess-03_2","","1636","0","probe","","<div class = centerbox><div class = img-container><img src = ""/static/experiments/dot_pattern_expectancy/images/probe5.png""</img></div></div>","89,71","500","test","AX","16","89","true",""
"-1","-1","poldrack-single-stim","222","390988","0.0-183.0","sub-06_sess-03_2","","500","0","cue","","<div class = centerbox><div class = img-container><img src = ""/static/experiments/dot_pattern_expectancy/images/cue3.png""</img></div></div>","none","500","test","BX","17","","",""
"-1","-1","poldrack-single-stim","223","392996","0.0-184.0","sub-06_sess-03_2","","2000","0","fixation","","<div class = centerbox><div class = fixation>+</div></div>","none","2000","test","","","","",""
"380","71","poldrack-single-stim","224","394506","0.0-185.0","sub-06_sess-03_2","","1500","0","probe","","<div class = centerbox><div class = img-container><img src = ""/static/experiments/dot_pattern_expectancy/images/probe5.png""</img></div></div>","89,71","500","test","BX","17","71","true",""
"-1","-1","poldrack-single-stim","225","395026","0.0-186.0","sub-06_sess-03_2","","500","0","cue","","<div class = centerbox><div class = img-container><img src = ""/static/experiments/dot_pattern_expectancy/images/cue6.png""</img></div></div>","none","500","test","AX","18","","",""
"-1","-1","poldrack-single-stim","226","397037","0.0-187.0","sub-06_sess-03_2","","2000","0","fixation","","<div class = centerbox><div class = fixation>+</div></div>","none","2000","test","","","","",""
"399","89","poldrack-single-stim","227","398955","0.0-188.0","sub-06_sess-03_2","","1908","0","probe","","<div class = centerbox><div class = img-container><img src = ""/static/experiments/dot_pattern_expectancy/images/probe5.png""</img></div></div>","89,71","500","test","AX","18","89","true",""
"-1","-1","poldrack-single-stim","228","399476","0.0-189.0","sub-06_sess-03_2","","500","0","cue","","<div class = centerbox><div class = img-container><img src = ""/static/experiments/dot_pattern_expectancy/images/cue5.png""</img></div></div>","none","500","test","BY","19","","",""
"-1","-1","poldrack-single-stim","229","401497","0.0-190.0","sub-06_sess-03_2","","2000","0","fixation","","<div class = centerbox><div class = fixation>+</div></div>","none","2000","test","","","","",""
"442","71","poldrack-single-stim","230","403696","0.0-191.0","sub-06_sess-03_2","","2180","0","probe","","<div class = centerbox><div class = img-container><img src = ""/static/experiments/dot_pattern_expectancy/images/probe1.png""</img></div></div>","89,71","500","test","BY","19","71","true",""
"-1","-1","poldrack-single-stim","231","404217","0.0-192.0","sub-06_sess-03_2","","500","0","cue","","<div class = centerbox><div class = img-container><img src = ""/static/experiments/dot_pattern_expectancy/images/cue6.png""</img></div></div>","none","500","test","AX","20","","",""
"-1","-1","poldrack-single-stim","232","406226","0.0-193.0","sub-06_sess-03_2","","2000","0","fixation","","<div class = centerbox><div class = fixation>+</div></div>","none","2000","test","","","","",""
"405","89","poldrack-single-stim","233","408005","0.0-194.0","sub-06_sess-03_2","","1772","0","probe","","<div class = centerbox><div class = img-container><img src = ""/static/experiments/dot_pattern_expectancy/images/probe5.png""</img></div></div>","89,71","500","test","AX","20","89","true",""
"-1","-1","poldrack-single-stim","234","408526","0.0-195.0","sub-06_sess-03_2","","500","0","cue","","<div class = centerbox><div class = img-container><img src = ""/static/experiments/dot_pattern_expectancy/images/cue6.png""</img></div></div>","none","500","test","AX","21","","",""
"-1","-1","poldrack-single-stim","235","410547","0.0-196.0","sub-06_sess-03_2","","2000","0","fixation","","<div class = centerbox><div class = fixation>+</div></div>","none","2000","test","","","","",""
"456","89","poldrack-single-stim","236","412055","0.0-197.0","sub-06_sess-03_2","","1500","0","probe","","<div class = centerbox><div class = img-container><img src = ""/static/experiments/dot_pattern_expectancy/images/probe5.png""</img></div></div>","89,71","500","test","AX","21","89","true",""
"-1","-1","poldrack-single-stim","237","412577","0.0-198.0","sub-06_sess-03_2","","500","0","cue","","<div class = centerbox><div class = img-container><img src = ""/static/experiments/dot_pattern_expectancy/images/cue6.png""</img></div></div>","none","500","test","AX","22","","",""
"-1","-1","poldrack-single-stim","238","414596","0.0-199.0","sub-06_sess-03_2","","2000","0","fixation","","<div class = centerbox><div class = fixation>+</div></div>","none","2000","test","","","","",""
"771","89","poldrack-single-stim","239","416115","0.0-200.0","sub-06_sess-03_2","","1500","0","probe","","<div class = centerbox><div class = img-container><img src = ""/static/experiments/dot_pattern_expectancy/images/probe5.png""</img></div></div>","89,71","500","test","AX","22","89","true",""
"-1","-1","poldrack-single-stim","240","416636","0.0-201.0","sub-06_sess-03_2","","500","0","cue","","<div class = centerbox><div class = img-container><img src = ""/static/experiments/dot_pattern_expectancy/images/cue6.png""</img></div></div>","none","500","test","AX","23","","",""
"-1","-1","poldrack-single-stim","241","418647","0.0-202.0","sub-06_sess-03_2","","2000","0","fixation","","<div class = centerbox><div class = fixation>+</div></div>","none","2000","test","","","","",""
"395","89","poldrack-single-stim","242","420705","0.0-203.0","sub-06_sess-03_2","","2044","0","probe","","<div class = centerbox><div class = img-container><img src = ""/static/experiments/dot_pattern_expectancy/images/probe5.png""</img></div></div>","89,71","500","test","AX","23","89","true",""
"-1","-1","poldrack-single-stim","243","421226","0.0-204.0","sub-06_sess-03_2","","500","0","cue","","<div class = centerbox><div class = img-container><img src = ""/static/experiments/dot_pattern_expectancy/images/cue6.png""</img></div></div>","none","500","test","AX","24","","",""
"-1","-1","poldrack-single-stim","244","423247","0.0-205.0","sub-06_sess-03_2","","2000","0","fixation","","<div class = centerbox><div class = fixation>+</div></div>","none","2000","test","","","","",""
"459","89","poldrack-single-stim","245","426117","0.0-206.0","sub-06_sess-03_2","","2860","0","probe","","<div class = centerbox><div class = img-container><img src = ""/static/experiments/dot_pattern_expectancy/images/probe5.png""</img></div></div>","89,71","500","test","AX","24","89","true",""
"-1","-1","poldrack-single-stim","246","426635","0.0-207.0","sub-06_sess-03_2","","500","0","cue","","<div class = centerbox><div class = img-container><img src = ""/static/experiments/dot_pattern_expectancy/images/cue4.png""</img></div></div>","none","500","test","BX","25","","",""
"-1","-1","poldrack-single-stim","247","428656","0.0-208.0","sub-06_sess-03_2","","2000","0","fixation","","<div class = centerbox><div class = fixation>+</div></div>","none","2000","test","","","","",""
"290","71","poldrack-single-stim","248","430177","0.0-209.0","sub-06_sess-03_2","","1500","0","probe","","<div class = centerbox><div class = img-container><img src = ""/static/experiments/dot_pattern_expectancy/images/probe5.png""</img></div></div>","89,71","500","test","BX","25","71","true",""
"-1","-1","poldrack-single-stim","249","430695","0.0-210.0","sub-06_sess-03_2","","500","0","cue","","<div class = centerbox><div class = img-container><img src = ""/static/experiments/dot_pattern_expectancy/images/cue3.png""</img></div></div>","none","500","test","BY","26","","",""
"-1","-1","poldrack-single-stim","250","432707","0.0-211.0","sub-06_sess-03_2","","2000","0","fixation","","<div class = centerbox><div class = fixation>+</div></div>","none","2000","test","","","","",""
"430","71","poldrack-single-stim","251","434485","0.0-212.0","sub-06_sess-03_2","","1772","0","probe","","<div class = centerbox><div class = img-container><img src = ""/static/experiments/dot_pattern_expectancy/images/probe4.png""</img></div></div>","89,71","500","test","BY","26","71","true",""
"-1","-1","poldrack-single-stim","252","435006","0.0-213.0","sub-06_sess-03_2","","500","0","cue","","<div class = centerbox><div class = img-container><img src = ""/static/experiments/dot_pattern_expectancy/images/cue6.png""</img></div></div>","none","500","test","AX","27","","",""
"-1","-1","poldrack-single-stim","253","437026","0.0-214.0","sub-06_sess-03_2","","2000","0","fixation","","<div class = centerbox><div class = fixation>+</div></div>","none","2000","test","","","","",""
"506","89","poldrack-single-stim","254","438805","0.0-215.0","sub-06_sess-03_2","","1772","0","probe","","<div class = centerbox><div class = img-container><img src = ""/static/experiments/dot_pattern_expectancy/images/probe5.png""</img></div></div>","89,71","500","test","AX","27","89","true",""
"-1","-1","poldrack-single-stim","255","439326","0.0-216.0","sub-06_sess-03_2","","500","0","cue","","<div class = centerbox><div class = img-container><img src = ""/static/experiments/dot_pattern_expectancy/images/cue6.png""</img></div></div>","none","500","test","AX","28","","",""
"-1","-1","poldrack-single-stim","256","441336","0.0-217.0","sub-06_sess-03_2","","2000","0","fixation","","<div class = centerbox><div class = fixation>+</div></div>","none","2000","test","","","","",""
"623","89","poldrack-single-stim","257","444216","0.0-218.0","sub-06_sess-03_2","","2860","0","probe","","<div class = centerbox><div class = img-container><img src = ""/static/experiments/dot_pattern_expectancy/images/probe5.png""</img></div></div>","89,71","500","test","AX","28","89","true",""
"-1","-1","poldrack-single-stim","258","444736","0.0-219.0","sub-06_sess-03_2","","500","0","cue","","<div class = centerbox><div class = img-container><img src = ""/static/experiments/dot_pattern_expectancy/images/cue6.png""</img></div></div>","none","500","test","AX","29","","",""
"-1","-1","poldrack-single-stim","259","446756","0.0-220.0","sub-06_sess-03_2","","2000","0","fixation","","<div class = centerbox><div class = fixation>+</div></div>","none","2000","test","","","","",""
"535","89","poldrack-single-stim","260","448536","0.0-221.0","sub-06_sess-03_2","","1772","0","probe","","<div class = centerbox><div class = img-container><img src = ""/static/experiments/dot_pattern_expectancy/images/probe5.png""</img></div></div>","89,71","500","test","AX","29","89","true",""
"-1","-1","poldrack-single-stim","261","449057","0.0-222.0","sub-06_sess-03_2","","500","0","cue","","<div class = centerbox><div class = img-container><img src = ""/static/experiments/dot_pattern_expectancy/images/cue3.png""</img></div></div>","none","500","test","BX","30","","",""
"-1","-1","poldrack-single-stim","262","451067","0.0-223.0","sub-06_sess-03_2","","2000","0","fixation","","<div class = centerbox><div class = fixation>+</div></div>","none","2000","test","","","","",""
"685","71","poldrack-single-stim","263","452705","0.0-224.0","sub-06_sess-03_2","","1636","0","probe","","<div class = centerbox><div class = img-container><img src = ""/static/experiments/dot_pattern_expectancy/images/probe5.png""</img></div></div>","89,71","500","test","BX","30","71","true",""
"-1","-1","poldrack-single-stim","264","453225","0.0-225.0","sub-06_sess-03_2","","500","0","cue","","<div class = centerbox><div class = img-container><img src = ""/static/experiments/dot_pattern_expectancy/images/cue4.png""</img></div></div>","none","500","test","BX","31","","",""
"-1","-1","poldrack-single-stim","265","455237","0.0-226.0","sub-06_sess-03_2","","2000","0","fixation","","<div class = centerbox><div class = fixation>+</div></div>","none","2000","test","","","","",""
"705","89","poldrack-single-stim","266","457696","0.0-227.0","sub-06_sess-03_2","","2452","0","probe","","<div class = centerbox><div class = img-container><img src = ""/static/experiments/dot_pattern_expectancy/images/probe5.png""</img></div></div>","89,71","500","test","BX","31","71","false",""
"-1","-1","poldrack-single-stim","267","458217","0.0-228.0","sub-06_sess-03_2","","500","0","cue","","<div class = centerbox><div class = img-container><img src = ""/static/experiments/dot_pattern_expectancy/images/cue6.png""</img></div></div>","none","500","test","AX","32","","",""
"-1","-1","poldrack-single-stim","268","460237","0.0-229.0","sub-06_sess-03_2","","2000","0","fixation","","<div class = centerbox><div class = fixation>+</div></div>","none","2000","test","","","","",""
"628","89","poldrack-single-stim","269","461885","0.0-230.0","sub-06_sess-03_2","","1636","0","probe","","<div class = centerbox><div class = img-container><img src = ""/static/experiments/dot_pattern_expectancy/images/probe5.png""</img></div></div>","89,71","500","test","AX","32","89","true",""
"-1","-1","poldrack-single-stim","270","462405","0.0-231.0","sub-06_sess-03_2","","500","0","cue","","<div class = centerbox><div class = img-container><img src = ""/static/experiments/dot_pattern_expectancy/images/cue4.png""</img></div></div>","none","500","test","BX","33","","",""
"-1","-1","poldrack-single-stim","271","464427","0.0-232.0","sub-06_sess-03_2","","2000","0","fixation","","<div class = centerbox><div class = fixation>+</div></div>","none","2000","test","","","","",""
"333","71","poldrack-single-stim","272","465936","0.0-233.0","sub-06_sess-03_2","","1500","0","probe","","<div class = centerbox><div class = img-container><img src = ""/static/experiments/dot_pattern_expectancy/images/probe5.png""</img></div></div>","89,71","500","test","BX","33","71","true",""
"-1","-1","poldrack-single-stim","273","466456","0.0-234.0","sub-06_sess-03_2","","500","0","cue","","<div class = centerbox><div class = img-container><img src = ""/static/experiments/dot_pattern_expectancy/images/cue6.png""</img></div></div>","none","500","test","AX","34","","",""
"-1","-1","poldrack-single-stim","274","468476","0.0-235.0","sub-06_sess-03_2","","2000","0","fixation","","<div class = centerbox><div class = fixation>+</div></div>","none","2000","test","","","","",""
"384","89","poldrack-single-stim","275","470136","0.0-236.0","sub-06_sess-03_2","","1636","0","probe","","<div class = centerbox><div class = img-container><img src = ""/static/experiments/dot_pattern_expectancy/images/probe5.png""</img></div></div>","89,71","500","test","AX","34","89","true",""
"-1","-1","poldrack-single-stim","276","470655","0.0-237.0","sub-06_sess-03_2","","500","0","cue","","<div class = centerbox><div class = img-container><img src = ""/static/experiments/dot_pattern_expectancy/images/cue6.png""</img></div></div>","none","500","test","AX","35","","",""
"-1","-1","poldrack-single-stim","277","472677","0.0-238.0","sub-06_sess-03_2","","2000","0","fixation","","<div class = centerbox><div class = fixation>+</div></div>","none","2000","test","","","","",""
"437","89","poldrack-single-stim","278","474316","0.0-239.0","sub-06_sess-03_2","","1636","0","probe","","<div class = centerbox><div class = img-container><img src = ""/static/experiments/dot_pattern_expectancy/images/probe5.png""</img></div></div>","89,71","500","test","AX","35","89","true",""
"-1","-1","poldrack-single-stim","279","474837","0.0-240.0","sub-06_sess-03_2","","500","0","cue","","<div class = centerbox><div class = img-container><img src = ""/static/experiments/dot_pattern_expectancy/images/cue1.png""</img></div></div>","none","500","test","BY","36","","",""
"-1","-1","poldrack-single-stim","280","476855","0.0-241.0","sub-06_sess-03_2","","2000","0","fixation","","<div class = centerbox><div class = fixation>+</div></div>","none","2000","test","","","","",""
"271","71","poldrack-single-stim","281","479056","0.0-242.0","sub-06_sess-03_2","","2180","0","probe","","<div class = centerbox><div class = img-container><img src = ""/static/experiments/dot_pattern_expectancy/images/probe1.png""</img></div></div>","89,71","500","test","BY","36","71","true",""
"-1","-1","poldrack-single-stim","282","479576","0.0-243.0","sub-06_sess-03_2","","500","0","cue","","<div class = centerbox><div class = img-container><img src = ""/static/experiments/dot_pattern_expectancy/images/cue6.png""</img></div></div>","none","500","test","AX","37","","",""
"-1","-1","poldrack-single-stim","283","481596","0.0-244.0","sub-06_sess-03_2","","2000","0","fixation","","<div class = centerbox><div class = fixation>+</div></div>","none","2000","test","","","","",""
"581","89","poldrack-single-stim","284","483121","0.0-245.0","sub-06_sess-03_2","","1500","0","probe","","<div class = centerbox><div class = img-container><img src = ""/static/experiments/dot_pattern_expectancy/images/probe5.png""</img></div></div>","89,71","500","test","AX","37","89","true",""
"-1","-1","poldrack-single-stim","285","483639","0.0-246.0","sub-06_sess-03_2","","500","0","cue","","<div class = centerbox><div class = img-container><img src = ""/static/experiments/dot_pattern_expectancy/images/cue6.png""</img></div></div>","none","500","test","AY","38","","",""
"-1","-1","poldrack-single-stim","286","485656","0.0-247.0","sub-06_sess-03_2","","2000","0","fixation","","<div class = centerbox><div class = fixation>+</div></div>","none","2000","test","","","","",""
"664","71","poldrack-single-stim","287","487296","0.0-248.0","sub-06_sess-03_2","","1636","0","probe","","<div class = centerbox><div class = img-container><img src = ""/static/experiments/dot_pattern_expectancy/images/probe2.png""</img></div></div>","89,71","500","test","AY","38","71","true",""
"-1","-1","poldrack-single-stim","288","487816","0.0-249.0","sub-06_sess-03_2","","500","0","cue","","<div class = centerbox><div class = img-container><img src = ""/static/experiments/dot_pattern_expectancy/images/cue6.png""</img></div></div>","none","500","test","AX","39","","",""
"-1","-1","poldrack-single-stim","289","489826","0.0-250.0","sub-06_sess-03_2","","2000","0","fixation","","<div class = centerbox><div class = fixation>+</div></div>","none","2000","test","","","","",""
"407","89","poldrack-single-stim","290","491464","0.0-251.0","sub-06_sess-03_2","","1636","0","probe","","<div class = centerbox><div class = img-container><img src = ""/static/experiments/dot_pattern_expectancy/images/probe5.png""</img></div></div>","89,71","500","test","AX","39","89","true",""
"-1","-1","poldrack-single-stim","291","498976","0.0-252.0","sub-06_sess-03_2","","7500","1000","rest_block","","<div class = centerbox><div class = center-text>+</div></div>","none","7500","","","","","",""
"-1","-1","poldrack-single-stim","292","501507","0.0-253.0","sub-06_sess-03_2","","1500","500","test_start_block","","<div class = centerbox><div class = center-text>Preparez-vous!</p></div>","none","1500","","","","","",""
"-1","-1","poldrack-single-stim","293","502546","0.0-254.0","sub-06_sess-03_2","","500","0","cue","","<div class = centerbox><div class = img-container><img src = ""/static/experiments/dot_pattern_expectancy/images/cue6.png""</img></div></div>","none","500","test","AX","0","","",""
"-1","-1","poldrack-single-stim","294","504567","0.0-255.0","sub-06_sess-03_2","","2000","0","fixation","","<div class = centerbox><div class = fixation>+</div></div>","none","2000","test","","","","",""
"423","89","poldrack-single-stim","295","506767","0.0-256.0","sub-06_sess-03_2","","2180","0","probe","","<div class = centerbox><div class = img-container><img src = ""/static/experiments/dot_pattern_expectancy/images/probe5.png""</img></div></div>","89,71","500","test","AX","0","89","true",""
"-1","-1","poldrack-single-stim","296","507286","0.0-257.0","sub-06_sess-03_2","","500","0","cue","","<div class = centerbox><div class = img-container><img src = ""/static/experiments/dot_pattern_expectancy/images/cue6.png""</img></div></div>","none","500","test","AY","1","","",""
"-1","-1","poldrack-single-stim","297","509296","0.0-258.0","sub-06_sess-03_2","","2000","0","fixation","","<div class = centerbox><div class = fixation>+</div></div>","none","2000","test","","","","",""
"640","71","poldrack-single-stim","298","511616","0.0-259.0","sub-06_sess-03_2","","2316","0","probe","","<div class = centerbox><div class = img-container><img src = ""/static/experiments/dot_pattern_expectancy/images/probe4.png""</img></div></div>","89,71","500","test","AY","1","71","true",""
"-1","-1","poldrack-single-stim","299","512136","0.0-260.0","sub-06_sess-03_2","","500","0","cue","","<div class = centerbox><div class = img-container><img src = ""/static/experiments/dot_pattern_expectancy/images/cue6.png""</img></div></div>","none","500","test","AY","2","","",""
"-1","-1","poldrack-single-stim","300","514157","0.0-261.0","sub-06_sess-03_2","","2000","0","fixation","","<div class = centerbox><div class = fixation>+</div></div>","none","2000","test","","","","",""
"550","71","poldrack-single-stim","301","515796","0.0-262.0","sub-06_sess-03_2","","1636","0","probe","","<div class = centerbox><div class = img-container><img src = ""/static/experiments/dot_pattern_expectancy/images/probe4.png""</img></div></div>","89,71","500","test","AY","2","71","true",""
"-1","-1","poldrack-single-stim","302","516316","0.0-263.0","sub-06_sess-03_2","","500","0","cue","","<div class = centerbox><div class = img-container><img src = ""/static/experiments/dot_pattern_expectancy/images/cue5.png""</img></div></div>","none","500","test","BX","3","","",""
"-1","-1","poldrack-single-stim","303","518327","0.0-264.0","sub-06_sess-03_2","","2000","0","fixation","","<div class = centerbox><div class = fixation>+</div></div>","none","2000","test","","","","",""
"910","71","poldrack-single-stim","304","520246","0.0-265.0","sub-06_sess-03_2","","1908","0","probe","","<div class = centerbox><div class = img-container><img src = ""/static/experiments/dot_pattern_expectancy/images/probe5.png""</img></div></div>","89,71","500","test","BX","3","71","true",""
"-1","-1","poldrack-single-stim","305","520766","0.0-266.0","sub-06_sess-03_2","","500","0","cue","","<div class = centerbox><div class = img-container><img src = ""/static/experiments/dot_pattern_expectancy/images/cue6.png""</img></div></div>","none","500","test","AX","4","","",""
"-1","-1","poldrack-single-stim","306","522793","0.0-267.0","sub-06_sess-03_2","","2000","0","fixation","","<div class = centerbox><div class = fixation>+</div></div>","none","2000","test","","","","",""
"624","89","poldrack-single-stim","307","526356","0.0-268.0","sub-06_sess-03_2","","3540","0","probe","","<div class = centerbox><div class = img-container><img src = ""/static/experiments/dot_pattern_expectancy/images/probe5.png""</img></div></div>","89,71","500","test","AX","4","89","true",""
"-1","-1","poldrack-single-stim","308","526876","0.0-269.0","sub-06_sess-03_2","","500","0","cue","","<div class = centerbox><div class = img-container><img src = ""/static/experiments/dot_pattern_expectancy/images/cue4.png""</img></div></div>","none","500","test","BX","5","","",""
"-1","-1","poldrack-single-stim","309","528895","0.0-270.0","sub-06_sess-03_2","","2000","0","fixation","","<div class = centerbox><div class = fixation>+</div></div>","none","2000","test","","","","",""
"752","71","poldrack-single-stim","310","530535","0.0-271.0","sub-06_sess-03_2","","1636","0","probe","","<div class = centerbox><div class = img-container><img src = ""/static/experiments/dot_pattern_expectancy/images/probe5.png""</img></div></div>","89,71","500","test","BX","5","71","true",""
"-1","-1","poldrack-single-stim","311","531055","0.0-272.0","sub-06_sess-03_2","","500","0","cue","","<div class = centerbox><div class = img-container><img src = ""/static/experiments/dot_pattern_expectancy/images/cue5.png""</img></div></div>","none","500","test","BY","6","","",""
"-1","-1","poldrack-single-stim","312","533077","0.0-273.0","sub-06_sess-03_2","","2000","0","fixation","","<div class = centerbox><div class = fixation>+</div></div>","none","2000","test","","","","",""
"405","71","poldrack-single-stim","313","534586","0.0-274.0","sub-06_sess-03_2","","1500","0","probe","","<div class = centerbox><div class = img-container><img src = ""/static/experiments/dot_pattern_expectancy/images/probe2.png""</img></div></div>","89,71","500","test","BY","6","71","true",""
"-1","-1","poldrack-single-stim","314","535106","0.0-275.0","sub-06_sess-03_2","","500","0","cue","","<div class = centerbox><div class = img-container><img src = ""/static/experiments/dot_pattern_expectancy/images/cue6.png""</img></div></div>","none","500","test","AX","7","","",""
"-1","-1","poldrack-single-stim","315","537126","0.0-276.0","sub-06_sess-03_2","","2000","0","fixation","","<div class = centerbox><div class = fixation>+</div></div>","none","2000","test","","","","",""
"566","89","poldrack-single-stim","316","538645","0.0-277.0","sub-06_sess-03_2","","1500","0","probe","","<div class = centerbox><div class = img-container><img src = ""/static/experiments/dot_pattern_expectancy/images/probe5.png""</img></div></div>","89,71","500","test","AX","7","89","true",""
"-1","-1","poldrack-single-stim","317","539166","0.0-278.0","sub-06_sess-03_2","","500","0","cue","","<div class = centerbox><div class = img-container><img src = ""/static/experiments/dot_pattern_expectancy/images/cue6.png""</img></div></div>","none","500","test","AX","8","","",""
"-1","-1","poldrack-single-stim","318","541176","0.0-279.0","sub-06_sess-03_2","","2000","0","fixation","","<div class = centerbox><div class = fixation>+</div></div>","none","2000","test","","","","",""
"492","89","poldrack-single-stim","319","542955","0.0-280.0","sub-06_sess-03_2","","1772","0","probe","","<div class = centerbox><div class = img-container><img src = ""/static/experiments/dot_pattern_expectancy/images/probe5.png""</img></div></div>","89,71","500","test","AX","8","89","true",""
"-1","-1","poldrack-single-stim","320","543477","0.0-281.0","sub-06_sess-03_2","","500","0","cue","","<div class = centerbox><div class = img-container><img src = ""/static/experiments/dot_pattern_expectancy/images/cue2.png""</img></div></div>","none","500","test","BY","9","","",""
"-1","-1","poldrack-single-stim","321","545501","0.0-282.0","sub-06_sess-03_2","","2000","0","fixation","","<div class = centerbox><div class = fixation>+</div></div>","none","2000","test","","","","",""
"287","71","poldrack-single-stim","322","547975","0.0-283.0","sub-06_sess-03_2","","2452","0","probe","","<div class = centerbox><div class = img-container><img src = ""/static/experiments/dot_pattern_expectancy/images/probe4.png""</img></div></div>","89,71","500","test","BY","9","71","true",""
"-1","-1","poldrack-single-stim","323","548485","0.0-284.0","sub-06_sess-03_2","","500","0","cue","","<div class = centerbox><div class = img-container><img src = ""/static/experiments/dot_pattern_expectancy/images/cue6.png""</img></div></div>","none","500","test","AX","10","","",""
"-1","-1","poldrack-single-stim","324","550496","0.0-285.0","sub-06_sess-03_2","","2000","0","fixation","","<div class = centerbox><div class = fixation>+</div></div>","none","2000","test","","","","",""
"595","89","poldrack-single-stim","325","552416","0.0-286.0","sub-06_sess-03_2","","1908","0","probe","","<div class = centerbox><div class = img-container><img src = ""/static/experiments/dot_pattern_expectancy/images/probe5.png""</img></div></div>","89,71","500","test","AX","10","89","true",""
"-1","-1","poldrack-single-stim","326","552935","0.0-287.0","sub-06_sess-03_2","","500","0","cue","","<div class = centerbox><div class = img-container><img src = ""/static/experiments/dot_pattern_expectancy/images/cue5.png""</img></div></div>","none","500","test","BX","11","","",""
"-1","-1","poldrack-single-stim","327","554956","0.0-288.0","sub-06_sess-03_2","","2000","0","fixation","","<div class = centerbox><div class = fixation>+</div></div>","none","2000","test","","","","",""
"247","71","poldrack-single-stim","328","556615","0.0-289.0","sub-06_sess-03_2","","1636","0","probe","","<div class = centerbox><div class = img-container><img src = ""/static/experiments/dot_pattern_expectancy/images/probe5.png""</img></div></div>","89,71","500","test","BX","11","71","true",""
"-1","-1","poldrack-single-stim","329","557137","0.0-290.0","sub-06_sess-03_2","","500","0","cue","","<div class = centerbox><div class = img-container><img src = ""/static/experiments/dot_pattern_expectancy/images/cue6.png""</img></div></div>","none","500","test","AX","12","","",""
"-1","-1","poldrack-single-stim","330","559156","0.0-291.0","sub-06_sess-03_2","","2000","0","fixation","","<div class = centerbox><div class = fixation>+</div></div>","none","2000","test","","","","",""
"501","89","poldrack-single-stim","331","560675","0.0-292.0","sub-06_sess-03_2","","1500","0","probe","","<div class = centerbox><div class = img-container><img src = ""/static/experiments/dot_pattern_expectancy/images/probe5.png""</img></div></div>","89,71","500","test","AX","12","89","true",""
"-1","-1","poldrack-single-stim","332","561185","0.0-293.0","sub-06_sess-03_2","","500","0","cue","","<div class = centerbox><div class = img-container><img src = ""/static/experiments/dot_pattern_expectancy/images/cue6.png""</img></div></div>","none","500","test","AX","13","","",""
"-1","-1","poldrack-single-stim","333","563195","0.0-294.0","sub-06_sess-03_2","","2000","0","fixation","","<div class = centerbox><div class = fixation>+</div></div>","none","2000","test","","","","",""
"427","89","poldrack-single-stim","334","564835","0.0-295.0","sub-06_sess-03_2","","1636","0","probe","","<div class = centerbox><div class = img-container><img src = ""/static/experiments/dot_pattern_expectancy/images/probe5.png""</img></div></div>","89,71","500","test","AX","13","89","true",""
"-1","-1","poldrack-single-stim","335","565357","0.0-296.0","sub-06_sess-03_2","","500","0","cue","","<div class = centerbox><div class = img-container><img src = ""/static/experiments/dot_pattern_expectancy/images/cue6.png""</img></div></div>","none","500","test","AX","14","","",""
"-1","-1","poldrack-single-stim","336","567377","0.0-297.0","sub-06_sess-03_2","","2000","0","fixation","","<div class = centerbox><div class = fixation>+</div></div>","none","2000","test","","","","",""
"385","89","poldrack-single-stim","337","569016","0.0-298.0","sub-06_sess-03_2","","1636","0","probe","","<div class = centerbox><div class = img-container><img src = ""/static/experiments/dot_pattern_expectancy/images/probe5.png""</img></div></div>","89,71","500","test","AX","14","89","true",""
"-1","-1","poldrack-single-stim","338","569536","0.0-299.0","sub-06_sess-03_2","","500","0","cue","","<div class = centerbox><div class = img-container><img src = ""/static/experiments/dot_pattern_expectancy/images/cue4.png""</img></div></div>","none","500","test","BY","15","","",""
"-1","-1","poldrack-single-stim","339","571545","0.0-300.0","sub-06_sess-03_2","","2000","0","fixation","","<div class = centerbox><div class = fixation>+</div></div>","none","2000","test","","","","",""
"248","71","poldrack-single-stim","340","574005","0.0-301.0","sub-06_sess-03_2","","2452","0","probe","","<div class = centerbox><div class = img-container><img src = ""/static/experiments/dot_pattern_expectancy/images/probe2.png""</img></div></div>","89,71","500","test","BY","15","71","true",""
"-1","-1","poldrack-single-stim","341","574527","0.0-302.0","sub-06_sess-03_2","","500","0","cue","","<div class = centerbox><div class = img-container><img src = ""/static/experiments/dot_pattern_expectancy/images/cue6.png""</img></div></div>","none","500","test","AX","16","","",""
"-1","-1","poldrack-single-stim","342","576537","0.0-303.0","sub-06_sess-03_2","","2000","0","fixation","","<div class = centerbox><div class = fixation>+</div></div>","none","2000","test","","","","",""
"513","89","poldrack-single-stim","343","578055","0.0-304.0","sub-06_sess-03_2","","1500","0","probe","","<div class = centerbox><div class = img-container><img src = ""/static/experiments/dot_pattern_expectancy/images/probe5.png""</img></div></div>","89,71","500","test","AX","16","89","true",""
"-1","-1","poldrack-single-stim","344","578576","0.0-305.0","sub-06_sess-03_2","","500","0","cue","","<div class = centerbox><div class = img-container><img src = ""/static/experiments/dot_pattern_expectancy/images/cue4.png""</img></div></div>","none","500","test","BY","17","","",""
"-1","-1","poldrack-single-stim","345","580586","0.0-306.0","sub-06_sess-03_2","","2000","0","fixation","","<div class = centerbox><div class = fixation>+</div></div>","none","2000","test","","","","",""
"490","71","poldrack-single-stim","346","582106","0.0-307.0","sub-06_sess-03_2","","1500","0","probe","","<div class = centerbox><div class = img-container><img src = ""/static/experiments/dot_pattern_expectancy/images/probe6.png""</img></div></div>","89,71","500","test","BY","17","71","true",""
"-1","-1","poldrack-single-stim","347","582626","0.0-308.0","sub-06_sess-03_2","","500","0","cue","","<div class = centerbox><div class = img-container><img src = ""/static/experiments/dot_pattern_expectancy/images/cue6.png""</img></div></div>","none","500","test","AX","18","","",""
"-1","-1","poldrack-single-stim","348","584645","0.0-309.0","sub-06_sess-03_2","","2000","0","fixation","","<div class = centerbox><div class = fixation>+</div></div>","none","2000","test","","","","",""
"849","89","poldrack-single-stim","349","586285","0.0-310.0","sub-06_sess-03_2","","1636","0","probe","","<div class = centerbox><div class = img-container><img src = ""/static/experiments/dot_pattern_expectancy/images/probe5.png""</img></div></div>","89,71","500","test","AX","18","89","true",""
"-1","-1","poldrack-single-stim","350","586804","0.0-311.0","sub-06_sess-03_2","","500","0","cue","","<div class = centerbox><div class = img-container><img src = ""/static/experiments/dot_pattern_expectancy/images/cue6.png""</img></div></div>","none","500","test","AX","19","","",""
"-1","-1","poldrack-single-stim","351","588817","0.0-312.0","sub-06_sess-03_2","","2000","0","fixation","","<div class = centerbox><div class = fixation>+</div></div>","none","2000","test","","","","",""
"532","89","poldrack-single-stim","352","590455","0.0-313.0","sub-06_sess-03_2","","1636","0","probe","","<div class = centerbox><div class = img-container><img src = ""/static/experiments/dot_pattern_expectancy/images/probe5.png""</img></div></div>","89,71","500","test","AX","19","89","true",""
"-1","-1","poldrack-single-stim","353","590976","0.0-314.0","sub-06_sess-03_2","","500","0","cue","","<div class = centerbox><div class = img-container><img src = ""/static/experiments/dot_pattern_expectancy/images/cue6.png""</img></div></div>","none","500","test","AY","20","","",""
"-1","-1","poldrack-single-stim","354","592987","0.0-315.0","sub-06_sess-03_2","","2000","0","fixation","","<div class = centerbox><div class = fixation>+</div></div>","none","2000","test","","","","",""
"832","71","poldrack-single-stim","355","594625","0.0-316.0","sub-06_sess-03_2","","1636","0","probe","","<div class = centerbox><div class = img-container><img src = ""/static/experiments/dot_pattern_expectancy/images/probe1.png""</img></div></div>","89,71","500","test","AY","20","71","true",""
"-1","-1","poldrack-single-stim","356","595146","0.0-317.0","sub-06_sess-03_2","","500","0","cue","","<div class = centerbox><div class = img-container><img src = ""/static/experiments/dot_pattern_expectancy/images/cue6.png""</img></div></div>","none","500","test","AX","21","","",""
"-1","-1","poldrack-single-stim","357","597166","0.0-318.0","sub-06_sess-03_2","","2000","0","fixation","","<div class = centerbox><div class = fixation>+</div></div>","none","2000","test","","","","",""
"583","89","poldrack-single-stim","358","598676","0.0-319.0","sub-06_sess-03_2","","1500","0","probe","","<div class = centerbox><div class = img-container><img src = ""/static/experiments/dot_pattern_expectancy/images/probe5.png""</img></div></div>","89,71","500","test","AX","21","89","true",""
"-1","-1","poldrack-single-stim","359","599196","0.0-320.0","sub-06_sess-03_2","","500","0","cue","","<div class = centerbox><div class = img-container><img src = ""/static/experiments/dot_pattern_expectancy/images/cue6.png""</img></div></div>","none","500","test","AX","22","","",""
"-1","-1","poldrack-single-stim","360","601217","0.0-321.0","sub-06_sess-03_2","","2000","0","fixation","","<div class = centerbox><div class = fixation>+</div></div>","none","2000","test","","","","",""
"771","89","poldrack-single-stim","361","602735","0.0-322.0","sub-06_sess-03_2","","1500","0","probe","","<div class = centerbox><div class = img-container><img src = ""/static/experiments/dot_pattern_expectancy/images/probe5.png""</img></div></div>","89,71","500","test","AX","22","89","true",""
"-1","-1","poldrack-single-stim","362","603255","0.0-323.0","sub-06_sess-03_2","","500","0","cue","","<div class = centerbox><div class = img-container><img src = ""/static/experiments/dot_pattern_expectancy/images/cue6.png""</img></div></div>","none","500","test","AX","23","","",""
"-1","-1","poldrack-single-stim","363","605276","0.0-324.0","sub-06_sess-03_2","","2000","0","fixation","","<div class = centerbox><div class = fixation>+</div></div>","none","2000","test","","","","",""
"421","89","poldrack-single-stim","364","607055","0.0-325.0","sub-06_sess-03_2","","1772","0","probe","","<div class = centerbox><div class = img-container><img src = ""/static/experiments/dot_pattern_expectancy/images/probe5.png""</img></div></div>","89,71","500","test","AX","23","89","true",""
"-1","-1","poldrack-single-stim","365","607576","0.0-326.0","sub-06_sess-03_2","","500","0","cue","","<div class = centerbox><div class = img-container><img src = ""/static/experiments/dot_pattern_expectancy/images/cue6.png""</img></div></div>","none","500","test","AX","24","","",""
"-1","-1","poldrack-single-stim","366","609596","0.0-327.0","sub-06_sess-03_2","","2000","0","fixation","","<div class = centerbox><div class = fixation>+</div></div>","none","2000","test","","","","",""
"982","89","poldrack-single-stim","367","611785","0.0-328.0","sub-06_sess-03_2","","2180","0","probe","","<div class = centerbox><div class = img-container><img src = ""/static/experiments/dot_pattern_expectancy/images/probe5.png""</img></div></div>","89,71","500","test","AX","24","89","true",""
"-1","-1","poldrack-single-stim","368","612299","0.0-329.0","sub-06_sess-03_2","","500","0","cue","","<div class = centerbox><div class = img-container><img src = ""/static/experiments/dot_pattern_expectancy/images/cue1.png""</img></div></div>","none","500","test","BX","25","","",""
"-1","-1","poldrack-single-stim","369","614316","0.0-330.0","sub-06_sess-03_2","","2000","0","fixation","","<div class = centerbox><div class = fixation>+</div></div>","none","2000","test","","","","",""
"353","71","poldrack-single-stim","370","616095","0.0-331.0","sub-06_sess-03_2","","1772","0","probe","","<div class = centerbox><div class = img-container><img src = ""/static/experiments/dot_pattern_expectancy/images/probe5.png""</img></div></div>","89,71","500","test","BX","25","71","true",""
"-1","-1","poldrack-single-stim","371","616616","0.0-332.0","sub-06_sess-03_2","","500","0","cue","","<div class = centerbox><div class = img-container><img src = ""/static/experiments/dot_pattern_expectancy/images/cue2.png""</img></div></div>","none","500","test","BY","26","","",""
"-1","-1","poldrack-single-stim","372","618636","0.0-333.0","sub-06_sess-03_2","","2000","0","fixation","","<div class = centerbox><div class = fixation>+</div></div>","none","2000","test","","","","",""
"402","71","poldrack-single-stim","373","620155","0.0-334.0","sub-06_sess-03_2","","1500","0","probe","","<div class = centerbox><div class = img-container><img src = ""/static/experiments/dot_pattern_expectancy/images/probe1.png""</img></div></div>","89,71","500","test","BY","26","71","true",""
"-1","-1","poldrack-single-stim","374","620677","0.0-335.0","sub-06_sess-03_2","","500","0","cue","","<div class = centerbox><div class = img-container><img src = ""/static/experiments/dot_pattern_expectancy/images/cue6.png""</img></div></div>","none","500","test","AX","27","","",""
"-1","-1","poldrack-single-stim","375","622697","0.0-336.0","sub-06_sess-03_2","","2000","0","fixation","","<div class = centerbox><div class = fixation>+</div></div>","none","2000","test","","","","",""
"637","89","poldrack-single-stim","376","624216","0.0-337.0","sub-06_sess-03_2","","1500","0","probe","","<div class = centerbox><div class = img-container><img src = ""/static/experiments/dot_pattern_expectancy/images/probe5.png""</img></div></div>","89,71","500","test","AX","27","89","true",""
"-1","-1","poldrack-single-stim","377","624737","0.0-338.0","sub-06_sess-03_2","","500","0","cue","","<div class = centerbox><div class = img-container><img src = ""/static/experiments/dot_pattern_expectancy/images/cue6.png""</img></div></div>","none","500","test","AX","28","","",""
"-1","-1","poldrack-single-stim","378","626746","0.0-339.0","sub-06_sess-03_2","","2000","0","fixation","","<div class = centerbox><div class = fixation>+</div></div>","none","2000","test","","","","",""
"561","89","poldrack-single-stim","379","628386","0.0-340.0","sub-06_sess-03_2","","1636","0","probe","","<div class = centerbox><div class = img-container><img src = ""/static/experiments/dot_pattern_expectancy/images/probe5.png""</img></div></div>","89,71","500","test","AX","28","89","true",""
"-1","-1","poldrack-single-stim","380","628907","0.0-341.0","sub-06_sess-03_2","","500","0","cue","","<div class = centerbox><div class = img-container><img src = ""/static/experiments/dot_pattern_expectancy/images/cue6.png""</img></div></div>","none","500","test","AY","29","","",""
"-1","-1","poldrack-single-stim","381","630917","0.0-342.0","sub-06_sess-03_2","","2000","0","fixation","","<div class = centerbox><div class = fixation>+</div></div>","none","2000","test","","","","",""
"987","71","poldrack-single-stim","382","633115","0.0-343.0","sub-06_sess-03_2","","2180","0","probe","","<div class = centerbox><div class = img-container><img src = ""/static/experiments/dot_pattern_expectancy/images/probe2.png""</img></div></div>","89,71","500","test","AY","29","71","true",""
