"rt","key_press","trial_type","trial_index","time_elapsed","internal_node_id","subject","text","block_duration","timing_post_trial","trial_id","stimulus","possible_responses","stim_duration","exp_stage","which_round","num_click_in_round","num_cards","num_loss_cards","gain_amount","loss_amount","round_points","clicked_on_loss_card","reward","exp_id"
"1496","13","text","0","1498","0.0-0.0","sub-11_ses-03_1","","","","","","","","","","","","","","","","","",""
"1698","89","poldrack-text","1","4212","0.0-1.0","sub-11_ses-03_1","<div class = centerbox><div style = 'font-size: 50px' class = center-text>Veuillez appuyer avec votre index</p></div>","1698","500","fmri_response_test","","","","","","","","","","","","","",""
"343","71","poldrack-text","2","5080","0.0-2.0","sub-11_ses-03_1","<div class = centerbox><div style = 'font-size: 50px' class = center-text>Veuillez appuyer avec votre majeur</p></div>","343","500","fmri_response_test","","","","","","","","","","","","","",""
"5946","32","poldrack-single-stim","3","11544","0.0-3.0","sub-11_ses-03_1","","5946","500","instructions","<div class = centerbox><div class = center-text><font size=""+3"">Essayez d'obtenir autant de points que possible<br><br>Le montant des pertres, le montant du gain et le nombre de cartes de perte peuvent changer a chaque essai<br><br>Index: Prendre autre carte <br>Majeur: Fin de la ronde</font></div></div>","32","5946","","","","","","","","","","",""
"555","32","poldrack-text","4","12609","0.0-4.0","sub-11_ses-03_1","<div class = centerbox><div  class = center-text>Scanner Setup</div></div>","555","0","fmri_scanner_wait","","","","","","","","","","","","","",""
"51303","84","poldrack-text","5","63914","0.0-5.0","sub-11_ses-03_1","<div class = centerbox><div style='color:red'; class = center-text>+</div></div>","51303","0","fmri_trigger_wait","","","","","","","","","","","","","",""
"-1","-1","poldrack-single-stim","6","64934","0.0-6.0","sub-11_ses-03_1","","1000","0","fmri_buffer","","none","1000","","","","","","","","","","",""
"-1","-1","poldrack-single-stim","7","66441","0.0-7.0","sub-11_ses-03_1","","1500","500","test_start_block","<div class = centerbox><div class = center-text>Preparez-vous!</p></div>","none","1500","","","","","","","","","","",""
"2741","89","poldrack-single-stim","8","69706","0.0-8.0-0.0-0.0","sub-11_ses-03_1","","2741","0","stim","<div class = cct-box><div class = titleBigBox>   <div class = titleboxLeft><div class = game-text id = game_round>Tour: 1</div></div>   <div class = titleboxLeft1><div class = game-text id = loss_amount>Pertes: -70</div></div>    <div class = titleboxMiddle1><div class = game-text id = gain_amount>Gains: 12</div></div>    <div class = titlebox><div class = game-text>Combien de cartes voulez-vous prendre? </div></div>     <div class = titleboxRight1><div class = game-text id = num_loss_cards><font size='+3'>Mauveaises Cartes: 1</font></div></div>   <div class = titleboxRight><div class = game-text id = current_round>Points du tour: 0</div></div><div class = cardbox><div class = square><input type='image' id = 1 class = 'card_image' src='/static/experiments/columbia_card_task_hot/images/beforeChosen.png'></div><div class = square><input type='image' id = 2 class = 'card_image' src='/static/experiments/columbia_card_task_hot/images/beforeChosen.png'></div><div class = square><input type='image' id = 3 class = 'card_image' src='/static/experiments/columbia_card_task_hot/images/beforeChosen.png'></div><div class = square><input type='image' id = 4 class = 'card_image' src='/static/experiments/columbia_card_task_hot/images/beforeChosen.png'></div><div class = square><input type='image' id = 5 class = 'card_image' src='/static/experiments/columbia_card_task_hot/images/beforeChosen.png'></div><div class = square><input type='image' id = 6 class = 'card_image' src='/static/experiments/columbia_card_task_hot/images/beforeChosen.png'></div></div>","89,71","2741","test","1","1","6","1","12","-70","12","false","",""
"573","89","poldrack-single-stim","9","70291","0.0-8.0-0.1-0.1","sub-11_ses-03_1","","573","0","stim","<div class = cct-box><div class = titleBigBox>   <div class = titleboxLeft><div class = game-text id = game_round>Tour: 1</div></div>   <div class = titleboxLeft1><div class = game-text id = loss_amount>Pertes: -70</div></div>    <div class = titleboxMiddle1><div class = game-text id = gain_amount>Gains: 12</div></div>    <div class = titlebox><div class = game-text>Combien de cartes voulez-vous prendre? </div></div>     <div class = titleboxRight1><div class = game-text id = num_loss_cards><font size='+3'>Mauveaises Cartes: 1</font></div></div>   <div class = titleboxRight><div class = game-text id = current_round>Points du tour: 12</div></div><div class = cardbox><div class = square><input type='image' id = 1 class = 'card_image' src='/static/experiments/columbia_card_task_hot/images/chosen.png'></div><div class = square><input type='image' id = 2 class = 'card_image' src='/static/experiments/columbia_card_task_hot/images/beforeChosen.png'></div><div class = square><input type='image' id = 3 class = 'card_image' src='/static/experiments/columbia_card_task_hot/images/beforeChosen.png'></div><div class = square><input type='image' id = 4 class = 'card_image' src='/static/experiments/columbia_card_task_hot/images/beforeChosen.png'></div><div class = square><input type='image' id = 5 class = 'card_image' src='/static/experiments/columbia_card_task_hot/images/beforeChosen.png'></div><div class = square><input type='image' id = 6 class = 'card_image' src='/static/experiments/columbia_card_task_hot/images/beforeChosen.png'></div></div>","89,71","573","test","1","2","6","1","12","-70","24","false","",""
"800","89","poldrack-single-stim","10","71099","0.0-8.0-0.2-0.2","sub-11_ses-03_1","","800","0","stim","<div class = cct-box><div class = titleBigBox>   <div class = titleboxLeft><div class = game-text id = game_round>Tour: 1</div></div>   <div class = titleboxLeft1><div class = game-text id = loss_amount>Pertes: -70</div></div>    <div class = titleboxMiddle1><div class = game-text id = gain_amount>Gains: 12</div></div>    <div class = titlebox><div class = game-text>Combien de cartes voulez-vous prendre? </div></div>     <div class = titleboxRight1><div class = game-text id = num_loss_cards><font size='+3'>Mauveaises Cartes: 1</font></div></div>   <div class = titleboxRight><div class = game-text id = current_round>Points du tour: 24</div></div><div class = cardbox><div class = square><input type='image' id = 1 class = 'card_image' src='/static/experiments/columbia_card_task_hot/images/chosen.png'></div><div class = square><input type='image' id = 2 class = 'card_image' src='/static/experiments/columbia_card_task_hot/images/chosen.png'></div><div class = square><input type='image' id = 3 class = 'card_image' src='/static/experiments/columbia_card_task_hot/images/beforeChosen.png'></div><div class = square><input type='image' id = 4 class = 'card_image' src='/static/experiments/columbia_card_task_hot/images/beforeChosen.png'></div><div class = square><input type='image' id = 5 class = 'card_image' src='/static/experiments/columbia_card_task_hot/images/beforeChosen.png'></div><div class = square><input type='image' id = 6 class = 'card_image' src='/static/experiments/columbia_card_task_hot/images/beforeChosen.png'></div></div>","89,71","800","test","1","3","6","1","12","-70","36","false","",""
"2610","71","poldrack-single-stim","11","73718","0.0-8.0-0.3-0.3","sub-11_ses-03_1","","2610","0","stim","<div class = cct-box><div class = titleBigBox>   <div class = titleboxLeft><div class = game-text id = game_round>Tour: 1</div></div>   <div class = titleboxLeft1><div class = game-text id = loss_amount>Pertes: -70</div></div>    <div class = titleboxMiddle1><div class = game-text id = gain_amount>Gains: 12</div></div>    <div class = titlebox><div class = game-text>Combien de cartes voulez-vous prendre? </div></div>     <div class = titleboxRight1><div class = game-text id = num_loss_cards><font size='+3'>Mauveaises Cartes: 1</font></div></div>   <div class = titleboxRight><div class = game-text id = current_round>Points du tour: 36</div></div><div class = cardbox><div class = square><input type='image' id = 1 class = 'card_image' src='/static/experiments/columbia_card_task_hot/images/chosen.png'></div><div class = square><input type='image' id = 2 class = 'card_image' src='/static/experiments/columbia_card_task_hot/images/chosen.png'></div><div class = square><input type='image' id = 3 class = 'card_image' src='/static/experiments/columbia_card_task_hot/images/beforeChosen.png'></div><div class = square><input type='image' id = 4 class = 'card_image' src='/static/experiments/columbia_card_task_hot/images/chosen.png'></div><div class = square><input type='image' id = 5 class = 'card_image' src='/static/experiments/columbia_card_task_hot/images/beforeChosen.png'></div><div class = square><input type='image' id = 6 class = 'card_image' src='/static/experiments/columbia_card_task_hot/images/beforeChosen.png'></div></div>","89,71","2610","test","1","3","6","1","12","-70","36","false","",""
"-1","-1","poldrack-single-stim","12","76193","0.0-8.0-1.0","sub-11_ses-03_1","","2454","0","ITI","<div class = cct-box><div class = titleBigBox>   <div class = titleboxLeft><div class = game-text id = game_round>Tour: 1</div></div>   <div class = titleboxLeft1><div class = game-text id = loss_amount>Pertes: -70</div></div>    <div class = titleboxMiddle1><div class = game-text id = gain_amount>Gains: 12</div></div>    <div class = titlebox><div class = game-text>Combien de cartes voulez-vous prendre? </div></div>     <div class = titleboxRight1><div class = game-text id = num_loss_cards><font size='+3'>Mauveaises Cartes: 1</font></div></div>   <div class = titleboxRight><div class = game-text id = current_round>Points du tour: 36</div></div><div class = cardbox><div class = square><input type='image' id = 1 class = 'card_image' src='/static/experiments/columbia_card_task_hot/images/chosen.png'></div><div class = square><input type='image' id = 2 class = 'card_image' src='/static/experiments/columbia_card_task_hot/images/chosen.png'></div><div class = square><input type='image' id = 3 class = 'card_image' src='/static/experiments/columbia_card_task_hot/images/beforeChosen.png'></div><div class = square><input type='image' id = 4 class = 'card_image' src='/static/experiments/columbia_card_task_hot/images/chosen.png'></div><div class = square><input type='image' id = 5 class = 'card_image' src='/static/experiments/columbia_card_task_hot/images/beforeChosen.png'></div><div class = square><input type='image' id = 6 class = 'card_image' src='/static/experiments/columbia_card_task_hot/images/beforeChosen.png'></div></div>","none","2250","","","","","","","","","","",""
"1300","89","poldrack-single-stim","13","77506","0.0-8.1-0.4-0.4","sub-11_ses-03_1","","1300","0","stim","<div class = cct-box><div class = titleBigBox>   <div class = titleboxLeft><div class = game-text id = game_round>Tour: 2</div></div>   <div class = titleboxLeft1><div class = game-text id = loss_amount>Pertes: -75</div></div>    <div class = titleboxMiddle1><div class = game-text id = gain_amount>Gains: 14</div></div>    <div class = titlebox><div class = game-text>Combien de cartes voulez-vous prendre? </div></div>     <div class = titleboxRight1><div class = game-text id = num_loss_cards><font size='+3'>Mauveaises Cartes: 1</font></div></div>   <div class = titleboxRight><div class = game-text id = current_round>Points du tour: 0</div></div><div class = cardbox><div class = square><input type='image' id = 1 class = 'card_image' src='/static/experiments/columbia_card_task_hot/images/beforeChosen.png'></div><div class = square><input type='image' id = 2 class = 'card_image' src='/static/experiments/columbia_card_task_hot/images/beforeChosen.png'></div><div class = square><input type='image' id = 3 class = 'card_image' src='/static/experiments/columbia_card_task_hot/images/beforeChosen.png'></div><div class = square><input type='image' id = 4 class = 'card_image' src='/static/experiments/columbia_card_task_hot/images/beforeChosen.png'></div><div class = square><input type='image' id = 5 class = 'card_image' src='/static/experiments/columbia_card_task_hot/images/beforeChosen.png'></div><div class = square><input type='image' id = 6 class = 'card_image' src='/static/experiments/columbia_card_task_hot/images/beforeChosen.png'></div></div>","89,71","1300","test","2","1","6","1","14","-75","14","false","",""
"414","89","poldrack-single-stim","14","77925","0.0-8.1-0.5-0.5","sub-11_ses-03_1","","414","0","stim","<div class = cct-box><div class = titleBigBox>   <div class = titleboxLeft><div class = game-text id = game_round>Tour: 2</div></div>   <div class = titleboxLeft1><div class = game-text id = loss_amount>Pertes: -75</div></div>    <div class = titleboxMiddle1><div class = game-text id = gain_amount>Gains: 14</div></div>    <div class = titlebox><div class = game-text>Combien de cartes voulez-vous prendre? </div></div>     <div class = titleboxRight1><div class = game-text id = num_loss_cards><font size='+3'>Mauveaises Cartes: 1</font></div></div>   <div class = titleboxRight><div class = game-text id = current_round>Points du tour: 14</div></div><div class = cardbox><div class = square><input type='image' id = 1 class = 'card_image' src='/static/experiments/columbia_card_task_hot/images/beforeChosen.png'></div><div class = square><input type='image' id = 2 class = 'card_image' src='/static/experiments/columbia_card_task_hot/images/beforeChosen.png'></div><div class = square><input type='image' id = 3 class = 'card_image' src='/static/experiments/columbia_card_task_hot/images/beforeChosen.png'></div><div class = square><input type='image' id = 4 class = 'card_image' src='/static/experiments/columbia_card_task_hot/images/chosen.png'></div><div class = square><input type='image' id = 5 class = 'card_image' src='/static/experiments/columbia_card_task_hot/images/beforeChosen.png'></div><div class = square><input type='image' id = 6 class = 'card_image' src='/static/experiments/columbia_card_task_hot/images/beforeChosen.png'></div></div>","89,71","414","test","2","2","6","1","14","-75","-61","true","",""
"-1","-1","poldrack-single-stim","15","80391","0.0-8.1-1.1","sub-11_ses-03_1","","2454","0","ITI","<div class = cct-box><div class = titleBigBox>   <div class = titleboxLeft><div class = game-text id = game_round>Tour: 2</div></div>   <div class = titleboxLeft1><div class = game-text id = loss_amount>Pertes: -75</div></div>    <div class = titleboxMiddle1><div class = game-text id = gain_amount>Gains: 14</div></div>    <div class = titlebox><div class = game-text>Combien de cartes voulez-vous prendre? </div></div>     <div class = titleboxRight1><div class = game-text id = num_loss_cards><font size='+3'>Mauveaises Cartes: 1</font></div></div>   <div class = titleboxRight><div class = game-text id = current_round>Points du tour: -61</div></div><div class = cardbox><div class = square><input type='image' id = 1 class = 'card_image' src='/static/experiments/columbia_card_task_hot/images/beforeChosen.png'></div><div class = square><input type='image' id = 2 class = 'card_image' src='/static/experiments/columbia_card_task_hot/images/beforeChosen.png'></div><div class = square><input type='image' id = 3 class = 'card_image' src='/static/experiments/columbia_card_task_hot/images/beforeChosen.png'></div><div class = square><input type='image' id = 4 class = 'card_image' src='/static/experiments/columbia_card_task_hot/images/chosen.png'></div><div class = square><input type='image' id = 5 class = 'card_image' src='/static/experiments/columbia_card_task_hot/images/loss.png'></div><div class = square><input type='image' id = 6 class = 'card_image' src='/static/experiments/columbia_card_task_hot/images/beforeChosen.png'></div></div>","none","2250","","","","","","","","","","",""
"704","89","poldrack-single-stim","16","81098","0.0-8.2-0.6-0.6","sub-11_ses-03_1","","704","0","stim","<div class = cct-box><div class = titleBigBox>   <div class = titleboxLeft><div class = game-text id = game_round>Tour: 3</div></div>   <div class = titleboxLeft1><div class = game-text id = loss_amount>Pertes: -70</div></div>    <div class = titleboxMiddle1><div class = game-text id = gain_amount>Gains: 15</div></div>    <div class = titlebox><div class = game-text>Combien de cartes voulez-vous prendre? </div></div>     <div class = titleboxRight1><div class = game-text id = num_loss_cards><font size='+3'>Mauveaises Cartes: 1</font></div></div>   <div class = titleboxRight><div class = game-text id = current_round>Points du tour: 0</div></div><div class = cardbox><div class = square><input type='image' id = 1 class = 'card_image' src='/static/experiments/columbia_card_task_hot/images/beforeChosen.png'></div><div class = square><input type='image' id = 2 class = 'card_image' src='/static/experiments/columbia_card_task_hot/images/beforeChosen.png'></div><div class = square><input type='image' id = 3 class = 'card_image' src='/static/experiments/columbia_card_task_hot/images/beforeChosen.png'></div><div class = square><input type='image' id = 4 class = 'card_image' src='/static/experiments/columbia_card_task_hot/images/beforeChosen.png'></div><div class = square><input type='image' id = 5 class = 'card_image' src='/static/experiments/columbia_card_task_hot/images/beforeChosen.png'></div><div class = square><input type='image' id = 6 class = 'card_image' src='/static/experiments/columbia_card_task_hot/images/beforeChosen.png'></div></div>","89,71","704","test","3","1","6","1","15","-70","15","false","",""
"823","89","poldrack-single-stim","17","81925","0.0-8.2-0.7-0.7","sub-11_ses-03_1","","823","0","stim","<div class = cct-box><div class = titleBigBox>   <div class = titleboxLeft><div class = game-text id = game_round>Tour: 3</div></div>   <div class = titleboxLeft1><div class = game-text id = loss_amount>Pertes: -70</div></div>    <div class = titleboxMiddle1><div class = game-text id = gain_amount>Gains: 15</div></div>    <div class = titlebox><div class = game-text>Combien de cartes voulez-vous prendre? </div></div>     <div class = titleboxRight1><div class = game-text id = num_loss_cards><font size='+3'>Mauveaises Cartes: 1</font></div></div>   <div class = titleboxRight><div class = game-text id = current_round>Points du tour: 15</div></div><div class = cardbox><div class = square><input type='image' id = 1 class = 'card_image' src='/static/experiments/columbia_card_task_hot/images/beforeChosen.png'></div><div class = square><input type='image' id = 2 class = 'card_image' src='/static/experiments/columbia_card_task_hot/images/beforeChosen.png'></div><div class = square><input type='image' id = 3 class = 'card_image' src='/static/experiments/columbia_card_task_hot/images/beforeChosen.png'></div><div class = square><input type='image' id = 4 class = 'card_image' src='/static/experiments/columbia_card_task_hot/images/beforeChosen.png'></div><div class = square><input type='image' id = 5 class = 'card_image' src='/static/experiments/columbia_card_task_hot/images/chosen.png'></div><div class = square><input type='image' id = 6 class = 'card_image' src='/static/experiments/columbia_card_task_hot/images/beforeChosen.png'></div></div>","89,71","823","test","3","2","6","1","15","-70","30","false","",""
"1288","89","poldrack-single-stim","18","83218","0.0-8.2-0.8-0.8","sub-11_ses-03_1","","1288","0","stim","<div class = cct-box><div class = titleBigBox>   <div class = titleboxLeft><div class = game-text id = game_round>Tour: 3</div></div>   <div class = titleboxLeft1><div class = game-text id = loss_amount>Pertes: -70</div></div>    <div class = titleboxMiddle1><div class = game-text id = gain_amount>Gains: 15</div></div>    <div class = titlebox><div class = game-text>Combien de cartes voulez-vous prendre? </div></div>     <div class = titleboxRight1><div class = game-text id = num_loss_cards><font size='+3'>Mauveaises Cartes: 1</font></div></div>   <div class = titleboxRight><div class = game-text id = current_round>Points du tour: 30</div></div><div class = cardbox><div class = square><input type='image' id = 1 class = 'card_image' src='/static/experiments/columbia_card_task_hot/images/beforeChosen.png'></div><div class = square><input type='image' id = 2 class = 'card_image' src='/static/experiments/columbia_card_task_hot/images/beforeChosen.png'></div><div class = square><input type='image' id = 3 class = 'card_image' src='/static/experiments/columbia_card_task_hot/images/chosen.png'></div><div class = square><input type='image' id = 4 class = 'card_image' src='/static/experiments/columbia_card_task_hot/images/beforeChosen.png'></div><div class = square><input type='image' id = 5 class = 'card_image' src='/static/experiments/columbia_card_task_hot/images/chosen.png'></div><div class = square><input type='image' id = 6 class = 'card_image' src='/static/experiments/columbia_card_task_hot/images/beforeChosen.png'></div></div>","89,71","1288","test","3","3","6","1","15","-70","-40","true","",""
"-1","-1","poldrack-single-stim","19","85762","0.0-8.2-1.2","sub-11_ses-03_1","","2522","0","ITI","<div class = cct-box><div class = titleBigBox>   <div class = titleboxLeft><div class = game-text id = game_round>Tour: 3</div></div>   <div class = titleboxLeft1><div class = game-text id = loss_amount>Pertes: -70</div></div>    <div class = titleboxMiddle1><div class = game-text id = gain_amount>Gains: 15</div></div>    <div class = titlebox><div class = game-text>Combien de cartes voulez-vous prendre? </div></div>     <div class = titleboxRight1><div class = game-text id = num_loss_cards><font size='+3'>Mauveaises Cartes: 1</font></div></div>   <div class = titleboxRight><div class = game-text id = current_round>Points du tour: -40</div></div><div class = cardbox><div class = square><input type='image' id = 1 class = 'card_image' src='/static/experiments/columbia_card_task_hot/images/beforeChosen.png'></div><div class = square><input type='image' id = 2 class = 'card_image' src='/static/experiments/columbia_card_task_hot/images/beforeChosen.png'></div><div class = square><input type='image' id = 3 class = 'card_image' src='/static/experiments/columbia_card_task_hot/images/chosen.png'></div><div class = square><input type='image' id = 4 class = 'card_image' src='/static/experiments/columbia_card_task_hot/images/loss.png'></div><div class = square><input type='image' id = 5 class = 'card_image' src='/static/experiments/columbia_card_task_hot/images/chosen.png'></div><div class = square><input type='image' id = 6 class = 'card_image' src='/static/experiments/columbia_card_task_hot/images/beforeChosen.png'></div></div>","none","2250","","","","","","","","","","",""
"864","89","poldrack-single-stim","20","86633","0.0-8.3-0.9-0.9","sub-11_ses-03_1","","864","0","stim","<div class = cct-box><div class = titleBigBox>   <div class = titleboxLeft><div class = game-text id = game_round>Tour: 4</div></div>   <div class = titleboxLeft1><div class = game-text id = loss_amount>Pertes: -75</div></div>    <div class = titleboxMiddle1><div class = game-text id = gain_amount>Gains: 17</div></div>    <div class = titlebox><div class = game-text>Combien de cartes voulez-vous prendre? </div></div>     <div class = titleboxRight1><div class = game-text id = num_loss_cards><font size='+3'>Mauveaises Cartes: 1</font></div></div>   <div class = titleboxRight><div class = game-text id = current_round>Points du tour: 0</div></div><div class = cardbox><div class = square><input type='image' id = 1 class = 'card_image' src='/static/experiments/columbia_card_task_hot/images/beforeChosen.png'></div><div class = square><input type='image' id = 2 class = 'card_image' src='/static/experiments/columbia_card_task_hot/images/beforeChosen.png'></div><div class = square><input type='image' id = 3 class = 'card_image' src='/static/experiments/columbia_card_task_hot/images/beforeChosen.png'></div><div class = square><input type='image' id = 4 class = 'card_image' src='/static/experiments/columbia_card_task_hot/images/beforeChosen.png'></div><div class = square><input type='image' id = 5 class = 'card_image' src='/static/experiments/columbia_card_task_hot/images/beforeChosen.png'></div><div class = square><input type='image' id = 6 class = 'card_image' src='/static/experiments/columbia_card_task_hot/images/beforeChosen.png'></div></div>","89,71","864","test","4","1","6","1","17","-75","17","false","",""
"879","89","poldrack-single-stim","21","87516","0.0-8.3-0.10-0.10","sub-11_ses-03_1","","879","0","stim","<div class = cct-box><div class = titleBigBox>   <div class = titleboxLeft><div class = game-text id = game_round>Tour: 4</div></div>   <div class = titleboxLeft1><div class = game-text id = loss_amount>Pertes: -75</div></div>    <div class = titleboxMiddle1><div class = game-text id = gain_amount>Gains: 17</div></div>    <div class = titlebox><div class = game-text>Combien de cartes voulez-vous prendre? </div></div>     <div class = titleboxRight1><div class = game-text id = num_loss_cards><font size='+3'>Mauveaises Cartes: 1</font></div></div>   <div class = titleboxRight><div class = game-text id = current_round>Points du tour: 17</div></div><div class = cardbox><div class = square><input type='image' id = 1 class = 'card_image' src='/static/experiments/columbia_card_task_hot/images/beforeChosen.png'></div><div class = square><input type='image' id = 2 class = 'card_image' src='/static/experiments/columbia_card_task_hot/images/beforeChosen.png'></div><div class = square><input type='image' id = 3 class = 'card_image' src='/static/experiments/columbia_card_task_hot/images/beforeChosen.png'></div><div class = square><input type='image' id = 4 class = 'card_image' src='/static/experiments/columbia_card_task_hot/images/beforeChosen.png'></div><div class = square><input type='image' id = 5 class = 'card_image' src='/static/experiments/columbia_card_task_hot/images/chosen.png'></div><div class = square><input type='image' id = 6 class = 'card_image' src='/static/experiments/columbia_card_task_hot/images/beforeChosen.png'></div></div>","89,71","879","test","4","2","6","1","17","-75","-58","true","",""
"-1","-1","poldrack-single-stim","22","89990","0.0-8.3-1.3","sub-11_ses-03_1","","2454","0","ITI","<div class = cct-box><div class = titleBigBox>   <div class = titleboxLeft><div class = game-text id = game_round>Tour: 4</div></div>   <div class = titleboxLeft1><div class = game-text id = loss_amount>Pertes: -75</div></div>    <div class = titleboxMiddle1><div class = game-text id = gain_amount>Gains: 17</div></div>    <div class = titlebox><div class = game-text>Combien de cartes voulez-vous prendre? </div></div>     <div class = titleboxRight1><div class = game-text id = num_loss_cards><font size='+3'>Mauveaises Cartes: 1</font></div></div>   <div class = titleboxRight><div class = game-text id = current_round>Points du tour: -58</div></div><div class = cardbox><div class = square><input type='image' id = 1 class = 'card_image' src='/static/experiments/columbia_card_task_hot/images/beforeChosen.png'></div><div class = square><input type='image' id = 2 class = 'card_image' src='/static/experiments/columbia_card_task_hot/images/beforeChosen.png'></div><div class = square><input type='image' id = 3 class = 'card_image' src='/static/experiments/columbia_card_task_hot/images/beforeChosen.png'></div><div class = square><input type='image' id = 4 class = 'card_image' src='/static/experiments/columbia_card_task_hot/images/beforeChosen.png'></div><div class = square><input type='image' id = 5 class = 'card_image' src='/static/experiments/columbia_card_task_hot/images/chosen.png'></div><div class = square><input type='image' id = 6 class = 'card_image' src='/static/experiments/columbia_card_task_hot/images/loss.png'></div></div>","none","2250","","","","","","","","","","",""
"900","89","poldrack-single-stim","23","90894","0.0-8.4-0.11-0.11","sub-11_ses-03_1","","900","0","stim","<div class = cct-box><div class = titleBigBox>   <div class = titleboxLeft><div class = game-text id = game_round>Tour: 5</div></div>   <div class = titleboxLeft1><div class = game-text id = loss_amount>Pertes: -60</div></div>    <div class = titleboxMiddle1><div class = game-text id = gain_amount>Gains: 24</div></div>    <div class = titlebox><div class = game-text>Combien de cartes voulez-vous prendre? </div></div>     <div class = titleboxRight1><div class = game-text id = num_loss_cards><font size='+3'>Mauveaises Cartes: 2</font></div></div>   <div class = titleboxRight><div class = game-text id = current_round>Points du tour: 0</div></div><div class = cardbox><div class = square><input type='image' id = 1 class = 'card_image' src='/static/experiments/columbia_card_task_hot/images/beforeChosen.png'></div><div class = square><input type='image' id = 2 class = 'card_image' src='/static/experiments/columbia_card_task_hot/images/beforeChosen.png'></div><div class = square><input type='image' id = 3 class = 'card_image' src='/static/experiments/columbia_card_task_hot/images/beforeChosen.png'></div><div class = square><input type='image' id = 4 class = 'card_image' src='/static/experiments/columbia_card_task_hot/images/beforeChosen.png'></div><div class = square><input type='image' id = 5 class = 'card_image' src='/static/experiments/columbia_card_task_hot/images/beforeChosen.png'></div><div class = square><input type='image' id = 6 class = 'card_image' src='/static/experiments/columbia_card_task_hot/images/beforeChosen.png'></div><div class = square><input type='image' id = 7 class = 'card_image' src='/static/experiments/columbia_card_task_hot/images/beforeChosen.png'></div><div class = square><input type='image' id = 8 class = 'card_image' src='/static/experiments/columbia_card_task_hot/images/beforeChosen.png'></div></div>","89,71","900","test","5","1","8","2","24","-60","-60","true","",""
"-1","-1","poldrack-single-stim","24","93573","0.0-8.4-1.4","sub-11_ses-03_1","","2658","0","ITI","<div class = cct-box><div class = titleBigBox>   <div class = titleboxLeft><div class = game-text id = game_round>Tour: 5</div></div>   <div class = titleboxLeft1><div class = game-text id = loss_amount>Pertes: -60</div></div>    <div class = titleboxMiddle1><div class = game-text id = gain_amount>Gains: 24</div></div>    <div class = titlebox><div class = game-text>Combien de cartes voulez-vous prendre? </div></div>     <div class = titleboxRight1><div class = game-text id = num_loss_cards><font size='+3'>Mauveaises Cartes: 2</font></div></div>   <div class = titleboxRight><div class = game-text id = current_round>Points du tour: -60</div></div><div class = cardbox><div class = square><input type='image' id = 1 class = 'card_image' src='/static/experiments/columbia_card_task_hot/images/beforeChosen.png'></div><div class = square><input type='image' id = 2 class = 'card_image' src='/static/experiments/columbia_card_task_hot/images/loss.png'></div><div class = square><input type='image' id = 3 class = 'card_image' src='/static/experiments/columbia_card_task_hot/images/beforeChosen.png'></div><div class = square><input type='image' id = 4 class = 'card_image' src='/static/experiments/columbia_card_task_hot/images/beforeChosen.png'></div><div class = square><input type='image' id = 5 class = 'card_image' src='/static/experiments/columbia_card_task_hot/images/beforeChosen.png'></div><div class = square><input type='image' id = 6 class = 'card_image' src='/static/experiments/columbia_card_task_hot/images/beforeChosen.png'></div><div class = square><input type='image' id = 7 class = 'card_image' src='/static/experiments/columbia_card_task_hot/images/beforeChosen.png'></div><div class = square><input type='image' id = 8 class = 'card_image' src='/static/experiments/columbia_card_task_hot/images/beforeChosen.png'></div></div>","none","2250","","","","","","","","","","",""
"1052","89","poldrack-single-stim","25","94632","0.0-8.5-0.12-0.12","sub-11_ses-03_1","","1052","0","stim","<div class = cct-box><div class = titleBigBox>   <div class = titleboxLeft><div class = game-text id = game_round>Tour: 6</div></div>   <div class = titleboxLeft1><div class = game-text id = loss_amount>Pertes: -75</div></div>    <div class = titleboxMiddle1><div class = game-text id = gain_amount>Gains: 29</div></div>    <div class = titlebox><div class = game-text>Combien de cartes voulez-vous prendre? </div></div>     <div class = titleboxRight1><div class = game-text id = num_loss_cards><font size='+3'>Mauveaises Cartes: 2</font></div></div>   <div class = titleboxRight><div class = game-text id = current_round>Points du tour: 0</div></div><div class = cardbox><div class = square><input type='image' id = 1 class = 'card_image' src='/static/experiments/columbia_card_task_hot/images/beforeChosen.png'></div><div class = square><input type='image' id = 2 class = 'card_image' src='/static/experiments/columbia_card_task_hot/images/beforeChosen.png'></div><div class = square><input type='image' id = 3 class = 'card_image' src='/static/experiments/columbia_card_task_hot/images/beforeChosen.png'></div><div class = square><input type='image' id = 4 class = 'card_image' src='/static/experiments/columbia_card_task_hot/images/beforeChosen.png'></div><div class = square><input type='image' id = 5 class = 'card_image' src='/static/experiments/columbia_card_task_hot/images/beforeChosen.png'></div><div class = square><input type='image' id = 6 class = 'card_image' src='/static/experiments/columbia_card_task_hot/images/beforeChosen.png'></div><div class = square><input type='image' id = 7 class = 'card_image' src='/static/experiments/columbia_card_task_hot/images/beforeChosen.png'></div><div class = square><input type='image' id = 8 class = 'card_image' src='/static/experiments/columbia_card_task_hot/images/beforeChosen.png'></div></div>","89,71","1052","test","6","1","8","2","29","-75","29","false","",""
"773","71","poldrack-single-stim","26","95411","0.0-8.5-0.13-0.13","sub-11_ses-03_1","","773","0","stim","<div class = cct-box><div class = titleBigBox>   <div class = titleboxLeft><div class = game-text id = game_round>Tour: 6</div></div>   <div class = titleboxLeft1><div class = game-text id = loss_amount>Pertes: -75</div></div>    <div class = titleboxMiddle1><div class = game-text id = gain_amount>Gains: 29</div></div>    <div class = titlebox><div class = game-text>Combien de cartes voulez-vous prendre? </div></div>     <div class = titleboxRight1><div class = game-text id = num_loss_cards><font size='+3'>Mauveaises Cartes: 2</font></div></div>   <div class = titleboxRight><div class = game-text id = current_round>Points du tour: 29</div></div><div class = cardbox><div class = square><input type='image' id = 1 class = 'card_image' src='/static/experiments/columbia_card_task_hot/images/beforeChosen.png'></div><div class = square><input type='image' id = 2 class = 'card_image' src='/static/experiments/columbia_card_task_hot/images/beforeChosen.png'></div><div class = square><input type='image' id = 3 class = 'card_image' src='/static/experiments/columbia_card_task_hot/images/beforeChosen.png'></div><div class = square><input type='image' id = 4 class = 'card_image' src='/static/experiments/columbia_card_task_hot/images/beforeChosen.png'></div><div class = square><input type='image' id = 5 class = 'card_image' src='/static/experiments/columbia_card_task_hot/images/beforeChosen.png'></div><div class = square><input type='image' id = 6 class = 'card_image' src='/static/experiments/columbia_card_task_hot/images/chosen.png'></div><div class = square><input type='image' id = 7 class = 'card_image' src='/static/experiments/columbia_card_task_hot/images/beforeChosen.png'></div><div class = square><input type='image' id = 8 class = 'card_image' src='/static/experiments/columbia_card_task_hot/images/beforeChosen.png'></div></div>","89,71","773","test","6","1","8","2","29","-75","29","false","",""
"-1","-1","poldrack-single-stim","27","97811","0.0-8.5-1.5","sub-11_ses-03_1","","2386","0","ITI","<div class = cct-box><div class = titleBigBox>   <div class = titleboxLeft><div class = game-text id = game_round>Tour: 6</div></div>   <div class = titleboxLeft1><div class = game-text id = loss_amount>Pertes: -75</div></div>    <div class = titleboxMiddle1><div class = game-text id = gain_amount>Gains: 29</div></div>    <div class = titlebox><div class = game-text>Combien de cartes voulez-vous prendre? </div></div>     <div class = titleboxRight1><div class = game-text id = num_loss_cards><font size='+3'>Mauveaises Cartes: 2</font></div></div>   <div class = titleboxRight><div class = game-text id = current_round>Points du tour: 29</div></div><div class = cardbox><div class = square><input type='image' id = 1 class = 'card_image' src='/static/experiments/columbia_card_task_hot/images/beforeChosen.png'></div><div class = square><input type='image' id = 2 class = 'card_image' src='/static/experiments/columbia_card_task_hot/images/beforeChosen.png'></div><div class = square><input type='image' id = 3 class = 'card_image' src='/static/experiments/columbia_card_task_hot/images/beforeChosen.png'></div><div class = square><input type='image' id = 4 class = 'card_image' src='/static/experiments/columbia_card_task_hot/images/beforeChosen.png'></div><div class = square><input type='image' id = 5 class = 'card_image' src='/static/experiments/columbia_card_task_hot/images/beforeChosen.png'></div><div class = square><input type='image' id = 6 class = 'card_image' src='/static/experiments/columbia_card_task_hot/images/chosen.png'></div><div class = square><input type='image' id = 7 class = 'card_image' src='/static/experiments/columbia_card_task_hot/images/beforeChosen.png'></div><div class = square><input type='image' id = 8 class = 'card_image' src='/static/experiments/columbia_card_task_hot/images/beforeChosen.png'></div></div>","none","2250","","","","","","","","","","",""
"859","89","poldrack-single-stim","28","98674","0.0-8.6-0.14-0.14","sub-11_ses-03_1","","859","0","stim","<div class = cct-box><div class = titleBigBox>   <div class = titleboxLeft><div class = game-text id = game_round>Tour: 7</div></div>   <div class = titleboxLeft1><div class = game-text id = loss_amount>Pertes: -65</div></div>    <div class = titleboxMiddle1><div class = game-text id = gain_amount>Gains: 17</div></div>    <div class = titlebox><div class = game-text>Combien de cartes voulez-vous prendre? </div></div>     <div class = titleboxRight1><div class = game-text id = num_loss_cards><font size='+3'>Mauveaises Cartes: 2</font></div></div>   <div class = titleboxRight><div class = game-text id = current_round>Points du tour: 0</div></div><div class = cardbox><div class = square><input type='image' id = 1 class = 'card_image' src='/static/experiments/columbia_card_task_hot/images/beforeChosen.png'></div><div class = square><input type='image' id = 2 class = 'card_image' src='/static/experiments/columbia_card_task_hot/images/beforeChosen.png'></div><div class = square><input type='image' id = 3 class = 'card_image' src='/static/experiments/columbia_card_task_hot/images/beforeChosen.png'></div><div class = square><input type='image' id = 4 class = 'card_image' src='/static/experiments/columbia_card_task_hot/images/beforeChosen.png'></div><div class = square><input type='image' id = 5 class = 'card_image' src='/static/experiments/columbia_card_task_hot/images/beforeChosen.png'></div><div class = square><input type='image' id = 6 class = 'card_image' src='/static/experiments/columbia_card_task_hot/images/beforeChosen.png'></div><div class = square><input type='image' id = 7 class = 'card_image' src='/static/experiments/columbia_card_task_hot/images/beforeChosen.png'></div><div class = square><input type='image' id = 8 class = 'card_image' src='/static/experiments/columbia_card_task_hot/images/beforeChosen.png'></div><div class = square><input type='image' id = 9 class = 'card_image' src='/static/experiments/columbia_card_task_hot/images/beforeChosen.png'></div></div>","89,71","859","test","7","1","9","2","17","-65","17","false","",""
"875","89","poldrack-single-stim","29","99555","0.0-8.6-0.15-0.15","sub-11_ses-03_1","","875","0","stim","<div class = cct-box><div class = titleBigBox>   <div class = titleboxLeft><div class = game-text id = game_round>Tour: 7</div></div>   <div class = titleboxLeft1><div class = game-text id = loss_amount>Pertes: -65</div></div>    <div class = titleboxMiddle1><div class = game-text id = gain_amount>Gains: 17</div></div>    <div class = titlebox><div class = game-text>Combien de cartes voulez-vous prendre? </div></div>     <div class = titleboxRight1><div class = game-text id = num_loss_cards><font size='+3'>Mauveaises Cartes: 2</font></div></div>   <div class = titleboxRight><div class = game-text id = current_round>Points du tour: 17</div></div><div class = cardbox><div class = square><input type='image' id = 1 class = 'card_image' src='/static/experiments/columbia_card_task_hot/images/beforeChosen.png'></div><div class = square><input type='image' id = 2 class = 'card_image' src='/static/experiments/columbia_card_task_hot/images/beforeChosen.png'></div><div class = square><input type='image' id = 3 class = 'card_image' src='/static/experiments/columbia_card_task_hot/images/beforeChosen.png'></div><div class = square><input type='image' id = 4 class = 'card_image' src='/static/experiments/columbia_card_task_hot/images/beforeChosen.png'></div><div class = square><input type='image' id = 5 class = 'card_image' src='/static/experiments/columbia_card_task_hot/images/chosen.png'></div><div class = square><input type='image' id = 6 class = 'card_image' src='/static/experiments/columbia_card_task_hot/images/beforeChosen.png'></div><div class = square><input type='image' id = 7 class = 'card_image' src='/static/experiments/columbia_card_task_hot/images/beforeChosen.png'></div><div class = square><input type='image' id = 8 class = 'card_image' src='/static/experiments/columbia_card_task_hot/images/beforeChosen.png'></div><div class = square><input type='image' id = 9 class = 'card_image' src='/static/experiments/columbia_card_task_hot/images/beforeChosen.png'></div></div>","89,71","875","test","7","2","9","2","17","-65","-48","true","",""
"-1","-1","poldrack-single-stim","30","102102","0.0-8.6-1.6","sub-11_ses-03_1","","2522","0","ITI","<div class = cct-box><div class = titleBigBox>   <div class = titleboxLeft><div class = game-text id = game_round>Tour: 7</div></div>   <div class = titleboxLeft1><div class = game-text id = loss_amount>Pertes: -65</div></div>    <div class = titleboxMiddle1><div class = game-text id = gain_amount>Gains: 17</div></div>    <div class = titlebox><div class = game-text>Combien de cartes voulez-vous prendre? </div></div>     <div class = titleboxRight1><div class = game-text id = num_loss_cards><font size='+3'>Mauveaises Cartes: 2</font></div></div>   <div class = titleboxRight><div class = game-text id = current_round>Points du tour: -48</div></div><div class = cardbox><div class = square><input type='image' id = 1 class = 'card_image' src='/static/experiments/columbia_card_task_hot/images/loss.png'></div><div class = square><input type='image' id = 2 class = 'card_image' src='/static/experiments/columbia_card_task_hot/images/beforeChosen.png'></div><div class = square><input type='image' id = 3 class = 'card_image' src='/static/experiments/columbia_card_task_hot/images/beforeChosen.png'></div><div class = square><input type='image' id = 4 class = 'card_image' src='/static/experiments/columbia_card_task_hot/images/beforeChosen.png'></div><div class = square><input type='image' id = 5 class = 'card_image' src='/static/experiments/columbia_card_task_hot/images/chosen.png'></div><div class = square><input type='image' id = 6 class = 'card_image' src='/static/experiments/columbia_card_task_hot/images/beforeChosen.png'></div><div class = square><input type='image' id = 7 class = 'card_image' src='/static/experiments/columbia_card_task_hot/images/beforeChosen.png'></div><div class = square><input type='image' id = 8 class = 'card_image' src='/static/experiments/columbia_card_task_hot/images/beforeChosen.png'></div><div class = square><input type='image' id = 9 class = 'card_image' src='/static/experiments/columbia_card_task_hot/images/beforeChosen.png'></div></div>","none","2250","","","","","","","","","","",""
"891","89","poldrack-single-stim","31","102999","0.0-8.7-0.16-0.16","sub-11_ses-03_1","","891","0","stim","<div class = cct-box><div class = titleBigBox>   <div class = titleboxLeft><div class = game-text id = game_round>Tour: 8</div></div>   <div class = titleboxLeft1><div class = game-text id = loss_amount>Pertes: -95</div></div>    <div class = titleboxMiddle1><div class = game-text id = gain_amount>Gains: 14</div></div>    <div class = titlebox><div class = game-text>Combien de cartes voulez-vous prendre? </div></div>     <div class = titleboxRight1><div class = game-text id = num_loss_cards><font size='+3'>Mauveaises Cartes: 1</font></div></div>   <div class = titleboxRight><div class = game-text id = current_round>Points du tour: 0</div></div><div class = cardbox><div class = square><input type='image' id = 1 class = 'card_image' src='/static/experiments/columbia_card_task_hot/images/beforeChosen.png'></div><div class = square><input type='image' id = 2 class = 'card_image' src='/static/experiments/columbia_card_task_hot/images/beforeChosen.png'></div><div class = square><input type='image' id = 3 class = 'card_image' src='/static/experiments/columbia_card_task_hot/images/beforeChosen.png'></div><div class = square><input type='image' id = 4 class = 'card_image' src='/static/experiments/columbia_card_task_hot/images/beforeChosen.png'></div><div class = square><input type='image' id = 5 class = 'card_image' src='/static/experiments/columbia_card_task_hot/images/beforeChosen.png'></div><div class = square><input type='image' id = 6 class = 'card_image' src='/static/experiments/columbia_card_task_hot/images/beforeChosen.png'></div><div class = square><input type='image' id = 7 class = 'card_image' src='/static/experiments/columbia_card_task_hot/images/beforeChosen.png'></div><div class = square><input type='image' id = 8 class = 'card_image' src='/static/experiments/columbia_card_task_hot/images/beforeChosen.png'></div><div class = square><input type='image' id = 9 class = 'card_image' src='/static/experiments/columbia_card_task_hot/images/beforeChosen.png'></div><div class = square><input type='image' id = 10 class = 'card_image' src='/static/experiments/columbia_card_task_hot/images/beforeChosen.png'></div></div>","89,71","891","test","8","1","10","1","14","-95","14","false","",""
"1645","89","poldrack-single-stim","32","104690","0.0-8.7-0.17-0.17","sub-11_ses-03_1","","1645","0","stim","<div class = cct-box><div class = titleBigBox>   <div class = titleboxLeft><div class = game-text id = game_round>Tour: 8</div></div>   <div class = titleboxLeft1><div class = game-text id = loss_amount>Pertes: -95</div></div>    <div class = titleboxMiddle1><div class = game-text id = gain_amount>Gains: 14</div></div>    <div class = titlebox><div class = game-text>Combien de cartes voulez-vous prendre? </div></div>     <div class = titleboxRight1><div class = game-text id = num_loss_cards><font size='+3'>Mauveaises Cartes: 1</font></div></div>   <div class = titleboxRight><div class = game-text id = current_round>Points du tour: 14</div></div><div class = cardbox><div class = square><input type='image' id = 1 class = 'card_image' src='/static/experiments/columbia_card_task_hot/images/beforeChosen.png'></div><div class = square><input type='image' id = 2 class = 'card_image' src='/static/experiments/columbia_card_task_hot/images/beforeChosen.png'></div><div class = square><input type='image' id = 3 class = 'card_image' src='/static/experiments/columbia_card_task_hot/images/beforeChosen.png'></div><div class = square><input type='image' id = 4 class = 'card_image' src='/static/experiments/columbia_card_task_hot/images/chosen.png'></div><div class = square><input type='image' id = 5 class = 'card_image' src='/static/experiments/columbia_card_task_hot/images/beforeChosen.png'></div><div class = square><input type='image' id = 6 class = 'card_image' src='/static/experiments/columbia_card_task_hot/images/beforeChosen.png'></div><div class = square><input type='image' id = 7 class = 'card_image' src='/static/experiments/columbia_card_task_hot/images/beforeChosen.png'></div><div class = square><input type='image' id = 8 class = 'card_image' src='/static/experiments/columbia_card_task_hot/images/beforeChosen.png'></div><div class = square><input type='image' id = 9 class = 'card_image' src='/static/experiments/columbia_card_task_hot/images/beforeChosen.png'></div><div class = square><input type='image' id = 10 class = 'card_image' src='/static/experiments/columbia_card_task_hot/images/beforeChosen.png'></div></div>","89,71","1645","test","8","2","10","1","14","-95","28","false","",""
"764","89","poldrack-single-stim","33","105459","0.0-8.7-0.18-0.18","sub-11_ses-03_1","","764","0","stim","<div class = cct-box><div class = titleBigBox>   <div class = titleboxLeft><div class = game-text id = game_round>Tour: 8</div></div>   <div class = titleboxLeft1><div class = game-text id = loss_amount>Pertes: -95</div></div>    <div class = titleboxMiddle1><div class = game-text id = gain_amount>Gains: 14</div></div>    <div class = titlebox><div class = game-text>Combien de cartes voulez-vous prendre? </div></div>     <div class = titleboxRight1><div class = game-text id = num_loss_cards><font size='+3'>Mauveaises Cartes: 1</font></div></div>   <div class = titleboxRight><div class = game-text id = current_round>Points du tour: 28</div></div><div class = cardbox><div class = square><input type='image' id = 1 class = 'card_image' src='/static/experiments/columbia_card_task_hot/images/beforeChosen.png'></div><div class = square><input type='image' id = 2 class = 'card_image' src='/static/experiments/columbia_card_task_hot/images/beforeChosen.png'></div><div class = square><input type='image' id = 3 class = 'card_image' src='/static/experiments/columbia_card_task_hot/images/beforeChosen.png'></div><div class = square><input type='image' id = 4 class = 'card_image' src='/static/experiments/columbia_card_task_hot/images/chosen.png'></div><div class = square><input type='image' id = 5 class = 'card_image' src='/static/experiments/columbia_card_task_hot/images/beforeChosen.png'></div><div class = square><input type='image' id = 6 class = 'card_image' src='/static/experiments/columbia_card_task_hot/images/beforeChosen.png'></div><div class = square><input type='image' id = 7 class = 'card_image' src='/static/experiments/columbia_card_task_hot/images/beforeChosen.png'></div><div class = square><input type='image' id = 8 class = 'card_image' src='/static/experiments/columbia_card_task_hot/images/chosen.png'></div><div class = square><input type='image' id = 9 class = 'card_image' src='/static/experiments/columbia_card_task_hot/images/beforeChosen.png'></div><div class = square><input type='image' id = 10 class = 'card_image' src='/static/experiments/columbia_card_task_hot/images/beforeChosen.png'></div></div>","89,71","764","test","8","3","10","1","14","-95","42","false","",""
"749","89","poldrack-single-stim","34","106212","0.0-8.7-0.19-0.19","sub-11_ses-03_1","","749","0","stim","<div class = cct-box><div class = titleBigBox>   <div class = titleboxLeft><div class = game-text id = game_round>Tour: 8</div></div>   <div class = titleboxLeft1><div class = game-text id = loss_amount>Pertes: -95</div></div>    <div class = titleboxMiddle1><div class = game-text id = gain_amount>Gains: 14</div></div>    <div class = titlebox><div class = game-text>Combien de cartes voulez-vous prendre? </div></div>     <div class = titleboxRight1><div class = game-text id = num_loss_cards><font size='+3'>Mauveaises Cartes: 1</font></div></div>   <div class = titleboxRight><div class = game-text id = current_round>Points du tour: 42</div></div><div class = cardbox><div class = square><input type='image' id = 1 class = 'card_image' src='/static/experiments/columbia_card_task_hot/images/beforeChosen.png'></div><div class = square><input type='image' id = 2 class = 'card_image' src='/static/experiments/columbia_card_task_hot/images/chosen.png'></div><div class = square><input type='image' id = 3 class = 'card_image' src='/static/experiments/columbia_card_task_hot/images/beforeChosen.png'></div><div class = square><input type='image' id = 4 class = 'card_image' src='/static/experiments/columbia_card_task_hot/images/chosen.png'></div><div class = square><input type='image' id = 5 class = 'card_image' src='/static/experiments/columbia_card_task_hot/images/beforeChosen.png'></div><div class = square><input type='image' id = 6 class = 'card_image' src='/static/experiments/columbia_card_task_hot/images/beforeChosen.png'></div><div class = square><input type='image' id = 7 class = 'card_image' src='/static/experiments/columbia_card_task_hot/images/beforeChosen.png'></div><div class = square><input type='image' id = 8 class = 'card_image' src='/static/experiments/columbia_card_task_hot/images/chosen.png'></div><div class = square><input type='image' id = 9 class = 'card_image' src='/static/experiments/columbia_card_task_hot/images/beforeChosen.png'></div><div class = square><input type='image' id = 10 class = 'card_image' src='/static/experiments/columbia_card_task_hot/images/beforeChosen.png'></div></div>","89,71","749","test","8","4","10","1","14","-95","56","false","",""
"762","71","poldrack-single-stim","35","106985","0.0-8.7-0.20-0.20","sub-11_ses-03_1","","762","0","stim","<div class = cct-box><div class = titleBigBox>   <div class = titleboxLeft><div class = game-text id = game_round>Tour: 8</div></div>   <div class = titleboxLeft1><div class = game-text id = loss_amount>Pertes: -95</div></div>    <div class = titleboxMiddle1><div class = game-text id = gain_amount>Gains: 14</div></div>    <div class = titlebox><div class = game-text>Combien de cartes voulez-vous prendre? </div></div>     <div class = titleboxRight1><div class = game-text id = num_loss_cards><font size='+3'>Mauveaises Cartes: 1</font></div></div>   <div class = titleboxRight><div class = game-text id = current_round>Points du tour: 56</div></div><div class = cardbox><div class = square><input type='image' id = 1 class = 'card_image' src='/static/experiments/columbia_card_task_hot/images/chosen.png'></div><div class = square><input type='image' id = 2 class = 'card_image' src='/static/experiments/columbia_card_task_hot/images/chosen.png'></div><div class = square><input type='image' id = 3 class = 'card_image' src='/static/experiments/columbia_card_task_hot/images/beforeChosen.png'></div><div class = square><input type='image' id = 4 class = 'card_image' src='/static/experiments/columbia_card_task_hot/images/chosen.png'></div><div class = square><input type='image' id = 5 class = 'card_image' src='/static/experiments/columbia_card_task_hot/images/beforeChosen.png'></div><div class = square><input type='image' id = 6 class = 'card_image' src='/static/experiments/columbia_card_task_hot/images/beforeChosen.png'></div><div class = square><input type='image' id = 7 class = 'card_image' src='/static/experiments/columbia_card_task_hot/images/beforeChosen.png'></div><div class = square><input type='image' id = 8 class = 'card_image' src='/static/experiments/columbia_card_task_hot/images/chosen.png'></div><div class = square><input type='image' id = 9 class = 'card_image' src='/static/experiments/columbia_card_task_hot/images/beforeChosen.png'></div><div class = square><input type='image' id = 10 class = 'card_image' src='/static/experiments/columbia_card_task_hot/images/beforeChosen.png'></div></div>","89,71","762","test","8","4","10","1","14","-95","56","false","",""
"-1","-1","poldrack-single-stim","36","109590","0.0-8.7-1.7","sub-11_ses-03_1","","2590","0","ITI","<div class = cct-box><div class = titleBigBox>   <div class = titleboxLeft><div class = game-text id = game_round>Tour: 8</div></div>   <div class = titleboxLeft1><div class = game-text id = loss_amount>Pertes: -95</div></div>    <div class = titleboxMiddle1><div class = game-text id = gain_amount>Gains: 14</div></div>    <div class = titlebox><div class = game-text>Combien de cartes voulez-vous prendre? </div></div>     <div class = titleboxRight1><div class = game-text id = num_loss_cards><font size='+3'>Mauveaises Cartes: 1</font></div></div>   <div class = titleboxRight><div class = game-text id = current_round>Points du tour: 56</div></div><div class = cardbox><div class = square><input type='image' id = 1 class = 'card_image' src='/static/experiments/columbia_card_task_hot/images/chosen.png'></div><div class = square><input type='image' id = 2 class = 'card_image' src='/static/experiments/columbia_card_task_hot/images/chosen.png'></div><div class = square><input type='image' id = 3 class = 'card_image' src='/static/experiments/columbia_card_task_hot/images/beforeChosen.png'></div><div class = square><input type='image' id = 4 class = 'card_image' src='/static/experiments/columbia_card_task_hot/images/chosen.png'></div><div class = square><input type='image' id = 5 class = 'card_image' src='/static/experiments/columbia_card_task_hot/images/beforeChosen.png'></div><div class = square><input type='image' id = 6 class = 'card_image' src='/static/experiments/columbia_card_task_hot/images/beforeChosen.png'></div><div class = square><input type='image' id = 7 class = 'card_image' src='/static/experiments/columbia_card_task_hot/images/beforeChosen.png'></div><div class = square><input type='image' id = 8 class = 'card_image' src='/static/experiments/columbia_card_task_hot/images/chosen.png'></div><div class = square><input type='image' id = 9 class = 'card_image' src='/static/experiments/columbia_card_task_hot/images/beforeChosen.png'></div><div class = square><input type='image' id = 10 class = 'card_image' src='/static/experiments/columbia_card_task_hot/images/beforeChosen.png'></div></div>","none","2250","","","","","","","","","","",""
"1110","89","poldrack-single-stim","37","110706","0.0-8.8-0.21-0.21","sub-11_ses-03_1","","1110","0","stim","<div class = cct-box><div class = titleBigBox>   <div class = titleboxLeft><div class = game-text id = game_round>Tour: 9</div></div>   <div class = titleboxLeft1><div class = game-text id = loss_amount>Pertes: -65</div></div>    <div class = titleboxMiddle1><div class = game-text id = gain_amount>Gains: 15</div></div>    <div class = titlebox><div class = game-text>Combien de cartes voulez-vous prendre? </div></div>     <div class = titleboxRight1><div class = game-text id = num_loss_cards><font size='+3'>Mauveaises Cartes: 2</font></div></div>   <div class = titleboxRight><div class = game-text id = current_round>Points du tour: 0</div></div><div class = cardbox><div class = square><input type='image' id = 1 class = 'card_image' src='/static/experiments/columbia_card_task_hot/images/beforeChosen.png'></div><div class = square><input type='image' id = 2 class = 'card_image' src='/static/experiments/columbia_card_task_hot/images/beforeChosen.png'></div><div class = square><input type='image' id = 3 class = 'card_image' src='/static/experiments/columbia_card_task_hot/images/beforeChosen.png'></div><div class = square><input type='image' id = 4 class = 'card_image' src='/static/experiments/columbia_card_task_hot/images/beforeChosen.png'></div><div class = square><input type='image' id = 5 class = 'card_image' src='/static/experiments/columbia_card_task_hot/images/beforeChosen.png'></div><div class = square><input type='image' id = 6 class = 'card_image' src='/static/experiments/columbia_card_task_hot/images/beforeChosen.png'></div><div class = square><input type='image' id = 7 class = 'card_image' src='/static/experiments/columbia_card_task_hot/images/beforeChosen.png'></div><div class = square><input type='image' id = 8 class = 'card_image' src='/static/experiments/columbia_card_task_hot/images/beforeChosen.png'></div><div class = square><input type='image' id = 9 class = 'card_image' src='/static/experiments/columbia_card_task_hot/images/beforeChosen.png'></div><div class = square><input type='image' id = 10 class = 'card_image' src='/static/experiments/columbia_card_task_hot/images/beforeChosen.png'></div></div>","89,71","1110","test","9","1","10","2","15","-65","15","false","",""
"547","89","poldrack-single-stim","38","111259","0.0-8.8-0.22-0.22","sub-11_ses-03_1","","547","0","stim","<div class = cct-box><div class = titleBigBox>   <div class = titleboxLeft><div class = game-text id = game_round>Tour: 9</div></div>   <div class = titleboxLeft1><div class = game-text id = loss_amount>Pertes: -65</div></div>    <div class = titleboxMiddle1><div class = game-text id = gain_amount>Gains: 15</div></div>    <div class = titlebox><div class = game-text>Combien de cartes voulez-vous prendre? </div></div>     <div class = titleboxRight1><div class = game-text id = num_loss_cards><font size='+3'>Mauveaises Cartes: 2</font></div></div>   <div class = titleboxRight><div class = game-text id = current_round>Points du tour: 15</div></div><div class = cardbox><div class = square><input type='image' id = 1 class = 'card_image' src='/static/experiments/columbia_card_task_hot/images/beforeChosen.png'></div><div class = square><input type='image' id = 2 class = 'card_image' src='/static/experiments/columbia_card_task_hot/images/chosen.png'></div><div class = square><input type='image' id = 3 class = 'card_image' src='/static/experiments/columbia_card_task_hot/images/beforeChosen.png'></div><div class = square><input type='image' id = 4 class = 'card_image' src='/static/experiments/columbia_card_task_hot/images/beforeChosen.png'></div><div class = square><input type='image' id = 5 class = 'card_image' src='/static/experiments/columbia_card_task_hot/images/beforeChosen.png'></div><div class = square><input type='image' id = 6 class = 'card_image' src='/static/experiments/columbia_card_task_hot/images/beforeChosen.png'></div><div class = square><input type='image' id = 7 class = 'card_image' src='/static/experiments/columbia_card_task_hot/images/beforeChosen.png'></div><div class = square><input type='image' id = 8 class = 'card_image' src='/static/experiments/columbia_card_task_hot/images/beforeChosen.png'></div><div class = square><input type='image' id = 9 class = 'card_image' src='/static/experiments/columbia_card_task_hot/images/beforeChosen.png'></div><div class = square><input type='image' id = 10 class = 'card_image' src='/static/experiments/columbia_card_task_hot/images/beforeChosen.png'></div></div>","89,71","547","test","9","2","10","2","15","-65","-50","true","",""
"-1","-1","poldrack-single-stim","39","113652","0.0-8.8-1.8","sub-11_ses-03_1","","2386","0","ITI","<div class = cct-box><div class = titleBigBox>   <div class = titleboxLeft><div class = game-text id = game_round>Tour: 9</div></div>   <div class = titleboxLeft1><div class = game-text id = loss_amount>Pertes: -65</div></div>    <div class = titleboxMiddle1><div class = game-text id = gain_amount>Gains: 15</div></div>    <div class = titlebox><div class = game-text>Combien de cartes voulez-vous prendre? </div></div>     <div class = titleboxRight1><div class = game-text id = num_loss_cards><font size='+3'>Mauveaises Cartes: 2</font></div></div>   <div class = titleboxRight><div class = game-text id = current_round>Points du tour: -50</div></div><div class = cardbox><div class = square><input type='image' id = 1 class = 'card_image' src='/static/experiments/columbia_card_task_hot/images/beforeChosen.png'></div><div class = square><input type='image' id = 2 class = 'card_image' src='/static/experiments/columbia_card_task_hot/images/chosen.png'></div><div class = square><input type='image' id = 3 class = 'card_image' src='/static/experiments/columbia_card_task_hot/images/beforeChosen.png'></div><div class = square><input type='image' id = 4 class = 'card_image' src='/static/experiments/columbia_card_task_hot/images/beforeChosen.png'></div><div class = square><input type='image' id = 5 class = 'card_image' src='/static/experiments/columbia_card_task_hot/images/beforeChosen.png'></div><div class = square><input type='image' id = 6 class = 'card_image' src='/static/experiments/columbia_card_task_hot/images/beforeChosen.png'></div><div class = square><input type='image' id = 7 class = 'card_image' src='/static/experiments/columbia_card_task_hot/images/beforeChosen.png'></div><div class = square><input type='image' id = 8 class = 'card_image' src='/static/experiments/columbia_card_task_hot/images/loss.png'></div><div class = square><input type='image' id = 9 class = 'card_image' src='/static/experiments/columbia_card_task_hot/images/beforeChosen.png'></div><div class = square><input type='image' id = 10 class = 'card_image' src='/static/experiments/columbia_card_task_hot/images/beforeChosen.png'></div></div>","none","2250","","","","","","","","","","",""
"792","89","poldrack-single-stim","40","114452","0.0-8.9-0.23-0.23","sub-11_ses-03_1","","792","0","stim","<div class = cct-box><div class = titleBigBox>   <div class = titleboxLeft><div class = game-text id = game_round>Tour: 10</div></div>   <div class = titleboxLeft1><div class = game-text id = loss_amount>Pertes: -65</div></div>    <div class = titleboxMiddle1><div class = game-text id = gain_amount>Gains: 17</div></div>    <div class = titlebox><div class = game-text>Combien de cartes voulez-vous prendre? </div></div>     <div class = titleboxRight1><div class = game-text id = num_loss_cards><font size='+3'>Mauveaises Cartes: 2</font></div></div>   <div class = titleboxRight><div class = game-text id = current_round>Points du tour: 0</div></div><div class = cardbox><div class = square><input type='image' id = 1 class = 'card_image' src='/static/experiments/columbia_card_task_hot/images/beforeChosen.png'></div><div class = square><input type='image' id = 2 class = 'card_image' src='/static/experiments/columbia_card_task_hot/images/beforeChosen.png'></div><div class = square><input type='image' id = 3 class = 'card_image' src='/static/experiments/columbia_card_task_hot/images/beforeChosen.png'></div><div class = square><input type='image' id = 4 class = 'card_image' src='/static/experiments/columbia_card_task_hot/images/beforeChosen.png'></div><div class = square><input type='image' id = 5 class = 'card_image' src='/static/experiments/columbia_card_task_hot/images/beforeChosen.png'></div><div class = square><input type='image' id = 6 class = 'card_image' src='/static/experiments/columbia_card_task_hot/images/beforeChosen.png'></div><div class = square><input type='image' id = 7 class = 'card_image' src='/static/experiments/columbia_card_task_hot/images/beforeChosen.png'></div><div class = square><input type='image' id = 8 class = 'card_image' src='/static/experiments/columbia_card_task_hot/images/beforeChosen.png'></div><div class = square><input type='image' id = 9 class = 'card_image' src='/static/experiments/columbia_card_task_hot/images/beforeChosen.png'></div><div class = square><input type='image' id = 10 class = 'card_image' src='/static/experiments/columbia_card_task_hot/images/beforeChosen.png'></div></div>","89,71","792","test","10","1","10","2","17","-65","-65","true","",""
"-1","-1","poldrack-single-stim","41","117062","0.0-8.9-1.9","sub-11_ses-03_1","","2590","0","ITI","<div class = cct-box><div class = titleBigBox>   <div class = titleboxLeft><div class = game-text id = game_round>Tour: 10</div></div>   <div class = titleboxLeft1><div class = game-text id = loss_amount>Pertes: -65</div></div>    <div class = titleboxMiddle1><div class = game-text id = gain_amount>Gains: 17</div></div>    <div class = titlebox><div class = game-text>Combien de cartes voulez-vous prendre? </div></div>     <div class = titleboxRight1><div class = game-text id = num_loss_cards><font size='+3'>Mauveaises Cartes: 2</font></div></div>   <div class = titleboxRight><div class = game-text id = current_round>Points du tour: -65</div></div><div class = cardbox><div class = square><input type='image' id = 1 class = 'card_image' src='/static/experiments/columbia_card_task_hot/images/beforeChosen.png'></div><div class = square><input type='image' id = 2 class = 'card_image' src='/static/experiments/columbia_card_task_hot/images/loss.png'></div><div class = square><input type='image' id = 3 class = 'card_image' src='/static/experiments/columbia_card_task_hot/images/beforeChosen.png'></div><div class = square><input type='image' id = 4 class = 'card_image' src='/static/experiments/columbia_card_task_hot/images/beforeChosen.png'></div><div class = square><input type='image' id = 5 class = 'card_image' src='/static/experiments/columbia_card_task_hot/images/beforeChosen.png'></div><div class = square><input type='image' id = 6 class = 'card_image' src='/static/experiments/columbia_card_task_hot/images/beforeChosen.png'></div><div class = square><input type='image' id = 7 class = 'card_image' src='/static/experiments/columbia_card_task_hot/images/beforeChosen.png'></div><div class = square><input type='image' id = 8 class = 'card_image' src='/static/experiments/columbia_card_task_hot/images/beforeChosen.png'></div><div class = square><input type='image' id = 9 class = 'card_image' src='/static/experiments/columbia_card_task_hot/images/beforeChosen.png'></div><div class = square><input type='image' id = 10 class = 'card_image' src='/static/experiments/columbia_card_task_hot/images/beforeChosen.png'></div></div>","none","2250","","","","","","","","","","",""
"838","89","poldrack-single-stim","42","117906","0.0-8.10-0.24-0.24","sub-11_ses-03_1","","838","0","stim","<div class = cct-box><div class = titleBigBox>   <div class = titleboxLeft><div class = game-text id = game_round>Tour: 11</div></div>   <div class = titleboxLeft1><div class = game-text id = loss_amount>Pertes: -70</div></div>    <div class = titleboxMiddle1><div class = game-text id = gain_amount>Gains: 13</div></div>    <div class = titlebox><div class = game-text>Combien de cartes voulez-vous prendre? </div></div>     <div class = titleboxRight1><div class = game-text id = num_loss_cards><font size='+3'>Mauveaises Cartes: 2</font></div></div>   <div class = titleboxRight><div class = game-text id = current_round>Points du tour: 0</div></div><div class = cardbox><div class = square><input type='image' id = 1 class = 'card_image' src='/static/experiments/columbia_card_task_hot/images/beforeChosen.png'></div><div class = square><input type='image' id = 2 class = 'card_image' src='/static/experiments/columbia_card_task_hot/images/beforeChosen.png'></div><div class = square><input type='image' id = 3 class = 'card_image' src='/static/experiments/columbia_card_task_hot/images/beforeChosen.png'></div><div class = square><input type='image' id = 4 class = 'card_image' src='/static/experiments/columbia_card_task_hot/images/beforeChosen.png'></div><div class = square><input type='image' id = 5 class = 'card_image' src='/static/experiments/columbia_card_task_hot/images/beforeChosen.png'></div><div class = square><input type='image' id = 6 class = 'card_image' src='/static/experiments/columbia_card_task_hot/images/beforeChosen.png'></div><div class = square><input type='image' id = 7 class = 'card_image' src='/static/experiments/columbia_card_task_hot/images/beforeChosen.png'></div><div class = square><input type='image' id = 8 class = 'card_image' src='/static/experiments/columbia_card_task_hot/images/beforeChosen.png'></div><div class = square><input type='image' id = 9 class = 'card_image' src='/static/experiments/columbia_card_task_hot/images/beforeChosen.png'></div><div class = square><input type='image' id = 10 class = 'card_image' src='/static/experiments/columbia_card_task_hot/images/beforeChosen.png'></div><div class = square><input type='image' id = 11 class = 'card_image' src='/static/experiments/columbia_card_task_hot/images/beforeChosen.png'></div><div class = square><input type='image' id = 12 class = 'card_image' src='/static/experiments/columbia_card_task_hot/images/beforeChosen.png'></div></div>","89,71","838","test","11","1","12","2","13","-70","13","false","",""
"622","89","poldrack-single-stim","43","118536","0.0-8.10-0.25-0.25","sub-11_ses-03_1","","622","0","stim","<div class = cct-box><div class = titleBigBox>   <div class = titleboxLeft><div class = game-text id = game_round>Tour: 11</div></div>   <div class = titleboxLeft1><div class = game-text id = loss_amount>Pertes: -70</div></div>    <div class = titleboxMiddle1><div class = game-text id = gain_amount>Gains: 13</div></div>    <div class = titlebox><div class = game-text>Combien de cartes voulez-vous prendre? </div></div>     <div class = titleboxRight1><div class = game-text id = num_loss_cards><font size='+3'>Mauveaises Cartes: 2</font></div></div>   <div class = titleboxRight><div class = game-text id = current_round>Points du tour: 13</div></div><div class = cardbox><div class = square><input type='image' id = 1 class = 'card_image' src='/static/experiments/columbia_card_task_hot/images/beforeChosen.png'></div><div class = square><input type='image' id = 2 class = 'card_image' src='/static/experiments/columbia_card_task_hot/images/beforeChosen.png'></div><div class = square><input type='image' id = 3 class = 'card_image' src='/static/experiments/columbia_card_task_hot/images/beforeChosen.png'></div><div class = square><input type='image' id = 4 class = 'card_image' src='/static/experiments/columbia_card_task_hot/images/beforeChosen.png'></div><div class = square><input type='image' id = 5 class = 'card_image' src='/static/experiments/columbia_card_task_hot/images/beforeChosen.png'></div><div class = square><input type='image' id = 6 class = 'card_image' src='/static/experiments/columbia_card_task_hot/images/beforeChosen.png'></div><div class = square><input type='image' id = 7 class = 'card_image' src='/static/experiments/columbia_card_task_hot/images/beforeChosen.png'></div><div class = square><input type='image' id = 8 class = 'card_image' src='/static/experiments/columbia_card_task_hot/images/beforeChosen.png'></div><div class = square><input type='image' id = 9 class = 'card_image' src='/static/experiments/columbia_card_task_hot/images/beforeChosen.png'></div><div class = square><input type='image' id = 10 class = 'card_image' src='/static/experiments/columbia_card_task_hot/images/beforeChosen.png'></div><div class = square><input type='image' id = 11 class = 'card_image' src='/static/experiments/columbia_card_task_hot/images/beforeChosen.png'></div><div class = square><input type='image' id = 12 class = 'card_image' src='/static/experiments/columbia_card_task_hot/images/chosen.png'></div></div>","89,71","622","test","11","2","12","2","13","-70","26","false","",""
"678","71","poldrack-single-stim","44","119221","0.0-8.10-0.26-0.26","sub-11_ses-03_1","","678","0","stim","<div class = cct-box><div class = titleBigBox>   <div class = titleboxLeft><div class = game-text id = game_round>Tour: 11</div></div>   <div class = titleboxLeft1><div class = game-text id = loss_amount>Pertes: -70</div></div>    <div class = titleboxMiddle1><div class = game-text id = gain_amount>Gains: 13</div></div>    <div class = titlebox><div class = game-text>Combien de cartes voulez-vous prendre? </div></div>     <div class = titleboxRight1><div class = game-text id = num_loss_cards><font size='+3'>Mauveaises Cartes: 2</font></div></div>   <div class = titleboxRight><div class = game-text id = current_round>Points du tour: 26</div></div><div class = cardbox><div class = square><input type='image' id = 1 class = 'card_image' src='/static/experiments/columbia_card_task_hot/images/beforeChosen.png'></div><div class = square><input type='image' id = 2 class = 'card_image' src='/static/experiments/columbia_card_task_hot/images/beforeChosen.png'></div><div class = square><input type='image' id = 3 class = 'card_image' src='/static/experiments/columbia_card_task_hot/images/beforeChosen.png'></div><div class = square><input type='image' id = 4 class = 'card_image' src='/static/experiments/columbia_card_task_hot/images/chosen.png'></div><div class = square><input type='image' id = 5 class = 'card_image' src='/static/experiments/columbia_card_task_hot/images/beforeChosen.png'></div><div class = square><input type='image' id = 6 class = 'card_image' src='/static/experiments/columbia_card_task_hot/images/beforeChosen.png'></div><div class = square><input type='image' id = 7 class = 'card_image' src='/static/experiments/columbia_card_task_hot/images/beforeChosen.png'></div><div class = square><input type='image' id = 8 class = 'card_image' src='/static/experiments/columbia_card_task_hot/images/beforeChosen.png'></div><div class = square><input type='image' id = 9 class = 'card_image' src='/static/experiments/columbia_card_task_hot/images/beforeChosen.png'></div><div class = square><input type='image' id = 10 class = 'card_image' src='/static/experiments/columbia_card_task_hot/images/beforeChosen.png'></div><div class = square><input type='image' id = 11 class = 'card_image' src='/static/experiments/columbia_card_task_hot/images/beforeChosen.png'></div><div class = square><input type='image' id = 12 class = 'card_image' src='/static/experiments/columbia_card_task_hot/images/chosen.png'></div></div>","89,71","678","test","11","2","12","2","13","-70","26","false","",""
"-1","-1","poldrack-single-stim","45","121562","0.0-8.10-1.10","sub-11_ses-03_1","","2318","0","ITI","<div class = cct-box><div class = titleBigBox>   <div class = titleboxLeft><div class = game-text id = game_round>Tour: 11</div></div>   <div class = titleboxLeft1><div class = game-text id = loss_amount>Pertes: -70</div></div>    <div class = titleboxMiddle1><div class = game-text id = gain_amount>Gains: 13</div></div>    <div class = titlebox><div class = game-text>Combien de cartes voulez-vous prendre? </div></div>     <div class = titleboxRight1><div class = game-text id = num_loss_cards><font size='+3'>Mauveaises Cartes: 2</font></div></div>   <div class = titleboxRight><div class = game-text id = current_round>Points du tour: 26</div></div><div class = cardbox><div class = square><input type='image' id = 1 class = 'card_image' src='/static/experiments/columbia_card_task_hot/images/beforeChosen.png'></div><div class = square><input type='image' id = 2 class = 'card_image' src='/static/experiments/columbia_card_task_hot/images/beforeChosen.png'></div><div class = square><input type='image' id = 3 class = 'card_image' src='/static/experiments/columbia_card_task_hot/images/beforeChosen.png'></div><div class = square><input type='image' id = 4 class = 'card_image' src='/static/experiments/columbia_card_task_hot/images/chosen.png'></div><div class = square><input type='image' id = 5 class = 'card_image' src='/static/experiments/columbia_card_task_hot/images/beforeChosen.png'></div><div class = square><input type='image' id = 6 class = 'card_image' src='/static/experiments/columbia_card_task_hot/images/beforeChosen.png'></div><div class = square><input type='image' id = 7 class = 'card_image' src='/static/experiments/columbia_card_task_hot/images/beforeChosen.png'></div><div class = square><input type='image' id = 8 class = 'card_image' src='/static/experiments/columbia_card_task_hot/images/beforeChosen.png'></div><div class = square><input type='image' id = 9 class = 'card_image' src='/static/experiments/columbia_card_task_hot/images/beforeChosen.png'></div><div class = square><input type='image' id = 10 class = 'card_image' src='/static/experiments/columbia_card_task_hot/images/beforeChosen.png'></div><div class = square><input type='image' id = 11 class = 'card_image' src='/static/experiments/columbia_card_task_hot/images/beforeChosen.png'></div><div class = square><input type='image' id = 12 class = 'card_image' src='/static/experiments/columbia_card_task_hot/images/chosen.png'></div></div>","none","2250","","","","","","","","","","",""
"1691","89","poldrack-single-stim","46","123260","0.0-8.11-0.27-0.27","sub-11_ses-03_1","","1691","0","stim","<div class = cct-box><div class = titleBigBox>   <div class = titleboxLeft><div class = game-text id = game_round>Tour: 12</div></div>   <div class = titleboxLeft1><div class = game-text id = loss_amount>Pertes: -80</div></div>    <div class = titleboxMiddle1><div class = game-text id = gain_amount>Gains: 15</div></div>    <div class = titlebox><div class = game-text>Combien de cartes voulez-vous prendre? </div></div>     <div class = titleboxRight1><div class = game-text id = num_loss_cards><font size='+3'>Mauveaises Cartes: 2</font></div></div>   <div class = titleboxRight><div class = game-text id = current_round>Points du tour: 0</div></div><div class = cardbox><div class = square><input type='image' id = 1 class = 'card_image' src='/static/experiments/columbia_card_task_hot/images/beforeChosen.png'></div><div class = square><input type='image' id = 2 class = 'card_image' src='/static/experiments/columbia_card_task_hot/images/beforeChosen.png'></div><div class = square><input type='image' id = 3 class = 'card_image' src='/static/experiments/columbia_card_task_hot/images/beforeChosen.png'></div><div class = square><input type='image' id = 4 class = 'card_image' src='/static/experiments/columbia_card_task_hot/images/beforeChosen.png'></div><div class = square><input type='image' id = 5 class = 'card_image' src='/static/experiments/columbia_card_task_hot/images/beforeChosen.png'></div><div class = square><input type='image' id = 6 class = 'card_image' src='/static/experiments/columbia_card_task_hot/images/beforeChosen.png'></div><div class = square><input type='image' id = 7 class = 'card_image' src='/static/experiments/columbia_card_task_hot/images/beforeChosen.png'></div><div class = square><input type='image' id = 8 class = 'card_image' src='/static/experiments/columbia_card_task_hot/images/beforeChosen.png'></div><div class = square><input type='image' id = 9 class = 'card_image' src='/static/experiments/columbia_card_task_hot/images/beforeChosen.png'></div><div class = square><input type='image' id = 10 class = 'card_image' src='/static/experiments/columbia_card_task_hot/images/beforeChosen.png'></div><div class = square><input type='image' id = 11 class = 'card_image' src='/static/experiments/columbia_card_task_hot/images/beforeChosen.png'></div><div class = square><input type='image' id = 12 class = 'card_image' src='/static/experiments/columbia_card_task_hot/images/beforeChosen.png'></div></div>","89,71","1691","test","12","1","12","2","15","-80","15","false","",""
"671","89","poldrack-single-stim","47","123938","0.0-8.11-0.28-0.28","sub-11_ses-03_1","","671","0","stim","<div class = cct-box><div class = titleBigBox>   <div class = titleboxLeft><div class = game-text id = game_round>Tour: 12</div></div>   <div class = titleboxLeft1><div class = game-text id = loss_amount>Pertes: -80</div></div>    <div class = titleboxMiddle1><div class = game-text id = gain_amount>Gains: 15</div></div>    <div class = titlebox><div class = game-text>Combien de cartes voulez-vous prendre? </div></div>     <div class = titleboxRight1><div class = game-text id = num_loss_cards><font size='+3'>Mauveaises Cartes: 2</font></div></div>   <div class = titleboxRight><div class = game-text id = current_round>Points du tour: 15</div></div><div class = cardbox><div class = square><input type='image' id = 1 class = 'card_image' src='/static/experiments/columbia_card_task_hot/images/beforeChosen.png'></div><div class = square><input type='image' id = 2 class = 'card_image' src='/static/experiments/columbia_card_task_hot/images/beforeChosen.png'></div><div class = square><input type='image' id = 3 class = 'card_image' src='/static/experiments/columbia_card_task_hot/images/beforeChosen.png'></div><div class = square><input type='image' id = 4 class = 'card_image' src='/static/experiments/columbia_card_task_hot/images/beforeChosen.png'></div><div class = square><input type='image' id = 5 class = 'card_image' src='/static/experiments/columbia_card_task_hot/images/beforeChosen.png'></div><div class = square><input type='image' id = 6 class = 'card_image' src='/static/experiments/columbia_card_task_hot/images/beforeChosen.png'></div><div class = square><input type='image' id = 7 class = 'card_image' src='/static/experiments/columbia_card_task_hot/images/beforeChosen.png'></div><div class = square><input type='image' id = 8 class = 'card_image' src='/static/experiments/columbia_card_task_hot/images/chosen.png'></div><div class = square><input type='image' id = 9 class = 'card_image' src='/static/experiments/columbia_card_task_hot/images/beforeChosen.png'></div><div class = square><input type='image' id = 10 class = 'card_image' src='/static/experiments/columbia_card_task_hot/images/beforeChosen.png'></div><div class = square><input type='image' id = 11 class = 'card_image' src='/static/experiments/columbia_card_task_hot/images/beforeChosen.png'></div><div class = square><input type='image' id = 12 class = 'card_image' src='/static/experiments/columbia_card_task_hot/images/beforeChosen.png'></div></div>","89,71","671","test","12","2","12","2","15","-80","30","false","",""
"756","71","poldrack-single-stim","48","124703","0.0-8.11-0.29-0.29","sub-11_ses-03_1","","756","0","stim","<div class = cct-box><div class = titleBigBox>   <div class = titleboxLeft><div class = game-text id = game_round>Tour: 12</div></div>   <div class = titleboxLeft1><div class = game-text id = loss_amount>Pertes: -80</div></div>    <div class = titleboxMiddle1><div class = game-text id = gain_amount>Gains: 15</div></div>    <div class = titlebox><div class = game-text>Combien de cartes voulez-vous prendre? </div></div>     <div class = titleboxRight1><div class = game-text id = num_loss_cards><font size='+3'>Mauveaises Cartes: 2</font></div></div>   <div class = titleboxRight><div class = game-text id = current_round>Points du tour: 30</div></div><div class = cardbox><div class = square><input type='image' id = 1 class = 'card_image' src='/static/experiments/columbia_card_task_hot/images/beforeChosen.png'></div><div class = square><input type='image' id = 2 class = 'card_image' src='/static/experiments/columbia_card_task_hot/images/beforeChosen.png'></div><div class = square><input type='image' id = 3 class = 'card_image' src='/static/experiments/columbia_card_task_hot/images/beforeChosen.png'></div><div class = square><input type='image' id = 4 class = 'card_image' src='/static/experiments/columbia_card_task_hot/images/beforeChosen.png'></div><div class = square><input type='image' id = 5 class = 'card_image' src='/static/experiments/columbia_card_task_hot/images/beforeChosen.png'></div><div class = square><input type='image' id = 6 class = 'card_image' src='/static/experiments/columbia_card_task_hot/images/beforeChosen.png'></div><div class = square><input type='image' id = 7 class = 'card_image' src='/static/experiments/columbia_card_task_hot/images/beforeChosen.png'></div><div class = square><input type='image' id = 8 class = 'card_image' src='/static/experiments/columbia_card_task_hot/images/chosen.png'></div><div class = square><input type='image' id = 9 class = 'card_image' src='/static/experiments/columbia_card_task_hot/images/beforeChosen.png'></div><div class = square><input type='image' id = 10 class = 'card_image' src='/static/experiments/columbia_card_task_hot/images/beforeChosen.png'></div><div class = square><input type='image' id = 11 class = 'card_image' src='/static/experiments/columbia_card_task_hot/images/beforeChosen.png'></div><div class = square><input type='image' id = 12 class = 'card_image' src='/static/experiments/columbia_card_task_hot/images/chosen.png'></div></div>","89,71","756","test","12","2","12","2","15","-80","30","false","",""
"-1","-1","poldrack-single-stim","49","126962","0.0-8.11-1.11","sub-11_ses-03_1","","2250","0","ITI","<div class = cct-box><div class = titleBigBox>   <div class = titleboxLeft><div class = game-text id = game_round>Tour: 12</div></div>   <div class = titleboxLeft1><div class = game-text id = loss_amount>Pertes: -80</div></div>    <div class = titleboxMiddle1><div class = game-text id = gain_amount>Gains: 15</div></div>    <div class = titlebox><div class = game-text>Combien de cartes voulez-vous prendre? </div></div>     <div class = titleboxRight1><div class = game-text id = num_loss_cards><font size='+3'>Mauveaises Cartes: 2</font></div></div>   <div class = titleboxRight><div class = game-text id = current_round>Points du tour: 30</div></div><div class = cardbox><div class = square><input type='image' id = 1 class = 'card_image' src='/static/experiments/columbia_card_task_hot/images/beforeChosen.png'></div><div class = square><input type='image' id = 2 class = 'card_image' src='/static/experiments/columbia_card_task_hot/images/beforeChosen.png'></div><div class = square><input type='image' id = 3 class = 'card_image' src='/static/experiments/columbia_card_task_hot/images/beforeChosen.png'></div><div class = square><input type='image' id = 4 class = 'card_image' src='/static/experiments/columbia_card_task_hot/images/beforeChosen.png'></div><div class = square><input type='image' id = 5 class = 'card_image' src='/static/experiments/columbia_card_task_hot/images/beforeChosen.png'></div><div class = square><input type='image' id = 6 class = 'card_image' src='/static/experiments/columbia_card_task_hot/images/beforeChosen.png'></div><div class = square><input type='image' id = 7 class = 'card_image' src='/static/experiments/columbia_card_task_hot/images/beforeChosen.png'></div><div class = square><input type='image' id = 8 class = 'card_image' src='/static/experiments/columbia_card_task_hot/images/chosen.png'></div><div class = square><input type='image' id = 9 class = 'card_image' src='/static/experiments/columbia_card_task_hot/images/beforeChosen.png'></div><div class = square><input type='image' id = 10 class = 'card_image' src='/static/experiments/columbia_card_task_hot/images/beforeChosen.png'></div><div class = square><input type='image' id = 11 class = 'card_image' src='/static/experiments/columbia_card_task_hot/images/beforeChosen.png'></div><div class = square><input type='image' id = 12 class = 'card_image' src='/static/experiments/columbia_card_task_hot/images/chosen.png'></div></div>","none","2250","","","","","","","","","","",""
"1241","89","poldrack-single-stim","50","128211","0.0-8.12-0.30-0.30","sub-11_ses-03_1","","1241","0","stim","<div class = cct-box><div class = titleBigBox>   <div class = titleboxLeft><div class = game-text id = game_round>Tour: 13</div></div>   <div class = titleboxLeft1><div class = game-text id = loss_amount>Pertes: -65</div></div>    <div class = titleboxMiddle1><div class = game-text id = gain_amount>Gains: 14</div></div>    <div class = titlebox><div class = game-text>Combien de cartes voulez-vous prendre? </div></div>     <div class = titleboxRight1><div class = game-text id = num_loss_cards><font size='+3'>Mauveaises Cartes: 3</font></div></div>   <div class = titleboxRight><div class = game-text id = current_round>Points du tour: 0</div></div><div class = cardbox><div class = square><input type='image' id = 1 class = 'card_image' src='/static/experiments/columbia_card_task_hot/images/beforeChosen.png'></div><div class = square><input type='image' id = 2 class = 'card_image' src='/static/experiments/columbia_card_task_hot/images/beforeChosen.png'></div><div class = square><input type='image' id = 3 class = 'card_image' src='/static/experiments/columbia_card_task_hot/images/beforeChosen.png'></div><div class = square><input type='image' id = 4 class = 'card_image' src='/static/experiments/columbia_card_task_hot/images/beforeChosen.png'></div><div class = square><input type='image' id = 5 class = 'card_image' src='/static/experiments/columbia_card_task_hot/images/beforeChosen.png'></div><div class = square><input type='image' id = 6 class = 'card_image' src='/static/experiments/columbia_card_task_hot/images/beforeChosen.png'></div><div class = square><input type='image' id = 7 class = 'card_image' src='/static/experiments/columbia_card_task_hot/images/beforeChosen.png'></div><div class = square><input type='image' id = 8 class = 'card_image' src='/static/experiments/columbia_card_task_hot/images/beforeChosen.png'></div><div class = square><input type='image' id = 9 class = 'card_image' src='/static/experiments/columbia_card_task_hot/images/beforeChosen.png'></div><div class = square><input type='image' id = 10 class = 'card_image' src='/static/experiments/columbia_card_task_hot/images/beforeChosen.png'></div><div class = square><input type='image' id = 11 class = 'card_image' src='/static/experiments/columbia_card_task_hot/images/beforeChosen.png'></div><div class = square><input type='image' id = 12 class = 'card_image' src='/static/experiments/columbia_card_task_hot/images/beforeChosen.png'></div><div class = square><input type='image' id = 13 class = 'card_image' src='/static/experiments/columbia_card_task_hot/images/beforeChosen.png'></div><div class = square><input type='image' id = 14 class = 'card_image' src='/static/experiments/columbia_card_task_hot/images/beforeChosen.png'></div><div class = square><input type='image' id = 15 class = 'card_image' src='/static/experiments/columbia_card_task_hot/images/beforeChosen.png'></div></div>","89,71","1241","test","13","1","15","3","14","-65","14","false","",""
"455","89","poldrack-single-stim","51","128675","0.0-8.12-0.31-0.31","sub-11_ses-03_1","","455","0","stim","<div class = cct-box><div class = titleBigBox>   <div class = titleboxLeft><div class = game-text id = game_round>Tour: 13</div></div>   <div class = titleboxLeft1><div class = game-text id = loss_amount>Pertes: -65</div></div>    <div class = titleboxMiddle1><div class = game-text id = gain_amount>Gains: 14</div></div>    <div class = titlebox><div class = game-text>Combien de cartes voulez-vous prendre? </div></div>     <div class = titleboxRight1><div class = game-text id = num_loss_cards><font size='+3'>Mauveaises Cartes: 3</font></div></div>   <div class = titleboxRight><div class = game-text id = current_round>Points du tour: 14</div></div><div class = cardbox><div class = square><input type='image' id = 1 class = 'card_image' src='/static/experiments/columbia_card_task_hot/images/beforeChosen.png'></div><div class = square><input type='image' id = 2 class = 'card_image' src='/static/experiments/columbia_card_task_hot/images/beforeChosen.png'></div><div class = square><input type='image' id = 3 class = 'card_image' src='/static/experiments/columbia_card_task_hot/images/beforeChosen.png'></div><div class = square><input type='image' id = 4 class = 'card_image' src='/static/experiments/columbia_card_task_hot/images/beforeChosen.png'></div><div class = square><input type='image' id = 5 class = 'card_image' src='/static/experiments/columbia_card_task_hot/images/beforeChosen.png'></div><div class = square><input type='image' id = 6 class = 'card_image' src='/static/experiments/columbia_card_task_hot/images/beforeChosen.png'></div><div class = square><input type='image' id = 7 class = 'card_image' src='/static/experiments/columbia_card_task_hot/images/beforeChosen.png'></div><div class = square><input type='image' id = 8 class = 'card_image' src='/static/experiments/columbia_card_task_hot/images/beforeChosen.png'></div><div class = square><input type='image' id = 9 class = 'card_image' src='/static/experiments/columbia_card_task_hot/images/beforeChosen.png'></div><div class = square><input type='image' id = 10 class = 'card_image' src='/static/experiments/columbia_card_task_hot/images/chosen.png'></div><div class = square><input type='image' id = 11 class = 'card_image' src='/static/experiments/columbia_card_task_hot/images/beforeChosen.png'></div><div class = square><input type='image' id = 12 class = 'card_image' src='/static/experiments/columbia_card_task_hot/images/beforeChosen.png'></div><div class = square><input type='image' id = 13 class = 'card_image' src='/static/experiments/columbia_card_task_hot/images/beforeChosen.png'></div><div class = square><input type='image' id = 14 class = 'card_image' src='/static/experiments/columbia_card_task_hot/images/beforeChosen.png'></div><div class = square><input type='image' id = 15 class = 'card_image' src='/static/experiments/columbia_card_task_hot/images/beforeChosen.png'></div></div>","89,71","455","test","13","2","15","3","14","-65","28","false","",""
